sub,run,cat_cond,trial_type,picture,old,response_old,target_pos,response_pos,dot_resp_loc,cat_corr,TN_corr,TN_rt,feedback_type,trial,SP_timeseries,FB_timeseries,SP_peak_response,FB_peak_response,preStim_bl,anticipation
031,1,2,csp,47b.png,1,0,164,77,163,1,1,698,neg_feedback_onset,1,"[nan nan nan nan nan nan nan nan nan nan nan nan nan nan nan nan nan nan
 nan nan nan nan nan nan nan nan nan nan nan nan nan nan nan nan nan nan
 nan nan nan nan nan nan nan nan nan nan nan nan nan nan nan nan nan nan
 nan nan nan nan nan nan nan nan nan nan nan nan nan nan nan nan nan nan
 nan nan nan nan nan nan nan nan nan nan nan nan nan nan nan nan nan nan
 nan nan nan nan nan nan nan nan nan nan nan nan nan nan nan nan nan nan
 nan nan nan nan nan nan nan nan nan nan nan nan nan nan nan nan nan nan
 nan nan nan nan nan nan nan nan nan nan nan nan nan nan nan nan nan nan
 nan nan nan nan nan nan nan nan nan nan nan nan nan nan nan nan nan nan
 nan nan nan nan nan nan nan nan nan nan nan nan nan nan nan nan nan nan
 nan nan nan nan nan nan nan nan nan nan nan nan nan nan nan nan nan nan
 nan nan nan nan nan nan nan nan nan nan nan nan nan nan nan nan nan nan
 nan nan nan nan nan nan nan nan nan nan nan nan nan nan nan nan nan nan
 nan nan nan nan nan nan nan nan nan nan nan nan nan nan nan nan nan nan
 nan nan nan nan nan nan nan nan]","[nan nan nan nan nan nan nan nan nan nan nan nan nan nan nan nan nan nan
 nan nan nan nan nan nan nan nan nan nan nan nan nan nan nan nan nan nan
 nan nan nan nan nan nan nan nan nan nan nan nan nan nan nan nan nan nan
 nan nan nan nan nan nan nan nan nan nan nan nan nan nan nan nan nan nan
 nan nan nan nan nan nan nan nan nan nan nan nan nan nan nan nan nan nan
 nan nan nan nan nan nan nan nan nan nan nan nan nan nan nan nan nan nan
 nan nan nan nan nan nan nan nan nan nan nan nan nan nan nan nan nan nan
 nan nan nan nan nan nan nan nan nan nan nan nan nan nan]",,,5.69496,0.2754650000000005
031,1,2,csm,59a.png,1,1,292,45,292,1,1,542,neu_feedback_onset,2,"[nan nan nan nan nan nan nan nan nan nan nan nan nan nan nan nan nan nan
 nan nan nan nan nan nan nan nan nan nan nan nan nan nan nan nan nan nan
 nan nan nan nan nan nan nan nan nan nan nan nan nan nan nan nan nan nan
 nan nan nan nan nan nan nan nan nan nan nan nan nan nan nan nan nan nan
 nan nan nan nan nan nan nan nan nan nan nan nan nan nan nan nan nan nan
 nan nan nan nan nan nan nan nan nan nan nan nan nan nan nan nan nan nan
 nan nan nan nan nan nan nan nan nan nan nan nan nan nan nan nan nan nan
 nan nan nan nan nan nan nan nan nan nan nan nan nan nan nan nan nan nan
 nan nan nan nan nan nan nan nan nan nan nan nan nan nan nan nan nan nan
 nan nan nan nan nan nan nan nan nan nan nan nan nan nan nan nan nan nan
 nan nan nan nan nan nan nan nan nan nan nan nan nan nan nan nan nan nan
 nan nan nan nan nan nan nan nan nan nan nan nan nan nan nan nan nan nan
 nan nan nan nan nan nan nan nan nan nan nan nan nan nan nan nan nan nan
 nan nan nan nan nan nan nan nan nan nan nan nan nan nan nan nan nan nan
 nan nan nan nan nan nan nan nan]","[nan nan nan nan nan nan nan nan nan nan nan nan nan nan nan nan nan nan
 nan nan nan nan nan nan nan nan nan nan nan nan nan nan nan nan nan nan
 nan nan nan nan nan nan nan nan nan nan nan nan nan nan nan nan nan nan
 nan nan nan nan nan nan nan nan nan nan nan nan nan nan nan nan nan nan
 nan nan nan nan nan nan nan nan nan nan nan nan nan nan nan nan nan nan
 nan nan nan nan nan nan nan nan nan nan nan nan nan nan nan nan nan nan
 nan nan nan nan nan nan nan nan nan nan nan nan nan nan nan nan nan nan
 nan nan nan nan nan nan nan nan nan nan nan nan nan nan]",,,6.379425,
031,1,2,csp,34b.png,1,1,92,293,93,1,1,518,pos_feedback_onset,3,"[nan nan nan nan nan nan nan nan nan nan nan nan nan nan nan nan nan nan
 nan nan nan nan nan nan nan nan nan nan nan nan nan nan nan nan nan nan
 nan nan nan nan nan nan nan nan nan nan nan nan nan nan nan nan nan nan
 nan nan nan nan nan nan nan nan nan nan nan nan nan nan nan nan nan nan
 nan nan nan nan nan nan nan nan nan nan nan nan nan nan nan nan nan nan
 nan nan nan nan nan nan nan nan nan nan nan nan nan nan nan nan nan nan
 nan nan nan nan nan nan nan nan nan nan nan nan nan nan nan nan nan nan
 nan nan nan nan nan nan nan nan nan nan nan nan nan nan nan nan nan nan
 nan nan nan nan nan nan nan nan nan nan nan nan nan nan nan nan nan nan
 nan nan nan nan nan nan nan nan nan nan nan nan nan nan nan nan nan nan
 nan nan nan nan nan nan nan nan nan nan nan nan nan nan nan nan nan nan
 nan nan nan nan nan nan nan nan nan nan nan nan nan nan nan nan nan nan
 nan nan nan nan nan nan nan nan nan nan nan nan nan nan nan nan nan nan
 nan nan nan nan nan nan nan nan nan nan nan nan nan nan nan nan nan nan
 nan nan nan nan nan nan nan nan]","[nan nan nan nan nan nan nan nan nan nan nan nan nan nan nan nan nan nan
 nan nan nan nan nan nan nan nan nan nan nan nan nan nan nan nan nan nan
 nan nan nan nan nan nan nan nan nan nan nan nan nan nan nan nan nan nan
 nan nan nan nan nan nan nan nan nan nan nan nan nan nan nan nan nan nan
 nan nan nan nan nan nan nan nan nan nan nan nan nan nan nan nan nan nan
 nan nan nan nan nan nan nan nan nan nan nan nan nan nan nan nan nan nan
 nan nan nan nan nan nan nan nan nan nan nan nan nan nan nan nan nan nan
 nan nan nan nan nan nan nan nan nan nan nan nan nan nan]",,,6.347780000000001,
031,1,2,csp,30b.png,1,1,76,124,78,1,1,405,pos_feedback_onset,4,"[nan nan nan nan nan nan nan nan nan nan nan nan nan nan nan nan nan nan
 nan nan nan nan nan nan nan nan nan nan nan nan nan nan nan nan nan nan
 nan nan nan nan nan nan nan nan nan nan nan nan nan nan nan nan nan nan
 nan nan nan nan nan nan nan nan nan nan nan nan nan nan nan nan nan nan
 nan nan nan nan nan nan nan nan nan nan nan nan nan nan nan nan nan nan
 nan nan nan nan nan nan nan nan nan nan nan nan nan nan nan nan nan nan
 nan nan nan nan nan nan nan nan nan nan nan nan nan nan nan nan nan nan
 nan nan nan nan nan nan nan nan nan nan nan nan nan nan nan nan nan nan
 nan nan nan nan nan nan nan nan nan nan nan nan nan nan nan nan nan nan
 nan nan nan nan nan nan nan nan nan nan nan nan nan nan nan nan nan nan
 nan nan nan nan nan nan nan nan nan nan nan nan nan nan nan nan nan nan
 nan nan nan nan nan nan nan nan nan nan nan nan nan nan nan nan nan nan
 nan nan nan nan nan nan nan nan nan nan nan nan nan nan nan nan nan nan
 nan nan nan nan nan nan nan nan nan nan nan nan nan nan nan nan nan nan
 nan nan nan nan nan nan nan nan]","[nan nan nan nan nan nan nan nan nan nan nan nan nan nan nan nan nan nan
 nan nan nan nan nan nan nan nan nan nan nan nan nan nan nan nan nan nan
 nan nan nan nan nan nan nan nan nan nan nan nan nan nan nan nan nan nan
 nan nan nan nan nan nan nan nan nan nan nan nan nan nan nan nan nan nan
 nan nan nan nan nan nan nan nan nan nan nan nan nan nan nan nan nan nan
 nan nan nan nan nan nan nan nan nan nan nan nan nan nan nan nan nan nan
 nan nan nan nan nan nan nan nan nan nan nan nan nan nan nan nan nan nan
 nan nan nan nan nan nan nan nan nan nan nan nan nan nan]",,,5.28167,
031,1,2,csp,2b.png,1,0,348,53,349,1,1,409,pos_feedback_onset,5,"[nan nan nan nan nan nan nan nan nan nan nan nan nan nan nan nan nan nan
 nan nan nan nan nan nan nan nan nan nan nan nan nan nan nan nan nan nan
 nan nan nan nan nan nan nan nan nan nan nan nan nan nan nan nan nan nan
 nan nan nan nan nan nan nan nan nan nan nan nan nan nan nan nan nan nan
 nan nan nan nan nan nan nan nan nan nan nan nan nan nan nan nan nan nan
 nan nan nan nan nan nan nan nan nan nan nan nan nan nan nan nan nan nan
 nan nan nan nan nan nan nan nan nan nan nan nan nan nan nan nan nan nan
 nan nan nan nan nan nan nan nan nan nan nan nan nan nan nan nan nan nan
 nan nan nan nan nan nan nan nan nan nan nan nan nan nan nan nan nan nan
 nan nan nan nan nan nan nan nan nan nan nan nan nan nan nan nan nan nan
 nan nan nan nan nan nan nan nan nan nan nan nan nan nan nan nan nan nan
 nan nan nan nan nan nan nan nan nan nan nan nan nan nan nan nan nan nan
 nan nan nan nan nan nan nan nan nan nan nan nan nan nan nan nan nan nan
 nan nan nan nan nan nan nan nan nan nan nan nan nan nan nan nan nan nan
 nan nan nan nan nan nan nan nan]","[nan nan nan nan nan nan nan nan nan nan nan nan nan nan nan nan nan nan
 nan nan nan nan nan nan nan nan nan nan nan nan nan nan nan nan nan nan
 nan nan nan nan nan nan nan nan nan nan nan nan nan nan nan nan nan nan
 nan nan nan nan nan nan nan nan nan nan nan nan nan nan nan nan nan nan
 nan nan nan nan nan nan nan nan nan nan nan nan nan nan nan nan nan nan
 nan nan nan nan nan nan nan nan nan nan nan nan nan nan nan nan nan nan
 nan nan nan nan nan nan nan nan nan nan nan nan nan nan nan nan nan nan
 nan nan nan nan nan nan nan nan nan nan nan nan nan nan]",,,6.05545,
031,1,2,csm,51a.png,1,1,240,280,59,0,0,NaN,neu_feedback_onset,6,"[nan nan nan nan nan nan nan nan nan nan nan nan nan nan nan nan nan nan
 nan nan nan nan nan nan nan nan nan nan nan nan nan nan nan nan nan nan
 nan nan nan nan nan nan nan nan nan nan nan nan nan nan nan nan nan nan
 nan nan nan nan nan nan nan nan nan nan nan nan nan nan nan nan nan nan
 nan nan nan nan nan nan nan nan nan nan nan nan nan nan nan nan nan nan
 nan nan nan nan nan nan nan nan nan nan nan nan nan nan nan nan nan nan
 nan nan nan nan nan nan nan nan nan nan nan nan nan nan nan nan nan nan
 nan nan nan nan nan nan nan nan nan nan nan nan nan nan nan nan nan nan
 nan nan nan nan nan nan nan nan nan nan nan nan nan nan nan nan nan nan
 nan nan nan nan nan nan nan nan nan nan nan nan nan nan nan nan nan nan
 nan nan nan nan nan nan nan nan nan nan nan nan nan nan nan nan nan nan
 nan nan nan nan nan nan nan nan nan nan nan nan nan nan nan nan nan nan
 nan nan nan nan nan nan nan nan nan nan nan nan nan nan nan nan nan nan
 nan nan nan nan nan nan nan nan nan nan nan nan nan nan nan nan nan nan
 nan nan nan nan nan nan nan nan]","[nan nan nan nan nan nan nan nan nan nan nan nan nan nan nan nan nan nan
 nan nan nan nan nan nan nan nan nan nan nan nan nan nan nan nan nan nan
 nan nan nan nan nan nan nan nan nan nan nan nan nan nan nan nan nan nan
 nan nan nan nan nan nan nan nan nan nan nan nan nan nan nan nan nan nan
 nan nan nan nan nan nan nan nan nan nan nan nan nan nan nan nan nan nan
 nan nan nan nan nan nan nan nan nan nan nan nan nan nan nan nan nan nan
 nan nan nan nan nan nan nan nan nan nan nan nan nan nan nan nan nan nan
 nan nan nan nan nan nan nan nan nan nan nan nan nan nan]",,,5.013705,
031,1,2,csm,1a.png,1,1,52,299,54,1,1,749,neu_feedback_onset,7,"[nan nan nan nan nan nan nan nan nan nan nan nan nan nan nan nan nan nan
 nan nan nan nan nan nan nan nan nan nan nan nan nan nan nan nan nan nan
 nan nan nan nan nan nan nan nan nan nan nan nan nan nan nan nan nan nan
 nan nan nan nan nan nan nan nan nan nan nan nan nan nan nan nan nan nan
 nan nan nan nan nan nan nan nan nan nan nan nan nan nan nan nan nan nan
 nan nan nan nan nan nan nan nan nan nan nan nan nan nan nan nan nan nan
 nan nan nan nan nan nan nan nan nan nan nan nan nan nan nan nan nan nan
 nan nan nan nan nan nan nan nan nan nan nan nan nan nan nan nan nan nan
 nan nan nan nan nan nan nan nan nan nan nan nan nan nan nan nan nan nan
 nan nan nan nan nan nan nan nan nan nan nan nan nan nan nan nan nan nan
 nan nan nan nan nan nan nan nan nan nan nan nan nan nan nan nan nan nan
 nan nan nan nan nan nan nan nan nan nan nan nan nan nan nan nan nan nan
 nan nan nan nan nan nan nan nan nan nan nan nan nan nan nan nan nan nan
 nan nan nan nan nan nan nan nan nan nan nan nan nan nan nan nan nan nan
 nan nan nan nan nan nan nan nan]","[nan nan nan nan nan nan nan nan nan nan nan nan nan nan nan nan nan nan
 nan nan nan nan nan nan nan nan nan nan nan nan nan nan nan nan nan nan
 nan nan nan nan nan nan nan nan nan nan nan nan nan nan nan nan nan nan
 nan nan nan nan nan nan nan nan nan nan nan nan nan nan nan nan nan nan
 nan nan nan nan nan nan nan nan nan nan nan nan nan nan nan nan nan nan
 nan nan nan nan nan nan nan nan nan nan nan nan nan nan nan nan nan nan
 nan nan nan nan nan nan nan nan nan nan nan nan nan nan nan nan nan nan
 nan nan nan nan nan nan nan nan nan nan nan nan nan nan]",,,6.30555,
031,1,2,csm,61a.png,1,1,72,309,72,1,1,434,neu_feedback_onset,8,"[nan nan nan nan nan nan nan nan nan nan nan nan nan nan nan nan nan nan
 nan nan nan nan nan nan nan nan nan nan nan nan nan nan nan nan nan nan
 nan nan nan nan nan nan nan nan nan nan nan nan nan nan nan nan nan nan
 nan nan nan nan nan nan nan nan nan nan nan nan nan nan nan nan nan nan
 nan nan nan nan nan nan nan nan nan nan nan nan nan nan nan nan nan nan
 nan nan nan nan nan nan nan nan nan nan nan nan nan nan nan nan nan nan
 nan nan nan nan nan nan nan nan nan nan nan nan nan nan nan nan nan nan
 nan nan nan nan nan nan nan nan nan nan nan nan nan nan nan nan nan nan
 nan nan nan nan nan nan nan nan nan nan nan nan nan nan nan nan nan nan
 nan nan nan nan nan nan nan nan nan nan nan nan nan nan nan nan nan nan
 nan nan nan nan nan nan nan nan nan nan nan nan nan nan nan nan nan nan
 nan nan nan nan nan nan nan nan nan nan nan nan nan nan nan nan nan nan
 nan nan nan nan nan nan nan nan nan nan nan nan nan nan nan nan nan nan
 nan nan nan nan nan nan nan nan nan nan nan nan nan nan nan nan nan nan
 nan nan nan nan nan nan nan nan]","[nan nan nan nan nan nan nan nan nan nan nan nan nan nan nan nan nan nan
 nan nan nan nan nan nan nan nan nan nan nan nan nan nan nan nan nan nan
 nan nan nan nan nan nan nan nan nan nan nan nan nan nan nan nan nan nan
 nan nan nan nan nan nan nan nan nan nan nan nan nan nan nan nan nan nan
 nan nan nan nan nan nan nan nan nan nan nan nan nan nan nan nan nan nan
 nan nan nan nan nan nan nan nan nan nan nan nan nan nan nan nan nan nan
 nan nan nan nan nan nan nan nan nan nan nan nan nan nan nan nan nan nan
 nan nan nan nan nan nan nan nan nan nan nan nan nan nan]",,,5.776775,
031,1,2,csm,23a.png,1,1,84,82,89,1,1,419,neu_feedback_onset,9,"[nan nan nan nan nan nan nan nan nan nan nan nan nan nan nan nan nan nan
 nan nan nan nan nan nan nan nan nan nan nan nan nan nan nan nan nan nan
 nan nan nan nan nan nan nan nan nan nan nan nan nan nan nan nan nan nan
 nan nan nan nan nan nan nan nan nan nan nan nan nan nan nan nan nan nan
 nan nan nan nan nan nan nan nan nan nan nan nan nan nan nan nan nan nan
 nan nan nan nan nan nan nan nan nan nan nan nan nan nan nan nan nan nan
 nan nan nan nan nan nan nan nan nan nan nan nan nan nan nan nan nan nan
 nan nan nan nan nan nan nan nan nan nan nan nan nan nan nan nan nan nan
 nan nan nan nan nan nan nan nan nan nan nan nan nan nan nan nan nan nan
 nan nan nan nan nan nan nan nan nan nan nan nan nan nan nan nan nan nan
 nan nan nan nan nan nan nan nan nan nan nan nan nan nan nan nan nan nan
 nan nan nan nan nan nan nan nan nan nan nan nan nan nan nan nan nan nan
 nan nan nan nan nan nan nan nan nan nan nan nan nan nan nan nan nan nan
 nan nan nan nan nan nan nan nan nan nan nan nan nan nan nan nan nan nan
 nan nan nan nan nan nan nan nan]","[nan nan nan nan nan nan nan nan nan nan nan nan nan nan nan nan nan nan
 nan nan nan nan nan nan nan nan nan nan nan nan nan nan nan nan nan nan
 nan nan nan nan nan nan nan nan nan nan nan nan nan nan nan nan nan nan
 nan nan nan nan nan nan nan nan nan nan nan nan nan nan nan nan nan nan
 nan nan nan nan nan nan nan nan nan nan nan nan nan nan nan nan nan nan
 nan nan nan nan nan nan nan nan nan nan nan nan nan nan nan nan nan nan
 nan nan nan nan nan nan nan nan nan nan nan nan nan nan nan nan nan nan
 nan nan nan nan nan nan nan nan nan nan nan nan nan nan]",,,5.7787999999999995,
031,1,2,csm,53a.png,1,1,340,278,339,1,1,432,neu_feedback_onset,10,"[nan nan nan nan nan nan nan nan nan nan nan nan nan nan nan nan nan nan
 nan nan nan nan nan nan nan nan nan nan nan nan nan nan nan nan nan nan
 nan nan nan nan nan nan nan nan nan nan nan nan nan nan nan nan nan nan
 nan nan nan nan nan nan nan nan nan nan nan nan nan nan nan nan nan nan
 nan nan nan nan nan nan nan nan nan nan nan nan nan nan nan nan nan nan
 nan nan nan nan nan nan nan nan nan nan nan nan nan nan nan nan nan nan
 nan nan nan nan nan nan nan nan nan nan nan nan nan nan nan nan nan nan
 nan nan nan nan nan nan nan nan nan nan nan nan nan nan nan nan nan nan
 nan nan nan nan nan nan nan nan nan nan nan nan nan nan nan nan nan nan
 nan nan nan nan nan nan nan nan nan nan nan nan nan nan nan nan nan nan
 nan nan nan nan nan nan nan nan nan nan nan nan nan nan nan nan nan nan
 nan nan nan nan nan nan nan nan nan nan nan nan nan nan nan nan nan nan
 nan nan nan nan nan nan nan nan nan nan nan nan nan nan nan nan nan nan
 nan nan nan nan nan nan nan nan nan nan nan nan nan nan nan nan nan nan
 nan nan nan nan nan nan nan nan]","[nan nan nan nan nan nan nan nan nan nan nan nan nan nan nan nan nan nan
 nan nan nan nan nan nan nan nan nan nan nan nan nan nan nan nan nan nan
 nan nan nan nan nan nan nan nan nan nan nan nan nan nan nan nan nan nan
 nan nan nan nan nan nan nan nan nan nan nan nan nan nan nan nan nan nan
 nan nan nan nan nan nan nan nan nan nan nan nan nan nan nan nan nan nan
 nan nan nan nan nan nan nan nan nan nan nan nan nan nan nan nan nan nan
 nan nan nan nan nan nan nan nan nan nan nan nan nan nan nan nan nan nan
 nan nan nan nan nan nan nan nan nan nan nan nan nan nan]",,,5.767099999999998,
031,1,2,csp,63b.png,1,1,236,287,236,1,1,468,pos_feedback_onset,11,"[nan nan nan nan nan nan nan nan nan nan nan nan nan nan nan nan nan nan
 nan nan nan nan nan nan nan nan nan nan nan nan nan nan nan nan nan nan
 nan nan nan nan nan nan nan nan nan nan nan nan nan nan nan nan nan nan
 nan nan nan nan nan nan nan nan nan nan nan nan nan nan nan nan nan nan
 nan nan nan nan nan nan nan nan nan nan nan nan nan nan nan nan nan nan
 nan nan nan nan nan nan nan nan nan nan nan nan nan nan nan nan nan nan
 nan nan nan nan nan nan nan nan nan nan nan nan nan nan nan nan nan nan
 nan nan nan nan nan nan nan nan nan nan nan nan nan nan nan nan nan nan
 nan nan nan nan nan nan nan nan nan nan nan nan nan nan nan nan nan nan
 nan nan nan nan nan nan nan nan nan nan nan nan nan nan nan nan nan nan
 nan nan nan nan nan nan nan nan nan nan nan nan nan nan nan nan nan nan
 nan nan nan nan nan nan nan nan nan nan nan nan nan nan nan nan nan nan
 nan nan nan nan nan nan nan nan nan nan nan nan nan nan nan nan nan nan
 nan nan nan nan nan nan nan nan nan nan nan nan nan nan nan nan nan nan
 nan nan nan nan nan nan nan nan]","[  0.31486125   0.21302384   0.11118642   0.01101847  -0.08581054
  -0.1759617   -0.25943499  -0.32788308  -0.38130599  -0.41469531
  -0.42304263  -0.40300905  -0.34958614  -0.26110445  -0.13422505
   0.03272153   0.23973529   0.48180783   0.75560022   1.05610407
   1.37497204   1.7038568    2.03441103   2.35661793   2.66379964
   2.94760882   3.20470656   3.42841498   3.61873408   3.77232493
   3.890857     3.97266083   4.02441427   4.04444786   4.03610053
   4.00438068   3.95095777   3.87917074   3.79235852   3.69386004
   3.5836753    3.46514322   3.34160275   3.21138442   3.07949662
   2.94426989   2.80904316   2.6704775    2.53191184   2.39334618
   2.25478052   2.11621485   1.97597973   1.83741406   1.69717894
   1.55861327   1.42004761   1.27981249   1.14124682   1.0010117
   0.86244603   0.72221091   0.58364525   0.44341012   0.30484446
   0.16627879   0.02604367  -0.112522    -0.25275712  -0.39132278
  -0.53155791  -0.67012357  -0.8103587   -0.94892436  -1.08749002
  -1.22772515  -1.36629081  -1.50652594  -1.6450916   -1.78532673
  -1.92389239  -2.06245805  -2.20269318  -2.34125884  -2.48149397
  -2.62005963  -2.76029476  -2.89886042  -3.03909555  -3.17766121
  -3.31622687  -3.456462    -3.59502766  -3.73526279  -3.87382845
  -4.01406358  -4.15262924  -4.29286437  -4.43143003  -4.56999569
  -4.71023082  -4.84879648  -4.98903161  -5.12759727  -5.2678324
  -5.40639806  -5.54663319  -5.68519885  -5.82376451  -5.96399964
  -6.1025653   -6.24280043  -6.38136609  -6.51993175  -6.66016688
  -6.79873254  -6.9372982   -7.07586387  -7.21276006  -7.34798679
  -7.48321352  -7.61677079  -7.74698912  -7.87553799  -8.00074792
  -8.12595786  -8.24949833  -8.37470826  -8.50325713  -8.63347546
  -8.77037166  -8.91227625  -9.05751977  -9.2077717   -9.35969309
  -9.50994501  -9.65518853  -9.79208473  -9.91729466 -10.03081834]",,2.6235655115076306,5.6184899999999995,0.3609650000000002
031,1,2,csm,58a.png,1,1,48,30,52,1,1,529,neu_feedback_onset,12,"[-2.30107230e-02 -1.79483639e-01 -3.00980257e-01 -3.80137144e-01
 -4.16954301e-01 -4.15113443e-01 -3.74614570e-01 -3.04661972e-01
 -2.12619080e-01 -1.07690184e-01  2.76128676e-03  1.09531041e-01
  2.03414791e-01  2.80730821e-01  3.34115698e-01  3.67251139e-01
  3.78296286e-01  3.69091997e-01  3.48842561e-01  3.21229693e-01
  2.91775968e-01  2.69685674e-01  2.60481384e-01  2.67844816e-01
  2.95457683e-01  3.43319987e-01  4.13272585e-01  4.97952046e-01
  5.95517511e-01  7.02287266e-01  8.09057021e-01  9.12145060e-01
  1.00602881e+00  1.09070827e+00  1.16250173e+00  1.22509089e+00
  1.28031663e+00  1.33186065e+00  1.38524552e+00  1.44415298e+00
  1.51410557e+00  1.59326246e+00  1.68346449e+00  1.78287082e+00
  1.88595886e+00  1.99088775e+00  2.09397579e+00  2.18970040e+00
  2.27806158e+00  2.35721846e+00  2.42901192e+00  2.49712366e+00
  2.56339454e+00  2.62782457e+00  2.69593631e+00  2.76772976e+00
  2.84136408e+00  2.91315753e+00  2.98126927e+00  3.04201758e+00
  3.09172074e+00  3.13221961e+00  3.16351420e+00  3.18928621e+00
  3.21689907e+00  3.25003452e+00  3.29973768e+00  3.37153113e+00
  3.46909660e+00  3.59611579e+00  3.75442956e+00  3.94035621e+00
  4.14653228e+00  4.36743522e+00  4.59570160e+00  4.82212711e+00
  5.03750748e+00  5.23816098e+00  5.41488334e+00  5.56767454e+00
  5.69285287e+00  5.79041833e+00  5.86037093e+00  5.90455152e+00
  5.92296010e+00  5.91743753e+00  5.88798380e+00  5.83643978e+00
  5.76648718e+00  5.67996686e+00  5.58240140e+00  5.47747250e+00
  5.37438446e+00  5.27681900e+00  5.19029868e+00  5.12218694e+00
  5.07248378e+00  5.04671177e+00  5.04118919e+00  5.05775691e+00
  5.09273321e+00  5.14243638e+00  5.20134383e+00  5.26945557e+00
  5.34124902e+00  5.41672419e+00  5.49404022e+00  5.57135625e+00
  5.65419485e+00  5.74071517e+00  5.83091721e+00  5.93032353e+00
  6.03525243e+00  6.14938561e+00  6.26904137e+00  6.39790142e+00
  6.53228404e+00  6.67403010e+00  6.81761701e+00  6.96488564e+00
  7.11399512e+00  7.26494546e+00  7.41589581e+00  7.56684615e+00
  7.71779649e+00  7.86874684e+00  8.01969718e+00  8.16880666e+00
  8.31607529e+00  8.45966220e+00  8.59772654e+00  8.72842745e+00
  8.84992406e+00  8.96037553e+00  9.05425928e+00  9.13341617e+00
  9.19600534e+00  9.24018593e+00  9.26595794e+00  9.27516223e+00
  9.26963965e+00  9.25123107e+00  9.22177735e+00  9.18496019e+00
  9.14077960e+00  9.09291730e+00  9.04137328e+00  8.98798840e+00
  8.93092181e+00  8.87569607e+00  8.81862948e+00  8.75972203e+00
  8.70265544e+00  8.64374799e+00  8.58668139e+00  8.52777394e+00
  8.47070735e+00  8.41179990e+00  8.35473331e+00  8.29582585e+00
  8.23875926e+00  8.17985181e+00  8.12278522e+00  8.06387777e+00
  8.00497032e+00  7.94790372e+00  7.88899627e+00  7.83192968e+00
  7.77302223e+00  7.71595564e+00  7.65704818e+00  7.59814073e+00
  7.54107414e+00  7.48216669e+00  7.42510010e+00  7.36619265e+00
  7.30912605e+00  7.25021860e+00  7.19131115e+00  7.13424456e+00
  7.07533711e+00  7.01827051e+00  6.95936306e+00  6.90229647e+00
  6.84338902e+00  6.78632243e+00  6.72741498e+00  6.66850752e+00
  6.61144093e+00  6.55253348e+00  6.49546689e+00  6.43655944e+00
  6.37949284e+00  6.32058539e+00  6.26167794e+00  6.20461135e+00
  6.14570390e+00  6.08863730e+00  6.02972985e+00  5.97266326e+00
  5.91375581e+00  5.85484836e+00  5.79778177e+00  5.73887432e+00
  5.68180772e+00  5.62290027e+00  5.56583368e+00  5.50692623e+00
  5.44801878e+00  5.39095218e+00  5.33204473e+00  5.27497814e+00
  5.21607069e+00  5.15900410e+00  5.10009665e+00  5.04303005e+00
  4.98412260e+00  4.92521515e+00  4.86814856e+00  4.80924111e+00
  4.75217451e+00  4.69326706e+00  4.63620047e+00  4.57729302e+00
  4.51838557e+00  4.46131897e+00  4.40241152e+00  4.34534493e+00
  4.28643748e+00  4.22937089e+00  4.17046344e+00  4.11155599e+00
  4.05448939e+00  3.99558194e+00  3.93851535e+00  3.87960790e+00
  3.82254130e+00  3.76363385e+00  3.70656726e+00  3.64765981e+00
  3.58875236e+00  3.53168577e+00  3.47277831e+00  3.41571172e+00
  3.35680427e+00  3.29973768e+00  3.24083023e+00  3.18192278e+00
  3.12485618e+00  3.06594873e+00  3.00888214e+00  2.94997469e+00
  2.89290810e+00  2.83400064e+00  2.77509319e+00  2.71802660e+00
  2.65911915e+00  2.60205256e+00  2.54314511e+00  2.48607851e+00]","[nan nan nan nan nan nan nan nan nan nan nan nan nan nan nan nan nan nan
 nan nan nan nan nan nan nan nan nan nan nan nan nan nan nan nan nan nan
 nan nan nan nan nan nan nan nan nan nan nan nan nan nan nan nan nan nan
 nan nan nan nan nan nan nan nan nan nan nan nan nan nan nan nan nan nan
 nan nan nan nan nan nan nan nan nan nan nan nan nan nan nan nan nan nan
 nan nan nan nan nan nan nan nan nan nan nan nan nan nan nan nan nan nan
 nan nan nan nan nan nan nan nan nan nan nan nan nan nan nan nan nan nan
 nan nan nan nan nan nan nan nan nan nan nan nan nan nan]",8.586313221961419,,5.432250000000001,
031,1,2,csp,28b.png,1,1,352,278,350,1,0,388,neg_feedback_onset,13,"[nan nan nan nan nan nan nan nan nan nan nan nan nan nan nan nan nan nan
 nan nan nan nan nan nan nan nan nan nan nan nan nan nan nan nan nan nan
 nan nan nan nan nan nan nan nan nan nan nan nan nan nan nan nan nan nan
 nan nan nan nan nan nan nan nan nan nan nan nan nan nan nan nan nan nan
 nan nan nan nan nan nan nan nan nan nan nan nan nan nan nan nan nan nan
 nan nan nan nan nan nan nan nan nan nan nan nan nan nan nan nan nan nan
 nan nan nan nan nan nan nan nan nan nan nan nan nan nan nan nan nan nan
 nan nan nan nan nan nan nan nan nan nan nan nan nan nan nan nan nan nan
 nan nan nan nan nan nan nan nan nan nan nan nan nan nan nan nan nan nan
 nan nan nan nan nan nan nan nan nan nan nan nan nan nan nan nan nan nan
 nan nan nan nan nan nan nan nan nan nan nan nan nan nan nan nan nan nan
 nan nan nan nan nan nan nan nan nan nan nan nan nan nan nan nan nan nan
 nan nan nan nan nan nan nan nan nan nan nan nan nan nan nan nan nan nan
 nan nan nan nan nan nan nan nan nan nan nan nan nan nan nan nan nan nan
 nan nan nan nan nan nan nan nan]","[nan nan nan nan nan nan nan nan nan nan nan nan nan nan nan nan nan nan
 nan nan nan nan nan nan nan nan nan nan nan nan nan nan nan nan nan nan
 nan nan nan nan nan nan nan nan nan nan nan nan nan nan nan nan nan nan
 nan nan nan nan nan nan nan nan nan nan nan nan nan nan nan nan nan nan
 nan nan nan nan nan nan nan nan nan nan nan nan nan nan nan nan nan nan
 nan nan nan nan nan nan nan nan nan nan nan nan nan nan nan nan nan nan
 nan nan nan nan nan nan nan nan nan nan nan nan nan nan nan nan nan nan
 nan nan nan nan nan nan nan nan nan nan nan nan nan nan]",,,5.695385000000001,
031,1,2,csp,36b.png,1,1,128,34,130,1,1,409,pos_feedback_onset,14,"[nan nan nan nan nan nan nan nan nan nan nan nan nan nan nan nan nan nan
 nan nan nan nan nan nan nan nan nan nan nan nan nan nan nan nan nan nan
 nan nan nan nan nan nan nan nan nan nan nan nan nan nan nan nan nan nan
 nan nan nan nan nan nan nan nan nan nan nan nan nan nan nan nan nan nan
 nan nan nan nan nan nan nan nan nan nan nan nan nan nan nan nan nan nan
 nan nan nan nan nan nan nan nan nan nan nan nan nan nan nan nan nan nan
 nan nan nan nan nan nan nan nan nan nan nan nan nan nan nan nan nan nan
 nan nan nan nan nan nan nan nan nan nan nan nan nan nan nan nan nan nan
 nan nan nan nan nan nan nan nan nan nan nan nan nan nan nan nan nan nan
 nan nan nan nan nan nan nan nan nan nan nan nan nan nan nan nan nan nan
 nan nan nan nan nan nan nan nan nan nan nan nan nan nan nan nan nan nan
 nan nan nan nan nan nan nan nan nan nan nan nan nan nan nan nan nan nan
 nan nan nan nan nan nan nan nan nan nan nan nan nan nan nan nan nan nan
 nan nan nan nan nan nan nan nan nan nan nan nan nan nan nan nan nan nan
 nan nan nan nan nan nan nan nan]","[nan nan nan nan nan nan nan nan nan nan nan nan nan nan nan nan nan nan
 nan nan nan nan nan nan nan nan nan nan nan nan nan nan nan nan nan nan
 nan nan nan nan nan nan nan nan nan nan nan nan nan nan nan nan nan nan
 nan nan nan nan nan nan nan nan nan nan nan nan nan nan nan nan nan nan
 nan nan nan nan nan nan nan nan nan nan nan nan nan nan nan nan nan nan
 nan nan nan nan nan nan nan nan nan nan nan nan nan nan nan nan nan nan
 nan nan nan nan nan nan nan nan nan nan nan nan nan nan nan nan nan nan
 nan nan nan nan nan nan nan nan nan nan nan nan nan nan]",,,5.901619999999999,
031,2,2,csm,42a.png,1,1,108,314,106,1,1,506,neu_feedback_onset,1,"[nan nan nan nan nan nan nan nan nan nan nan nan nan nan nan nan nan nan
 nan nan nan nan nan nan nan nan nan nan nan nan nan nan nan nan nan nan
 nan nan nan nan nan nan nan nan nan nan nan nan nan nan nan nan nan nan
 nan nan nan nan nan nan nan nan nan nan nan nan nan nan nan nan nan nan
 nan nan nan nan nan nan nan nan nan nan nan nan nan nan nan nan nan nan
 nan nan nan nan nan nan nan nan nan nan nan nan nan nan nan nan nan nan
 nan nan nan nan nan nan nan nan nan nan nan nan nan nan nan nan nan nan
 nan nan nan nan nan nan nan nan nan nan nan nan nan nan nan nan nan nan
 nan nan nan nan nan nan nan nan nan nan nan nan nan nan nan nan nan nan
 nan nan nan nan nan nan nan nan nan nan nan nan nan nan nan nan nan nan
 nan nan nan nan nan nan nan nan nan nan nan nan nan nan nan nan nan nan
 nan nan nan nan nan nan nan nan nan nan nan nan nan nan nan nan nan nan
 nan nan nan nan nan nan nan nan nan nan nan nan nan nan nan nan nan nan
 nan nan nan nan nan nan nan nan nan nan nan nan nan nan nan nan nan nan
 nan nan nan nan nan nan nan nan]","[nan nan nan nan nan nan nan nan nan nan nan nan nan nan nan nan nan nan
 nan nan nan nan nan nan nan nan nan nan nan nan nan nan nan nan nan nan
 nan nan nan nan nan nan nan nan nan nan nan nan nan nan nan nan nan nan
 nan nan nan nan nan nan nan nan nan nan nan nan nan nan nan nan nan nan
 nan nan nan nan nan nan nan nan nan nan nan nan nan nan nan nan nan nan
 nan nan nan nan nan nan nan nan nan nan nan nan nan nan nan nan nan nan
 nan nan nan nan nan nan nan nan nan nan nan nan nan nan nan nan nan nan
 nan nan nan nan nan nan nan nan nan nan nan nan nan nan]",,,5.604985000000001,0.29214500000000143
031,2,2,csm,14a.png,1,0,124,69,128,1,1,462,neu_feedback_onset,2,"[-2.57275918e+00 -2.45066527e+00 -2.22127671e+00 -1.89199314e+00
 -1.47761380e+00 -1.00403742e+00 -4.95312796e-01  9.71201561e-03
  4.83288396e-01  8.92118006e-01  1.21215204e+00  1.42674134e+00
  1.53218608e+00  1.52848627e+00  1.42859125e+00  1.25100011e+00
  1.01421192e+00  7.40425571e-01  4.46290241e-01  1.48455096e-01
 -1.43830326e-01 -4.21316487e-01 -6.84003385e-01 -9.30041114e-01
 -1.15942967e+00 -1.37401897e+00 -1.57565891e+00 -1.76249960e+00
 -1.93454101e+00 -2.08993326e+00 -2.23052625e+00 -2.34892035e+00
 -2.44881537e+00 -2.52466158e+00 -2.58015881e+00 -2.61345715e+00
 -2.62640651e+00 -2.62085678e+00 -2.59865789e+00 -2.56350964e+00
 -2.51726195e+00 -2.46176472e+00 -2.40256767e+00 -2.33782090e+00
 -2.26937431e+00 -2.19907782e+00 -2.12878133e+00 -2.05663493e+00
 -1.98448852e+00 -1.91234212e+00 -1.84019572e+00 -1.76619941e+00
 -1.69405301e+00 -1.62190661e+00 -1.54791030e+00 -1.47391399e+00
 -1.39991768e+00 -1.32592137e+00 -1.25007515e+00 -1.17237903e+00
 -1.09098309e+00 -1.00588733e+00 -9.17091760e-01 -8.22746466e-01
 -7.22851448e-01 -6.19256615e-01 -5.10112058e-01 -3.99117594e-01
 -2.89973038e-01 -1.84528297e-01 -9.01830021e-02 -1.24868772e-02
  4.67101703e-02  8.00085096e-02  8.55582328e-02  6.15094322e-02
  7.86210788e-03 -7.35338325e-02 -1.82678389e-01 -3.14021838e-01
 -4.63864365e-01 -6.28506153e-01 -8.00547573e-01 -9.78138715e-01
 -1.15203004e+00 -1.31852174e+00 -1.46836427e+00 -1.59600790e+00
 -1.69220310e+00 -1.74955024e+00 -1.75694987e+00 -1.71070218e+00
 -1.60155762e+00 -1.42581639e+00 -1.18532838e+00 -8.76393790e-01
 -5.08262150e-01 -8.27833712e-02  3.90793009e-01  9.03217452e-01
  1.44894023e+00  2.02056172e+00  2.60698248e+00  3.20265277e+00
  3.80387278e+00  4.40139298e+00  4.98966364e+00  5.56313504e+00
  6.11255764e+00  6.62868189e+00  7.10040837e+00  7.52033742e+00
  7.87551971e+00  8.15855559e+00  8.36204544e+00  8.48228945e+00
  8.51928760e+00  8.47488981e+00  8.35464581e+00  8.16965504e+00
  7.93101694e+00  7.65353078e+00  7.35199582e+00  7.04121132e+00
  6.73967636e+00  6.46219020e+00  6.21985228e+00  6.02376206e+00
  5.88131917e+00  5.79437351e+00  5.76662489e+00  5.79067369e+00
  5.86282009e+00  5.97566446e+00  6.12180717e+00  6.29384859e+00
  6.48623900e+00  6.69342867e+00  6.90801796e+00  7.13000689e+00
  7.35384573e+00  7.58138438e+00  7.80707312e+00  8.03276187e+00
  8.25660070e+00  8.47488981e+00  8.68762920e+00  8.89296896e+00
  9.08720928e+00  9.26850023e+00  9.43129211e+00  9.57558492e+00
  9.69767883e+00  9.79572394e+00  9.86787034e+00  9.91226813e+00
  9.92891730e+00  9.91781785e+00  9.88266960e+00  9.82347255e+00
  9.74207661e+00  9.64218160e+00  9.52563741e+00  9.39799378e+00
  9.25740079e+00  9.10940817e+00  8.95401592e+00  8.79492385e+00
  8.63213197e+00  8.46749018e+00  8.30284840e+00  8.13450679e+00
  7.96801510e+00  7.79967349e+00  7.63133189e+00  7.46299028e+00
  7.29279877e+00  7.12260726e+00  6.95056584e+00  6.78037433e+00
  6.61018282e+00  6.43999131e+00  6.27534952e+00  6.11810736e+00
  5.96826483e+00  5.83322157e+00  5.71482747e+00  5.61678236e+00
  5.54093615e+00  5.49283854e+00  5.46878974e+00  5.46878974e+00
  5.49283854e+00  5.53723633e+00  5.60013319e+00  5.67597941e+00
  5.76292507e+00  5.85912028e+00  5.95901529e+00  6.06446004e+00
  6.17360459e+00  6.28274915e+00  6.39189370e+00  6.50288817e+00
  6.61388263e+00  6.72672700e+00  6.83772147e+00  6.94871593e+00
  7.05971040e+00  7.17255477e+00  7.28354923e+00  7.39454370e+00
  7.50553816e+00  7.61838253e+00  7.72937700e+00  7.84037146e+00
  7.95321583e+00  8.06421030e+00  8.17520476e+00  8.28619923e+00
  8.39904360e+00  8.51003806e+00  8.62103253e+00  8.73387690e+00
  8.84487136e+00  8.95586583e+00  9.06686029e+00  9.17970466e+00
  9.29069913e+00  9.40169359e+00  9.51268805e+00  9.62553243e+00
  9.73652689e+00  9.84752135e+00  9.95851582e+00  1.00695103e+01
  1.01805047e+01  1.02896493e+01  1.03969440e+01  1.05005388e+01
  1.06004338e+01  1.06929292e+01  1.07743251e+01  1.08409218e+01
  1.08890194e+01  1.09149181e+01  1.09112183e+01  1.08760701e+01
  1.08057736e+01  1.07040286e+01  1.05689854e+01  1.04061935e+01
  1.02212027e+01  1.00232626e+01  9.81607292e+00  9.61073316e+00
  9.41094313e+00  9.22040263e+00  9.04096158e+00  8.87446989e+00]","[nan nan nan nan nan nan nan nan nan nan nan nan nan nan nan nan nan nan
 nan nan nan nan nan nan nan nan nan nan nan nan nan nan nan nan nan nan
 nan nan nan nan nan nan nan nan nan nan nan nan nan nan nan nan nan nan
 nan nan nan nan nan nan nan nan nan nan nan nan nan nan nan nan nan nan
 nan nan nan nan nan nan nan nan nan nan nan nan nan nan nan nan nan nan
 nan nan nan nan nan nan nan nan nan nan nan nan nan nan nan nan nan nan
 nan nan nan nan nan nan nan nan nan nan nan nan nan nan nan nan nan nan
 nan nan nan nan nan nan nan nan nan nan nan nan nan nan]",10.034732017740625,,5.405675,0.6306650000000005
031,2,2,csp,1b.png,1,0,304,57,304,1,1,737,neg_feedback_onset,3,"[nan nan nan nan nan nan nan nan nan nan nan nan nan nan nan nan nan nan
 nan nan nan nan nan nan nan nan nan nan nan nan nan nan nan nan nan nan
 nan nan nan nan nan nan nan nan nan nan nan nan nan nan nan nan nan nan
 nan nan nan nan nan nan nan nan nan nan nan nan nan nan nan nan nan nan
 nan nan nan nan nan nan nan nan nan nan nan nan nan nan nan nan nan nan
 nan nan nan nan nan nan nan nan nan nan nan nan nan nan nan nan nan nan
 nan nan nan nan nan nan nan nan nan nan nan nan nan nan nan nan nan nan
 nan nan nan nan nan nan nan nan nan nan nan nan nan nan nan nan nan nan
 nan nan nan nan nan nan nan nan nan nan nan nan nan nan nan nan nan nan
 nan nan nan nan nan nan nan nan nan nan nan nan nan nan nan nan nan nan
 nan nan nan nan nan nan nan nan nan nan nan nan nan nan nan nan nan nan
 nan nan nan nan nan nan nan nan nan nan nan nan nan nan nan nan nan nan
 nan nan nan nan nan nan nan nan nan nan nan nan nan nan nan nan nan nan
 nan nan nan nan nan nan nan nan nan nan nan nan nan nan nan nan nan nan
 nan nan nan nan nan nan nan nan]","[nan nan nan nan nan nan nan nan nan nan nan nan nan nan nan nan nan nan
 nan nan nan nan nan nan nan nan nan nan nan nan nan nan nan nan nan nan
 nan nan nan nan nan nan nan nan nan nan nan nan nan nan nan nan nan nan
 nan nan nan nan nan nan nan nan nan nan nan nan nan nan nan nan nan nan
 nan nan nan nan nan nan nan nan nan nan nan nan nan nan nan nan nan nan
 nan nan nan nan nan nan nan nan nan nan nan nan nan nan nan nan nan nan
 nan nan nan nan nan nan nan nan nan nan nan nan nan nan nan nan nan nan
 nan nan nan nan nan nan nan nan nan nan nan nan nan nan]",,,5.733005,
031,2,2,csm,34a.png,1,0,320,NaN,320,1,1,497,neu_feedback_onset,4,"[nan nan nan nan nan nan nan nan nan nan nan nan nan nan nan nan nan nan
 nan nan nan nan nan nan nan nan nan nan nan nan nan nan nan nan nan nan
 nan nan nan nan nan nan nan nan nan nan nan nan nan nan nan nan nan nan
 nan nan nan nan nan nan nan nan nan nan nan nan nan nan nan nan nan nan
 nan nan nan nan nan nan nan nan nan nan nan nan nan nan nan nan nan nan
 nan nan nan nan nan nan nan nan nan nan nan nan nan nan nan nan nan nan
 nan nan nan nan nan nan nan nan nan nan nan nan nan nan nan nan nan nan
 nan nan nan nan nan nan nan nan nan nan nan nan nan nan nan nan nan nan
 nan nan nan nan nan nan nan nan nan nan nan nan nan nan nan nan nan nan
 nan nan nan nan nan nan nan nan nan nan nan nan nan nan nan nan nan nan
 nan nan nan nan nan nan nan nan nan nan nan nan nan nan nan nan nan nan
 nan nan nan nan nan nan nan nan nan nan nan nan nan nan nan nan nan nan
 nan nan nan nan nan nan nan nan nan nan nan nan nan nan nan nan nan nan
 nan nan nan nan nan nan nan nan nan nan nan nan nan nan nan nan nan nan
 nan nan nan nan nan nan nan nan]","[nan nan nan nan nan nan nan nan nan nan nan nan nan nan nan nan nan nan
 nan nan nan nan nan nan nan nan nan nan nan nan nan nan nan nan nan nan
 nan nan nan nan nan nan nan nan nan nan nan nan nan nan nan nan nan nan
 nan nan nan nan nan nan nan nan nan nan nan nan nan nan nan nan nan nan
 nan nan nan nan nan nan nan nan nan nan nan nan nan nan nan nan nan nan
 nan nan nan nan nan nan nan nan nan nan nan nan nan nan nan nan nan nan
 nan nan nan nan nan nan nan nan nan nan nan nan nan nan nan nan nan nan
 nan nan nan nan nan nan nan nan nan nan nan nan nan nan]",,,5.544070000000001,
031,2,2,csm,2a.png,1,1,260,37,258,1,0,NaN,neu_feedback_onset,5,"[nan nan nan nan nan nan nan nan nan nan nan nan nan nan nan nan nan nan
 nan nan nan nan nan nan nan nan nan nan nan nan nan nan nan nan nan nan
 nan nan nan nan nan nan nan nan nan nan nan nan nan nan nan nan nan nan
 nan nan nan nan nan nan nan nan nan nan nan nan nan nan nan nan nan nan
 nan nan nan nan nan nan nan nan nan nan nan nan nan nan nan nan nan nan
 nan nan nan nan nan nan nan nan nan nan nan nan nan nan nan nan nan nan
 nan nan nan nan nan nan nan nan nan nan nan nan nan nan nan nan nan nan
 nan nan nan nan nan nan nan nan nan nan nan nan nan nan nan nan nan nan
 nan nan nan nan nan nan nan nan nan nan nan nan nan nan nan nan nan nan
 nan nan nan nan nan nan nan nan nan nan nan nan nan nan nan nan nan nan
 nan nan nan nan nan nan nan nan nan nan nan nan nan nan nan nan nan nan
 nan nan nan nan nan nan nan nan nan nan nan nan nan nan nan nan nan nan
 nan nan nan nan nan nan nan nan nan nan nan nan nan nan nan nan nan nan
 nan nan nan nan nan nan nan nan nan nan nan nan nan nan nan nan nan nan
 nan nan nan nan nan nan nan nan]","[nan nan nan nan nan nan nan nan nan nan nan nan nan nan nan nan nan nan
 nan nan nan nan nan nan nan nan nan nan nan nan nan nan nan nan nan nan
 nan nan nan nan nan nan nan nan nan nan nan nan nan nan nan nan nan nan
 nan nan nan nan nan nan nan nan nan nan nan nan nan nan nan nan nan nan
 nan nan nan nan nan nan nan nan nan nan nan nan nan nan nan nan nan nan
 nan nan nan nan nan nan nan nan nan nan nan nan nan nan nan nan nan nan
 nan nan nan nan nan nan nan nan nan nan nan nan nan nan nan nan nan nan
 nan nan nan nan nan nan nan nan nan nan nan nan nan nan]",,,5.5408349999999995,
031,2,2,csp,4b.png,1,1,104,148,100,1,1,561,neg_feedback_onset,6,"[  1.08426162   1.18552921   1.26759088   1.32695464   1.35489053
   1.34790655   1.29901875   1.20124315   1.05283375   0.84680658
   0.58490764   0.26888291  -0.09428362  -0.49935398  -0.93410623
  -1.38457241  -1.84202256  -2.28550477  -2.70279708  -3.07818556
  -3.39595628  -3.64563327  -3.81674058  -3.90404023  -3.90578622
  -3.82372455  -3.6630932   -3.43087614  -3.13754932  -2.79533471
  -2.41645424  -2.01312987  -1.59932954  -1.18378322  -0.78045885
  -0.39808639  -0.04190383   0.28459685   0.57617767   0.83633062
   1.06680169   1.27108286   1.45266613   1.61853546   1.77043685
   1.91186228   2.04804973   2.18074519   2.30994867   2.43915215
   2.56486364   2.69232112   2.81803262   2.94374411   3.0694556
   3.19691308   3.32262458   3.44833607   3.57404756   3.69975905
   3.82372455   3.94769005   4.07165555   4.19387506   4.31434857
   4.4313301    4.54656563   4.65656319   4.76132276   4.86084436
   4.95338199   5.04068164   5.11925132   5.19258302   5.25893075
   5.32004051   5.37416629   5.42654608   5.47368789   5.5190837
   5.56273353   5.60638335   5.64654119   5.68844502   5.72860286
   5.76876069   5.80717254   5.84733038   5.88748821   5.92764605
   5.96780389   6.00621573   6.04637357   6.08653141   6.12668925
   6.16510109   6.20525893   6.24541677   6.28382861   6.32398645
   6.3623983    6.39906415   6.43573      6.46890387   6.50033174
   6.52652163   6.54572756   6.55620351   6.55620351   6.54048958
   6.50556972   6.44795195   6.36589028   6.25240074   6.10573733
   5.92415407   5.70415896   5.44400601   5.14718721   4.81370255
   4.44355205   4.04022768   3.60722143   3.14627929   2.66089325
   2.15630129   1.6325034    1.09473758   0.5447498   -0.01396794
  -0.57966966  -1.15060935  -1.72678702  -2.30471069  -2.88263435
  -3.46405001  -4.04371966  -4.62513531  -5.20480497  -5.78447463
  -6.3606523   -6.93333799  -7.4990397   -8.05426546  -8.59552327
  -9.11233719  -9.59772323 -10.04120543 -10.42881587 -10.75007857
 -10.99277159 -11.14467298 -11.19879876 -11.15165695 -11.00150155
 -10.75706254 -10.42532388 -10.02025352  -9.5540734   -9.04249747
  -8.49949366  -7.93728393  -7.36983623  -6.80413451  -6.24890875
  -5.71114293  -5.19607501  -4.70894298  -4.25149282  -3.82547055
  -3.43436813  -3.07469358  -2.7464469   -2.44439012  -2.16677725
  -1.91011628  -1.67789922  -1.46838007  -1.2867968   -1.1383874
  -1.03188183  -0.96902609  -0.95331215  -0.98648601  -1.0633097
  -1.17679925  -1.31647868  -1.47361805  -1.63599539  -1.79662674
  -1.94852813  -2.08646157  -2.21391906  -2.3274086   -2.43391417
  -2.53518176  -2.63644935  -2.73946293  -2.8477145   -2.96295003
  -3.08167755  -3.20040507  -3.31389461  -3.4151622   -3.49547788
  -3.54960366  -3.56880958  -3.55134965  -3.49547788  -3.40119426
  -3.27199078  -3.11135943  -2.92628418  -2.71851102  -2.49676991
  -2.26455285  -2.02360582  -1.77742082  -1.52774383  -1.27806684
  -1.02489786  -0.77172888  -0.51855991  -0.26539093  -0.01222195
   0.24094703   0.494116     0.74728498   1.00045396   1.25536893
   1.50853791   1.76170688   2.01487586   2.26804484   2.52121381
   2.77612878   3.02929776   3.28246674   3.53563572   3.78880469
   4.04197367   4.29514265   4.54656563   4.79798862   5.0494116
   5.2973426    5.54178161   5.78447463   6.01843769   6.24541677
   6.4601739    6.66096309   6.84080036   6.99444774   7.11492126
   7.19349094   7.22491881   7.20047491   7.11492126   6.96476586]","[nan nan nan nan nan nan nan nan nan nan nan nan nan nan nan nan nan nan
 nan nan nan nan nan nan nan nan nan nan nan nan nan nan nan nan nan nan
 nan nan nan nan nan nan nan nan nan nan nan nan nan nan nan nan nan nan
 nan nan nan nan nan nan nan nan nan nan nan nan nan nan nan nan nan nan
 nan nan nan nan nan nan nan nan nan nan nan nan nan nan nan nan nan nan
 nan nan nan nan nan nan nan nan nan nan nan nan nan nan nan nan nan nan
 nan nan nan nan nan nan nan nan nan nan nan nan nan nan nan nan nan nan
 nan nan nan nan nan nan nan nan nan nan nan nan nan nan]",5.6260257708558825,,5.7274,0.6114499999999996
031,2,2,csm,4a.png,1,1,256,86,254,1,1,669,neu_feedback_onset,7,"[nan nan nan nan nan nan nan nan nan nan nan nan nan nan nan nan nan nan
 nan nan nan nan nan nan nan nan nan nan nan nan nan nan nan nan nan nan
 nan nan nan nan nan nan nan nan nan nan nan nan nan nan nan nan nan nan
 nan nan nan nan nan nan nan nan nan nan nan nan nan nan nan nan nan nan
 nan nan nan nan nan nan nan nan nan nan nan nan nan nan nan nan nan nan
 nan nan nan nan nan nan nan nan nan nan nan nan nan nan nan nan nan nan
 nan nan nan nan nan nan nan nan nan nan nan nan nan nan nan nan nan nan
 nan nan nan nan nan nan nan nan nan nan nan nan nan nan nan nan nan nan
 nan nan nan nan nan nan nan nan nan nan nan nan nan nan nan nan nan nan
 nan nan nan nan nan nan nan nan nan nan nan nan nan nan nan nan nan nan
 nan nan nan nan nan nan nan nan nan nan nan nan nan nan nan nan nan nan
 nan nan nan nan nan nan nan nan nan nan nan nan nan nan nan nan nan nan
 nan nan nan nan nan nan nan nan nan nan nan nan nan nan nan nan nan nan
 nan nan nan nan nan nan nan nan nan nan nan nan nan nan nan nan nan nan
 nan nan nan nan nan nan nan nan]","[nan nan nan nan nan nan nan nan nan nan nan nan nan nan nan nan nan nan
 nan nan nan nan nan nan nan nan nan nan nan nan nan nan nan nan nan nan
 nan nan nan nan nan nan nan nan nan nan nan nan nan nan nan nan nan nan
 nan nan nan nan nan nan nan nan nan nan nan nan nan nan nan nan nan nan
 nan nan nan nan nan nan nan nan nan nan nan nan nan nan nan nan nan nan
 nan nan nan nan nan nan nan nan nan nan nan nan nan nan nan nan nan nan
 nan nan nan nan nan nan nan nan nan nan nan nan nan nan nan nan nan nan
 nan nan nan nan nan nan nan nan nan nan nan nan nan nan]",,,5.74123,
031,2,2,csm,28a.png,1,1,28,NaN,36,1,1,581,neu_feedback_onset,8,"[  1.52193569   1.55442098   1.512912     1.41004192   1.25483444
   1.06172746   0.8415494    0.60693344   0.36509853   0.12326362
  -0.11496182  -0.34235883  -0.55892741  -0.7664723   -0.96318876
  -1.15088152  -1.33135534  -1.50641494  -1.67606033  -1.84209624
  -2.00632741  -2.16875385  -2.33118028  -2.49180198  -2.65242367
  -2.81304537  -2.97366707  -3.13428876  -3.29310572  -3.45372742
  -3.61434911  -3.77497081  -3.9355925   -4.09440946  -4.25322642
  -4.41204338  -4.5690556   -4.72245834  -4.87044687  -5.01121645
  -5.13754812  -5.24402767  -5.32343615  -5.36314039  -5.35231196
  -5.2783177   -5.12671969  -4.88668951  -4.55281296  -4.11787106
  -3.5854733   -2.96283864  -2.26620971  -1.51182916  -0.72135384
   0.08355938   0.87764417   1.64104841   2.35752946   3.01445415
   3.60099405   4.10993021   4.53945789   4.8895771    5.16028782
   5.3533948    5.47792174   5.53567336   5.53386862   5.48153121
   5.38407535   5.25052473   5.08629356   4.90040552   4.69647011
   4.48170627   4.25791874   4.02691226   3.79229629   3.5558756
   3.31765016   3.07942472   2.84119928   2.60116911   2.36113893
   2.12110876   1.88288332   1.64285315   1.40282297   1.1627928
   0.92456736   0.68453718   0.44450701   0.20447683  -0.03555334
  -0.27377878  -0.51380895  -0.75383913  -0.9938693   -1.23389948
  -1.47212492  -1.71215509  -1.95218527  -2.1904107   -2.42863614
  -2.66505684  -2.8996728   -3.13248402  -3.35988103  -3.58186383
  -3.79662767  -4.00056308  -4.19186532  -4.3705344   -4.53476557
  -4.6827541   -4.81810946  -4.94083166  -5.05272543  -5.16100971
  -5.26748927  -5.37577356  -5.48766732  -5.60678004  -5.73130697
  -5.8648576   -6.00562717  -6.15000623  -6.29979949  -6.4513975
  -6.60480024  -6.76000772  -6.91521521  -7.07042269  -7.22563017
  -7.38083765  -7.53604513  -7.69125261  -7.8464601   -8.00166758
  -8.15687506  -8.31208254  -8.46729002  -8.6224975   -8.77770499
  -8.93291247  -9.08811995  -9.24332743  -9.39853491  -9.55193766
  -9.7053404   -9.85874314 -10.00853641 -10.1547202  -10.29548978
 -10.4290404  -10.54634838 -10.64560898 -10.71960325 -10.75930749
 -10.75750275 -10.70516534 -10.59688105 -10.42543093 -10.19081497
  -9.88942369  -9.5302808   -9.11699576  -8.66400648  -8.18033666
  -7.68403366  -7.18953541  -6.71669401  -6.27814264  -5.88831919
  -5.55985685  -5.29816982  -5.11047705  -4.99136433  -4.94083166
  -4.94805061  -5.00580223  -5.10506283  -5.23319924  -5.38479725
  -5.5526379   -5.72950224  -5.91178079  -6.09766882  -6.28175211
  -6.46042119  -6.63367605  -6.79790723  -6.94770049  -7.07944638
  -7.18592593  -7.26533441  -7.3122576   -7.31947655  -7.28879601
  -7.21660648  -7.10290797  -6.95130997  -6.7636172   -6.54704862
  -6.30340897  -6.0399172   -5.76018278  -5.4678152   -5.16822867
  -4.86503266  -4.56003191  -4.2568359   -3.96085884  -3.670296
  -3.39236632  -3.12346033  -2.86899225  -2.62715734  -2.39795559
  -2.17777754  -1.97023265  -1.76990671  -1.57499499  -1.38549749
  -1.19960945  -1.01552616  -0.83324761  -0.65277379  -0.47229998
  -0.29182616  -0.11315708   0.06731673   0.24598581   0.42645963
   0.6051287    0.78560252   0.9642716    1.14474541   1.32341449
   1.50208357   1.68255739   1.86122646   2.04170028   2.2221741
   2.40084317   2.58131699   2.76359554   2.94767884   3.13356687
   3.32667385   3.52519505   3.73815415   3.9673559    4.22001924
   4.50155839   4.81919231   5.17472572   5.57176812   6.00671002]","[nan nan nan nan nan nan nan nan nan nan nan nan nan nan nan nan nan nan
 nan nan nan nan nan nan nan nan nan nan nan nan nan nan nan nan nan nan
 nan nan nan nan nan nan nan nan nan nan nan nan nan nan nan nan nan nan
 nan nan nan nan nan nan nan nan nan nan nan nan nan nan nan nan nan nan
 nan nan nan nan nan nan nan nan nan nan nan nan nan nan nan nan nan nan
 nan nan nan nan nan nan nan nan nan nan nan nan nan nan nan nan nan nan
 nan nan nan nan nan nan nan nan nan nan nan nan nan nan nan nan nan nan
 nan nan nan nan nan nan nan nan nan nan nan nan nan nan]",3.3005481161670467,,5.54097,
031,2,2,csp,29b.png,1,1,16,205,NaN,0,1,692,neg_feedback_onset,9,"[nan nan nan nan nan nan nan nan nan nan nan nan nan nan nan nan nan nan
 nan nan nan nan nan nan nan nan nan nan nan nan nan nan nan nan nan nan
 nan nan nan nan nan nan nan nan nan nan nan nan nan nan nan nan nan nan
 nan nan nan nan nan nan nan nan nan nan nan nan nan nan nan nan nan nan
 nan nan nan nan nan nan nan nan nan nan nan nan nan nan nan nan nan nan
 nan nan nan nan nan nan nan nan nan nan nan nan nan nan nan nan nan nan
 nan nan nan nan nan nan nan nan nan nan nan nan nan nan nan nan nan nan
 nan nan nan nan nan nan nan nan nan nan nan nan nan nan nan nan nan nan
 nan nan nan nan nan nan nan nan nan nan nan nan nan nan nan nan nan nan
 nan nan nan nan nan nan nan nan nan nan nan nan nan nan nan nan nan nan
 nan nan nan nan nan nan nan nan nan nan nan nan nan nan nan nan nan nan
 nan nan nan nan nan nan nan nan nan nan nan nan nan nan nan nan nan nan
 nan nan nan nan nan nan nan nan nan nan nan nan nan nan nan nan nan nan
 nan nan nan nan nan nan nan nan nan nan nan nan nan nan nan nan nan nan
 nan nan nan nan nan nan nan nan]","[nan nan nan nan nan nan nan nan nan nan nan nan nan nan nan nan nan nan
 nan nan nan nan nan nan nan nan nan nan nan nan nan nan nan nan nan nan
 nan nan nan nan nan nan nan nan nan nan nan nan nan nan nan nan nan nan
 nan nan nan nan nan nan nan nan nan nan nan nan nan nan nan nan nan nan
 nan nan nan nan nan nan nan nan nan nan nan nan nan nan nan nan nan nan
 nan nan nan nan nan nan nan nan nan nan nan nan nan nan nan nan nan nan
 nan nan nan nan nan nan nan nan nan nan nan nan nan nan nan nan nan nan
 nan nan nan nan nan nan nan nan nan nan nan nan nan nan]",,,5.94489,
031,2,2,csp,14b.png,1,1,196,20,198,1,1,379,pos_feedback_onset,10,"[-3.19453475e+00 -2.63276211e+00 -2.08740489e+00 -1.56575886e+00
 -1.07147189e+00 -6.10015786e-01 -1.90510237e-01  1.81572945e-01
  4.98938013e-01  7.57937091e-01  9.53098368e-01  1.08806972e+00
  1.16467508e+00  1.18473839e+00  1.15920327e+00  1.09536547e+00
  1.00234467e+00  8.87436630e-01  7.57937091e-01  6.21141803e-01
  4.78874704e-01  3.34783667e-01  1.88868694e-01  4.47776575e-02
 -9.93133789e-02 -2.45228352e-01 -3.91143326e-01 -5.40706174e-01
 -6.95740833e-01 -8.52599430e-01 -1.01675377e+00 -1.18273206e+00
 -1.35235821e+00 -1.52016043e+00 -1.68431478e+00 -1.83570156e+00
 -1.96702504e+00 -2.07281340e+00 -2.14394695e+00 -2.16948207e+00
 -2.14941876e+00 -2.07463733e+00 -1.94878567e+00 -1.77186376e+00
 -1.55481524e+00 -1.30311191e+00 -1.03316921e+00 -7.57754697e-01
 -4.93283807e-01 -2.56171975e-01 -5.73628240e-02  9.22000239e-02
  1.85220820e-01  2.21699563e-01  1.97988380e-01  1.23206956e-01
 -8.20771726e-04 -1.63151180e-01 -3.56488520e-01 -5.75360980e-01
 -8.10648875e-01 -1.05688039e+00 -1.31040766e+00 -1.56758280e+00
 -1.82475794e+00 -2.08193308e+00 -2.33546035e+00 -2.58351580e+00
 -2.82062764e+00 -3.04314797e+00 -3.24013318e+00 -3.40428753e+00
 -3.52101951e+00 -3.57756156e+00 -3.55749825e+00 -3.44988596e+00
 -3.24013318e+00 -2.92459205e+00 -2.50143863e+00 -1.98161654e+00
 -1.37971727e+00 -7.21275953e-01 -3.72995151e-02  6.43029049e-01
  1.28505493e+00  1.85777120e+00  2.34293849e+00  2.72231742e+00
  2.99043619e+00  3.14729478e+00  3.20018896e+00  3.16006234e+00
  3.04333036e+00  2.86458452e+00  2.63659237e+00  2.37394542e+00
  2.08393941e+00  1.77934191e+00  1.46015290e+00  1.13549208e+00
  8.07183394e-01  4.75226829e-01  1.43270265e-01 -1.90510237e-01
 -5.24290739e-01 -8.58071241e-01 -1.19185174e+00 -1.52563225e+00
 -1.85758881e+00 -2.18589750e+00 -2.51055832e+00 -2.82792338e+00
 -3.13434483e+00 -3.42070296e+00 -3.68152598e+00 -3.90587025e+00
 -4.07732034e+00 -4.18493264e+00 -4.21046776e+00 -4.14480602e+00
 -3.97517986e+00 -3.69794141e+00 -3.31673854e+00 -2.84069094e+00
 -2.29350979e+00 -1.69525840e+00 -1.08241551e+00 -4.82340184e-01
  7.03127779e-02  5.51832190e-01  9.40330807e-01  1.22304107e+00
  1.39631510e+00  1.46197684e+00  1.42732203e+00  1.30511824e+00
  1.10995696e+00  8.54605761e-01  5.51832190e-01  2.16227751e-01
 -1.44911808e-01 -5.20642865e-01 -9.09141482e-01 -1.30493585e+00
 -1.70437809e+00 -2.10564426e+00 -2.50691044e+00 -2.90817662e+00
 -3.30944280e+00 -3.70523716e+00 -4.09555972e+00 -4.47858652e+00
 -4.85066970e+00 -5.20816139e+00 -5.54558977e+00 -5.85930696e+00
 -6.14566509e+00 -6.40101630e+00 -6.62353663e+00 -6.81505004e+00
 -6.97555651e+00 -7.10870392e+00 -7.22178802e+00 -7.31480882e+00
 -7.39506205e+00 -7.46619560e+00 -7.52638553e+00 -7.57927971e+00
 -7.62305420e+00 -7.65770901e+00 -7.68142019e+00 -7.69418775e+00
 -7.69783562e+00 -7.69418775e+00 -7.68142019e+00 -7.66682869e+00
 -7.64858932e+00 -7.62852601e+00 -7.61028664e+00 -7.59387121e+00
 -7.57745577e+00 -7.56286427e+00 -7.55009671e+00 -7.53732915e+00
 -7.52638553e+00 -7.51544191e+00 -7.50449829e+00 -7.49355466e+00
 -7.48261104e+00 -7.47166742e+00 -7.46072379e+00 -7.44978017e+00
 -7.43883655e+00 -7.42971686e+00 -7.41877324e+00 -7.40782962e+00
 -7.39688599e+00 -7.38594237e+00 -7.37682268e+00 -7.36587906e+00
 -7.35493544e+00 -7.34399181e+00 -7.33304819e+00 -7.32210457e+00
 -7.31298488e+00 -7.30204126e+00 -7.29109764e+00 -7.28015401e+00
 -7.26921039e+00 -7.26009070e+00 -7.24914708e+00 -7.23820346e+00
 -7.22725984e+00 -7.21631621e+00 -7.20537259e+00 -7.19625290e+00
 -7.18530928e+00 -7.17436566e+00 -7.16342203e+00 -7.15247841e+00
 -7.14335873e+00 -7.13241510e+00 -7.12147148e+00 -7.11052786e+00
 -7.09958423e+00 -7.08864061e+00 -7.07952092e+00 -7.06857730e+00
 -7.05763368e+00 -7.04669006e+00 -7.03574643e+00 -7.02662675e+00
 -7.01568312e+00 -7.00473950e+00 -6.99379588e+00 -6.98285225e+00
 -6.97190863e+00 -6.96278895e+00 -6.95184532e+00 -6.94090170e+00
 -6.92995808e+00 -6.91901445e+00 -6.90989477e+00 -6.89895114e+00
 -6.88800752e+00 -6.87706390e+00 -6.86612028e+00 -6.85517665e+00
 -6.84605697e+00 -6.83511334e+00 -6.82416972e+00 -6.81322610e+00
 -6.80228247e+00 -6.79316279e+00 -6.78221917e+00 -6.77127554e+00
 -6.76033192e+00 -6.74938830e+00 -6.74026861e+00 -6.72932499e+00]","[nan nan nan nan nan nan nan nan nan nan nan nan nan nan nan nan nan nan
 nan nan nan nan nan nan nan nan nan nan nan nan nan nan nan nan nan nan
 nan nan nan nan nan nan nan nan nan nan nan nan nan nan nan nan nan nan
 nan nan nan nan nan nan nan nan nan nan nan nan nan nan nan nan nan nan
 nan nan nan nan nan nan nan nan nan nan nan nan nan nan nan nan nan nan
 nan nan nan nan nan nan nan nan nan nan nan nan nan nan nan nan nan nan
 nan nan nan nan nan nan nan nan nan nan nan nan nan nan nan nan nan nan
 nan nan nan nan nan nan nan nan nan nan nan nan nan nan]",-0.04295372033023712,,5.482645,
031,2,2,csp,38b.png,1,1,276,13,278,1,1,682,neg_feedback_onset,11,"[nan nan nan nan nan nan nan nan nan nan nan nan nan nan nan nan nan nan
 nan nan nan nan nan nan nan nan nan nan nan nan nan nan nan nan nan nan
 nan nan nan nan nan nan nan nan nan nan nan nan nan nan nan nan nan nan
 nan nan nan nan nan nan nan nan nan nan nan nan nan nan nan nan nan nan
 nan nan nan nan nan nan nan nan nan nan nan nan nan nan nan nan nan nan
 nan nan nan nan nan nan nan nan nan nan nan nan nan nan nan nan nan nan
 nan nan nan nan nan nan nan nan nan nan nan nan nan nan nan nan nan nan
 nan nan nan nan nan nan nan nan nan nan nan nan nan nan nan nan nan nan
 nan nan nan nan nan nan nan nan nan nan nan nan nan nan nan nan nan nan
 nan nan nan nan nan nan nan nan nan nan nan nan nan nan nan nan nan nan
 nan nan nan nan nan nan nan nan nan nan nan nan nan nan nan nan nan nan
 nan nan nan nan nan nan nan nan nan nan nan nan nan nan nan nan nan nan
 nan nan nan nan nan nan nan nan nan nan nan nan nan nan nan nan nan nan
 nan nan nan nan nan nan nan nan nan nan nan nan nan nan nan nan nan nan
 nan nan nan nan nan nan nan nan]","[nan nan nan nan nan nan nan nan nan nan nan nan nan nan nan nan nan nan
 nan nan nan nan nan nan nan nan nan nan nan nan nan nan nan nan nan nan
 nan nan nan nan nan nan nan nan nan nan nan nan nan nan nan nan nan nan
 nan nan nan nan nan nan nan nan nan nan nan nan nan nan nan nan nan nan
 nan nan nan nan nan nan nan nan nan nan nan nan nan nan nan nan nan nan
 nan nan nan nan nan nan nan nan nan nan nan nan nan nan nan nan nan nan
 nan nan nan nan nan nan nan nan nan nan nan nan nan nan nan nan nan nan
 nan nan nan nan nan nan nan nan nan nan nan nan nan nan]",,,6.081605,
031,2,2,csm,44a.png,1,0,144,73,142,1,1,580,neu_feedback_onset,12,"[nan nan nan nan nan nan nan nan nan nan nan nan nan nan nan nan nan nan
 nan nan nan nan nan nan nan nan nan nan nan nan nan nan nan nan nan nan
 nan nan nan nan nan nan nan nan nan nan nan nan nan nan nan nan nan nan
 nan nan nan nan nan nan nan nan nan nan nan nan nan nan nan nan nan nan
 nan nan nan nan nan nan nan nan nan nan nan nan nan nan nan nan nan nan
 nan nan nan nan nan nan nan nan nan nan nan nan nan nan nan nan nan nan
 nan nan nan nan nan nan nan nan nan nan nan nan nan nan nan nan nan nan
 nan nan nan nan nan nan nan nan nan nan nan nan nan nan nan nan nan nan
 nan nan nan nan nan nan nan nan nan nan nan nan nan nan nan nan nan nan
 nan nan nan nan nan nan nan nan nan nan nan nan nan nan nan nan nan nan
 nan nan nan nan nan nan nan nan nan nan nan nan nan nan nan nan nan nan
 nan nan nan nan nan nan nan nan nan nan nan nan nan nan nan nan nan nan
 nan nan nan nan nan nan nan nan nan nan nan nan nan nan nan nan nan nan
 nan nan nan nan nan nan nan nan nan nan nan nan nan nan nan nan nan nan
 nan nan nan nan nan nan nan nan]","[ -0.91283651  -0.81632964  -0.71982277  -0.62500899  -0.52850212
  -0.43199525  -0.33548837  -0.2406746   -0.14416773  -0.04766085
   0.04884602   0.14365979   0.24016667   0.33667354   0.43148731
   0.52799419   0.62450106   0.72100794   0.81582171   0.91232858
   1.00714236   1.10364923   1.198463     1.29158367   1.38301123
   1.47105259   1.55570775   1.63189738   1.69962151   1.7538008
   1.78935597   1.80120769   1.78427666   1.73179046   1.63528359
   1.49136983   1.29327677   1.03931131   0.72778035   0.35699078
  -0.06967119  -0.54543315  -1.068602    -1.63071221  -2.22499139
  -2.84636021  -3.48635317  -4.13989095  -4.80358735  -5.47405616
  -6.14791118  -6.82176619  -7.49392811  -8.16101071  -8.82132091
  -9.46977938 -10.10130682 -10.71251703 -11.29663758 -11.85028228
 -12.36837182 -12.84582688 -13.28095437 -13.67375428 -14.02422661
 -14.33406447 -14.60834717 -14.85215401 -15.0688712  -15.26527115
 -15.44643318 -15.61405039 -15.77320207 -15.92727445 -16.07796062
 -16.22526059 -16.37086745 -16.51647432 -16.66038808 -16.80430184
 -16.9499087  -17.09382246 -17.23773622 -17.38164998 -17.52556374
 -17.6711706  -17.81508436 -17.95899812 -18.10291188 -18.24682564
 -18.3907394  -18.53634627 -18.68026003 -18.82417379 -18.96808755
 -19.11200131 -19.25591507 -19.39813572 -19.54035638 -19.67919083
 -19.81633218 -19.94839422 -20.07199074 -20.18373554 -20.28193552
 -20.35812516 -20.40891825 -20.42584928 -20.40553204 -20.34458033
 -20.23622174 -20.08384246 -19.88744251 -19.65379429 -19.38797711
 -19.10014959 -18.80216345 -18.50417731 -18.21465669 -17.9437602
 -17.69826025 -17.48323616 -17.29868793 -17.14630865 -17.02271213
 -16.92281905 -16.84662941 -16.7856777  -16.73657771 -16.69425014
 -16.65869497 -16.62483291 -16.59266395 -16.560495   -16.52663293
 -16.49277087 -16.45890881 -16.42335365 -16.38610538 -16.35055022]",,0.0015661203305390003,5.683375,
031,2,2,csp,11b.png,1,1,8,310,2,1,1,446,pos_feedback_onset,13,"[-3.03616089e-01 -1.48895660e-01 -4.51419605e-02  1.67462112e-02
  4.76902970e-02  5.86117391e-02  5.67914987e-02  4.40498163e-02
  2.94878936e-02  1.12854901e-02 -6.91691331e-03 -2.32990764e-02
 -3.42205185e-02 -3.96812395e-02 -3.60407588e-02 -1.96585957e-02
  9.46524979e-03  5.49712584e-02  1.20499911e-01  2.07871447e-01
  3.18906108e-01  4.53603894e-01  6.10144563e-01  7.88528117e-01
  9.86934315e-01  1.20354292e+00  1.43289320e+00  1.67316492e+00
  1.92253785e+00  2.17919174e+00  2.43948611e+00  2.70342096e+00
  2.96735581e+00  3.23129066e+00  3.49522551e+00  3.75551988e+00
  4.01035353e+00  4.25790621e+00  4.49453746e+00  4.71296630e+00
  4.91137250e+00  5.08429533e+00  5.22445384e+00  5.33002778e+00
  5.39919691e+00  5.43196124e+00  5.43196124e+00  5.40647787e+00
  5.36279210e+00  5.31182537e+00  5.26085864e+00  5.21899312e+00
  5.18986927e+00  5.17530735e+00  5.17348711e+00  5.17530735e+00
  5.17712759e+00  5.16620615e+00  5.13890254e+00  5.08793581e+00
  5.01330596e+00  4.91865346e+00  4.81307952e+00  4.70750558e+00
  4.61649356e+00  4.55278515e+00  4.52912203e+00  4.55278515e+00
  4.63105548e+00  4.75847231e+00  4.93139514e+00  5.13708230e+00
  5.36279210e+00  5.59032215e+00  5.80875099e+00  5.99987622e+00
  6.15459665e+00  6.26199083e+00  6.31659804e+00  6.31659804e+00
  6.25653011e+00  6.13639425e+00  5.95437022e+00  5.71045801e+00
  5.40647787e+00  5.04242980e+00  4.61831380e+00  4.14141083e+00
  3.61354113e+00  3.04198566e+00  2.43402539e+00  1.79694127e+00
  1.13619402e+00  4.62705096e-01 -2.18064793e-01 -8.98834682e-01
 -1.57414385e+00 -2.23489110e+00 -2.87197522e+00 -3.47629501e+00
 -4.03692904e+00 -4.54477609e+00 -4.98527426e+00 -5.35114256e+00
 -5.63510006e+00 -5.83350626e+00 -5.94454092e+00 -5.97548500e+00
 -5.92997899e+00 -5.81894433e+00 -5.65694294e+00 -5.45125578e+00
 -5.21462454e+00 -4.95797065e+00 -4.68675484e+00 -4.40825807e+00
 -4.12612081e+00 -3.84216332e+00 -3.55820583e+00 -3.27424833e+00
 -2.99029084e+00 -2.70633334e+00 -2.42419609e+00 -2.14205884e+00
 -1.85992158e+00 -1.57960457e+00 -1.29928756e+00 -1.02261103e+00
 -7.49574974e-01 -4.81999643e-01 -2.21705274e-01  2.40271725e-02
  2.51557216e-01  4.55424134e-01  6.28346967e-01  7.61224512e-01
  8.48596049e-01  8.81360375e-01  8.54056770e-01  7.63044752e-01
  6.06504083e-01  3.88075241e-01  1.11398709e-01 -2.19885034e-01
 -5.96674785e-01 -1.00804910e+00 -1.44854727e+00 -1.90360735e+00
 -2.36776864e+00 -2.82646921e+00 -3.27060785e+00 -3.69108337e+00
 -4.07333384e+00 -4.40825807e+00 -4.68311436e+00 -4.89062176e+00
 -5.02167906e+00 -5.07082555e+00 -5.03806123e+00 -4.92338608e+00
 -4.73226085e+00 -4.47196648e+00 -4.14978394e+00 -3.77845491e+00
 -3.36708059e+00 -2.92476219e+00 -2.45878066e+00 -1.97641697e+00
 -1.48495207e+00 -9.84385978e-01 -4.81999643e-01  2.03866919e-02
  5.22773027e-01  1.01969864e+00  1.51116353e+00  1.99352723e+00
  2.46496947e+00  2.92184980e+00  3.36234796e+00  3.78100324e+00
  4.17963588e+00  4.55642563e+00  4.90955226e+00  5.24083600e+00
  5.55027686e+00  5.83787483e+00  6.10727040e+00  6.35664333e+00
  6.58599361e+00  6.79532125e+00  6.98462625e+00  7.15026812e+00
  7.29406711e+00  7.41602321e+00  7.51795667e+00  7.59804725e+00
  7.66175566e+00  7.70908191e+00  7.74548671e+00  7.77097008e+00
  7.78917248e+00  7.80191416e+00  7.81101537e+00  7.81465585e+00
  7.81829633e+00  7.82011657e+00  7.82011657e+00  7.81829633e+00
  7.81829633e+00  7.81647609e+00  7.81465585e+00  7.81283561e+00
  7.81101537e+00  7.80919513e+00  7.80737489e+00  7.80555465e+00
  7.80373441e+00  7.80191416e+00  7.80009392e+00  7.79645344e+00
  7.79463320e+00  7.79281296e+00  7.79099272e+00  7.78917248e+00
  7.78735224e+00  7.78553200e+00  7.78371176e+00  7.78189152e+00
  7.78007128e+00  7.77825104e+00  7.77643080e+00  7.77279032e+00
  7.77097008e+00  7.76914984e+00  7.76732960e+00  7.76550936e+00
  7.76368912e+00  7.76186888e+00  7.76004864e+00  7.75822840e+00
  7.75640816e+00  7.75458792e+00  7.75276768e+00  7.74912719e+00
  7.74730695e+00  7.74548671e+00  7.74366647e+00  7.74184623e+00
  7.74002599e+00  7.73820575e+00  7.73638551e+00  7.73456527e+00
  7.73274503e+00  7.73092479e+00  7.72728431e+00  7.72546407e+00
  7.72364383e+00  7.72000335e+00  7.71636287e+00  7.71272239e+00]","[nan nan nan nan nan nan nan nan nan nan nan nan nan nan nan nan nan nan
 nan nan nan nan nan nan nan nan nan nan nan nan nan nan nan nan nan nan
 nan nan nan nan nan nan nan nan nan nan nan nan nan nan nan nan nan nan
 nan nan nan nan nan nan nan nan nan nan nan nan nan nan nan nan nan nan
 nan nan nan nan nan nan nan nan nan nan nan nan nan nan nan nan nan nan
 nan nan nan nan nan nan nan nan nan nan nan nan nan nan nan nan nan nan
 nan nan nan nan nan nan nan nan nan nan nan nan nan nan nan nan nan nan
 nan nan nan nan nan nan nan nan nan nan nan nan nan nan]",7.541938337538086,,5.49378,
031,2,2,csp,55b.png,1,1,148,249,142,1,1,408,pos_feedback_onset,14,"[nan nan nan nan nan nan nan nan nan nan nan nan nan nan nan nan nan nan
 nan nan nan nan nan nan nan nan nan nan nan nan nan nan nan nan nan nan
 nan nan nan nan nan nan nan nan nan nan nan nan nan nan nan nan nan nan
 nan nan nan nan nan nan nan nan nan nan nan nan nan nan nan nan nan nan
 nan nan nan nan nan nan nan nan nan nan nan nan nan nan nan nan nan nan
 nan nan nan nan nan nan nan nan nan nan nan nan nan nan nan nan nan nan
 nan nan nan nan nan nan nan nan nan nan nan nan nan nan nan nan nan nan
 nan nan nan nan nan nan nan nan nan nan nan nan nan nan nan nan nan nan
 nan nan nan nan nan nan nan nan nan nan nan nan nan nan nan nan nan nan
 nan nan nan nan nan nan nan nan nan nan nan nan nan nan nan nan nan nan
 nan nan nan nan nan nan nan nan nan nan nan nan nan nan nan nan nan nan
 nan nan nan nan nan nan nan nan nan nan nan nan nan nan nan nan nan nan
 nan nan nan nan nan nan nan nan nan nan nan nan nan nan nan nan nan nan
 nan nan nan nan nan nan nan nan nan nan nan nan nan nan nan nan nan nan
 nan nan nan nan nan nan nan nan]","[nan nan nan nan nan nan nan nan nan nan nan nan nan nan nan nan nan nan
 nan nan nan nan nan nan nan nan nan nan nan nan nan nan nan nan nan nan
 nan nan nan nan nan nan nan nan nan nan nan nan nan nan nan nan nan nan
 nan nan nan nan nan nan nan nan nan nan nan nan nan nan nan nan nan nan
 nan nan nan nan nan nan nan nan nan nan nan nan nan nan nan nan nan nan
 nan nan nan nan nan nan nan nan nan nan nan nan nan nan nan nan nan nan
 nan nan nan nan nan nan nan nan nan nan nan nan nan nan nan nan nan nan
 nan nan nan nan nan nan nan nan nan nan nan nan nan nan]",,,4.841365,
031,3,2,csp,54b.png,1,1,280,241,281,1,0,NaN,neg_feedback_onset,1,"[nan nan nan nan nan nan nan nan nan nan nan nan nan nan nan nan nan nan
 nan nan nan nan nan nan nan nan nan nan nan nan nan nan nan nan nan nan
 nan nan nan nan nan nan nan nan nan nan nan nan nan nan nan nan nan nan
 nan nan nan nan nan nan nan nan nan nan nan nan nan nan nan nan nan nan
 nan nan nan nan nan nan nan nan nan nan nan nan nan nan nan nan nan nan
 nan nan nan nan nan nan nan nan nan nan nan nan nan nan nan nan nan nan
 nan nan nan nan nan nan nan nan nan nan nan nan nan nan nan nan nan nan
 nan nan nan nan nan nan nan nan nan nan nan nan nan nan nan nan nan nan
 nan nan nan nan nan nan nan nan nan nan nan nan nan nan nan nan nan nan
 nan nan nan nan nan nan nan nan nan nan nan nan nan nan nan nan nan nan
 nan nan nan nan nan nan nan nan nan nan nan nan nan nan nan nan nan nan
 nan nan nan nan nan nan nan nan nan nan nan nan nan nan nan nan nan nan
 nan nan nan nan nan nan nan nan nan nan nan nan nan nan nan nan nan nan
 nan nan nan nan nan nan nan nan nan nan nan nan nan nan nan nan nan nan
 nan nan nan nan nan nan nan nan]","[nan nan nan nan nan nan nan nan nan nan nan nan nan nan nan nan nan nan
 nan nan nan nan nan nan nan nan nan nan nan nan nan nan nan nan nan nan
 nan nan nan nan nan nan nan nan nan nan nan nan nan nan nan nan nan nan
 nan nan nan nan nan nan nan nan nan nan nan nan nan nan nan nan nan nan
 nan nan nan nan nan nan nan nan nan nan nan nan nan nan nan nan nan nan
 nan nan nan nan nan nan nan nan nan nan nan nan nan nan nan nan nan nan
 nan nan nan nan nan nan nan nan nan nan nan nan nan nan nan nan nan nan
 nan nan nan nan nan nan nan nan nan nan nan nan nan nan]",,,5.00146,
031,3,2,csp,56b.png,1,1,80,119,82,1,1,531,neg_feedback_onset,2,"[nan nan nan nan nan nan nan nan nan nan nan nan nan nan nan nan nan nan
 nan nan nan nan nan nan nan nan nan nan nan nan nan nan nan nan nan nan
 nan nan nan nan nan nan nan nan nan nan nan nan nan nan nan nan nan nan
 nan nan nan nan nan nan nan nan nan nan nan nan nan nan nan nan nan nan
 nan nan nan nan nan nan nan nan nan nan nan nan nan nan nan nan nan nan
 nan nan nan nan nan nan nan nan nan nan nan nan nan nan nan nan nan nan
 nan nan nan nan nan nan nan nan nan nan nan nan nan nan nan nan nan nan
 nan nan nan nan nan nan nan nan nan nan nan nan nan nan nan nan nan nan
 nan nan nan nan nan nan nan nan nan nan nan nan nan nan nan nan nan nan
 nan nan nan nan nan nan nan nan nan nan nan nan nan nan nan nan nan nan
 nan nan nan nan nan nan nan nan nan nan nan nan nan nan nan nan nan nan
 nan nan nan nan nan nan nan nan nan nan nan nan nan nan nan nan nan nan
 nan nan nan nan nan nan nan nan nan nan nan nan nan nan nan nan nan nan
 nan nan nan nan nan nan nan nan nan nan nan nan nan nan nan nan nan nan
 nan nan nan nan nan nan nan nan]","[nan nan nan nan nan nan nan nan nan nan nan nan nan nan nan nan nan nan
 nan nan nan nan nan nan nan nan nan nan nan nan nan nan nan nan nan nan
 nan nan nan nan nan nan nan nan nan nan nan nan nan nan nan nan nan nan
 nan nan nan nan nan nan nan nan nan nan nan nan nan nan nan nan nan nan
 nan nan nan nan nan nan nan nan nan nan nan nan nan nan nan nan nan nan
 nan nan nan nan nan nan nan nan nan nan nan nan nan nan nan nan nan nan
 nan nan nan nan nan nan nan nan nan nan nan nan nan nan nan nan nan nan
 nan nan nan nan nan nan nan nan nan nan nan nan nan nan]",,,5.260234999999999,-0.0686650000000002
031,3,2,csm,50a.png,1,1,212,127,211,1,1,804,neu_feedback_onset,3,"[nan nan nan nan nan nan nan nan nan nan nan nan nan nan nan nan nan nan
 nan nan nan nan nan nan nan nan nan nan nan nan nan nan nan nan nan nan
 nan nan nan nan nan nan nan nan nan nan nan nan nan nan nan nan nan nan
 nan nan nan nan nan nan nan nan nan nan nan nan nan nan nan nan nan nan
 nan nan nan nan nan nan nan nan nan nan nan nan nan nan nan nan nan nan
 nan nan nan nan nan nan nan nan nan nan nan nan nan nan nan nan nan nan
 nan nan nan nan nan nan nan nan nan nan nan nan nan nan nan nan nan nan
 nan nan nan nan nan nan nan nan nan nan nan nan nan nan nan nan nan nan
 nan nan nan nan nan nan nan nan nan nan nan nan nan nan nan nan nan nan
 nan nan nan nan nan nan nan nan nan nan nan nan nan nan nan nan nan nan
 nan nan nan nan nan nan nan nan nan nan nan nan nan nan nan nan nan nan
 nan nan nan nan nan nan nan nan nan nan nan nan nan nan nan nan nan nan
 nan nan nan nan nan nan nan nan nan nan nan nan nan nan nan nan nan nan
 nan nan nan nan nan nan nan nan nan nan nan nan nan nan nan nan nan nan
 nan nan nan nan nan nan nan nan]","[nan nan nan nan nan nan nan nan nan nan nan nan nan nan nan nan nan nan
 nan nan nan nan nan nan nan nan nan nan nan nan nan nan nan nan nan nan
 nan nan nan nan nan nan nan nan nan nan nan nan nan nan nan nan nan nan
 nan nan nan nan nan nan nan nan nan nan nan nan nan nan nan nan nan nan
 nan nan nan nan nan nan nan nan nan nan nan nan nan nan nan nan nan nan
 nan nan nan nan nan nan nan nan nan nan nan nan nan nan nan nan nan nan
 nan nan nan nan nan nan nan nan nan nan nan nan nan nan nan nan nan nan
 nan nan nan nan nan nan nan nan nan nan nan nan nan nan]",,,5.2204250000000005,
031,3,2,csp,22b.png,1,1,20,346,19,1,1,547,neg_feedback_onset,4,"[nan nan nan nan nan nan nan nan nan nan nan nan nan nan nan nan nan nan
 nan nan nan nan nan nan nan nan nan nan nan nan nan nan nan nan nan nan
 nan nan nan nan nan nan nan nan nan nan nan nan nan nan nan nan nan nan
 nan nan nan nan nan nan nan nan nan nan nan nan nan nan nan nan nan nan
 nan nan nan nan nan nan nan nan nan nan nan nan nan nan nan nan nan nan
 nan nan nan nan nan nan nan nan nan nan nan nan nan nan nan nan nan nan
 nan nan nan nan nan nan nan nan nan nan nan nan nan nan nan nan nan nan
 nan nan nan nan nan nan nan nan nan nan nan nan nan nan nan nan nan nan
 nan nan nan nan nan nan nan nan nan nan nan nan nan nan nan nan nan nan
 nan nan nan nan nan nan nan nan nan nan nan nan nan nan nan nan nan nan
 nan nan nan nan nan nan nan nan nan nan nan nan nan nan nan nan nan nan
 nan nan nan nan nan nan nan nan nan nan nan nan nan nan nan nan nan nan
 nan nan nan nan nan nan nan nan nan nan nan nan nan nan nan nan nan nan
 nan nan nan nan nan nan nan nan nan nan nan nan nan nan nan nan nan nan
 nan nan nan nan nan nan nan nan]","[nan nan nan nan nan nan nan nan nan nan nan nan nan nan nan nan nan nan
 nan nan nan nan nan nan nan nan nan nan nan nan nan nan nan nan nan nan
 nan nan nan nan nan nan nan nan nan nan nan nan nan nan nan nan nan nan
 nan nan nan nan nan nan nan nan nan nan nan nan nan nan nan nan nan nan
 nan nan nan nan nan nan nan nan nan nan nan nan nan nan nan nan nan nan
 nan nan nan nan nan nan nan nan nan nan nan nan nan nan nan nan nan nan
 nan nan nan nan nan nan nan nan nan nan nan nan nan nan nan nan nan nan
 nan nan nan nan nan nan nan nan nan nan nan nan nan nan]",,,5.48105,
031,3,2,csp,44b.png,1,1,24,267,27,1,1,566,neg_feedback_onset,5,"[nan nan nan nan nan nan nan nan nan nan nan nan nan nan nan nan nan nan
 nan nan nan nan nan nan nan nan nan nan nan nan nan nan nan nan nan nan
 nan nan nan nan nan nan nan nan nan nan nan nan nan nan nan nan nan nan
 nan nan nan nan nan nan nan nan nan nan nan nan nan nan nan nan nan nan
 nan nan nan nan nan nan nan nan nan nan nan nan nan nan nan nan nan nan
 nan nan nan nan nan nan nan nan nan nan nan nan nan nan nan nan nan nan
 nan nan nan nan nan nan nan nan nan nan nan nan nan nan nan nan nan nan
 nan nan nan nan nan nan nan nan nan nan nan nan nan nan nan nan nan nan
 nan nan nan nan nan nan nan nan nan nan nan nan nan nan nan nan nan nan
 nan nan nan nan nan nan nan nan nan nan nan nan nan nan nan nan nan nan
 nan nan nan nan nan nan nan nan nan nan nan nan nan nan nan nan nan nan
 nan nan nan nan nan nan nan nan nan nan nan nan nan nan nan nan nan nan
 nan nan nan nan nan nan nan nan nan nan nan nan nan nan nan nan nan nan
 nan nan nan nan nan nan nan nan nan nan nan nan nan nan nan nan nan nan
 nan nan nan nan nan nan nan nan]","[nan nan nan nan nan nan nan nan nan nan nan nan nan nan nan nan nan nan
 nan nan nan nan nan nan nan nan nan nan nan nan nan nan nan nan nan nan
 nan nan nan nan nan nan nan nan nan nan nan nan nan nan nan nan nan nan
 nan nan nan nan nan nan nan nan nan nan nan nan nan nan nan nan nan nan
 nan nan nan nan nan nan nan nan nan nan nan nan nan nan nan nan nan nan
 nan nan nan nan nan nan nan nan nan nan nan nan nan nan nan nan nan nan
 nan nan nan nan nan nan nan nan nan nan nan nan nan nan nan nan nan nan
 nan nan nan nan nan nan nan nan nan nan nan nan nan nan]",,,5.11839,-0.6622600000000007
031,3,2,csm,47a.png,1,0,224,74,224,1,1,673,neu_feedback_onset,6,"[-0.03010908  0.0105527   0.02410663  0.01442525 -0.01461888 -0.05528066
 -0.10368754 -0.15596697 -0.2005013  -0.23729053 -0.25471701 -0.25084446
 -0.22180033 -0.16371207 -0.07464341  0.0415331   0.17900865  0.33391067
  0.49849406  0.66114118  0.8160432   0.95545502  1.07550409  1.17425412
  1.25751396  1.32528359  1.38530812  1.44339638  1.50729346  1.58087192
  1.66800431  1.76481807  1.87131321  1.9816809   2.09398486  2.20048
  2.29535749  2.37861733  2.44638696  2.49866639  2.53545562  2.55869092
  2.57030857  2.57224485  2.5683723   2.55869092  2.545137    2.52964679
  2.51222032  2.49479384  2.47736736  2.45800461  2.43864186  2.42121538
  2.40185263  2.38248988  2.36312712  2.34570065  2.32633789  2.30697514
  2.28761239  2.26824964  2.25082316  2.23146041  2.21209765  2.1927349
  2.17337215  2.15594567  2.13658292  2.11722017  2.09785741  2.08043094
  2.06106818  2.04170543  2.02234268  2.00297993  1.98555345  1.9661907
  1.94682795  1.92746519  1.91003872  1.89261224  1.87518576  1.85969556
  1.84807791  1.84226908  1.84420536  1.85969556  1.89261224  1.9507005
  2.03976916  2.16562705  2.33601927  2.5528821   2.8104067   3.10278427
  3.41258831  3.72239235  4.00508853  4.23550529  4.39040731  4.45236811
  4.41364261  4.27229452  4.04187776  3.73981882  3.39128928  3.02533326
  2.66712234  2.33795555  2.05525936  1.82677888  1.65445038  1.52859249
  1.44533266  1.38918067  1.35432772  1.32721987  1.30398456  1.28268554
  1.25945023  1.23621493  1.21297963  1.1916806   1.17425412  1.15876392
  1.14908254  1.13940117  1.13359234  1.12778352  1.12391097  1.12197469
  1.12003842  1.11810214  1.11616587  1.11422959  1.11229331  1.11229331
  1.11035704  1.10842076  1.10648449  1.10454821  1.10454821  1.10261194
  1.10067566  1.09873939  1.09680311  1.09680311  1.09486684  1.09293056
  1.09099429  1.08905801  1.08905801  1.08712174  1.08518546  1.08324919
  1.08131291  1.08131291  1.07937664  1.07744036  1.07550409  1.07163153
  1.06775898  1.06388643  1.05614133  1.04452368  1.02516093  0.99998935
  0.96126385  0.90898441  0.84121478  0.75020984  0.63984215  0.50817544
  0.35908224  0.19643512  0.02410663 -0.14822187 -0.31280527 -0.46383474
 -0.59356518 -0.70006031 -0.78138388 -0.83559958 -0.86657999 -0.87819764
 -0.87238881 -0.85302606 -0.82591821 -0.79106525 -0.75233975 -0.71361424
 -0.67488874 -0.64003578 -0.61099165 -0.58969263 -0.58001125 -0.58194753
 -0.60131028 -0.64003578 -0.70199659 -0.79106525 -0.91111432 -1.06214379
 -1.24802621 -1.46682531 -1.71660482 -1.99349218 -2.28780602 -2.59180123
 -2.89579644 -3.18817401 -3.45925254 -3.7051595  -3.9162135  -4.09435082
 -4.24150774 -4.35574798 -4.44675291 -4.51452255 -4.56680198 -4.60746376
 -4.64038044 -4.66748829 -4.6907236  -4.71202262 -4.73138538 -4.75074813
 -4.77011088 -4.78947363 -4.80690011 -4.82626286 -4.84368934 -4.86305209
 -4.88047857 -4.89984132 -4.9172678  -4.93663055 -4.95405703 -4.97341978
 -4.99278253 -5.01020901 -5.02957176 -5.04699824 -5.06636099 -5.08378747
 -5.10315022 -5.1205767  -5.13993945 -5.15736593 -5.17672868 -5.19415516
 -5.21351791 -5.23094439 -5.25030714 -5.26773362 -5.28709637 -5.30452285
 -5.3238856  -5.34324835]","[nan nan nan nan nan nan nan nan nan nan nan nan nan nan nan nan nan nan
 nan nan nan nan nan nan nan nan nan nan nan nan nan nan nan nan nan nan
 nan nan nan nan nan nan nan nan nan nan nan nan nan nan nan nan nan nan
 nan nan nan nan nan nan nan nan nan nan nan nan nan nan nan nan nan nan
 nan nan nan nan nan nan nan nan nan nan nan nan nan nan nan nan nan nan
 nan nan nan nan nan nan nan nan nan nan nan nan nan nan nan nan nan nan
 nan nan nan nan nan nan nan nan nan nan nan nan nan nan nan nan nan nan
 nan nan nan nan nan nan nan nan nan nan nan nan nan nan]",2.5101872281348365,,5.164555000000001,
031,3,2,csm,35a.png,1,1,312,206,314,1,1,486,neu_feedback_onset,7,"[nan nan nan nan nan nan nan nan nan nan nan nan nan nan nan nan nan nan
 nan nan nan nan nan nan nan nan nan nan nan nan nan nan nan nan nan nan
 nan nan nan nan nan nan nan nan nan nan nan nan nan nan nan nan nan nan
 nan nan nan nan nan nan nan nan nan nan nan nan nan nan nan nan nan nan
 nan nan nan nan nan nan nan nan nan nan nan nan nan nan nan nan nan nan
 nan nan nan nan nan nan nan nan nan nan nan nan nan nan nan nan nan nan
 nan nan nan nan nan nan nan nan nan nan nan nan nan nan nan nan nan nan
 nan nan nan nan nan nan nan nan nan nan nan nan nan nan nan nan nan nan
 nan nan nan nan nan nan nan nan nan nan nan nan nan nan nan nan nan nan
 nan nan nan nan nan nan nan nan nan nan nan nan nan nan nan nan nan nan
 nan nan nan nan nan nan nan nan nan nan nan nan nan nan nan nan nan nan
 nan nan nan nan nan nan nan nan nan nan nan nan nan nan nan nan nan nan
 nan nan nan nan nan nan nan nan nan nan nan nan nan nan nan nan nan nan
 nan nan nan nan nan nan nan nan nan nan nan nan nan nan nan nan nan nan
 nan nan nan nan nan nan nan nan]","[-1.08595910e+00 -1.10052456e+00 -1.09220144e+00 -1.05890896e+00
 -9.98566343e-01 -9.04931241e-01 -7.80084438e-01 -6.24025935e-01
 -4.40917291e-01 -2.34920067e-01 -1.22766023e-02  2.16609202e-01
  4.41333447e-01  6.55653791e-01  8.51247116e-01  1.01979030e+00
  1.15712178e+00  1.26324156e+00  1.34023043e+00  1.38808837e+00
  1.41097695e+00  1.41305773e+00  1.39849227e+00  1.37144213e+00
  1.33606887e+00  1.29445326e+00  1.24867610e+00  1.19873738e+00
  1.14879866e+00  1.09677916e+00  1.04475966e+00  9.92740158e-01
  9.40720657e-01  8.88701156e-01  8.34600875e-01  7.82581374e-01
  7.30561873e-01  6.78542372e-01  6.24442091e-01  5.72422590e-01
  5.20403089e-01  4.66302808e-01  4.14283307e-01  3.62263805e-01
  3.10244304e-01  2.56144023e-01  2.04124522e-01  1.52105021e-01
  1.00085520e-01  4.80660190e-02 -3.95348208e-03 -5.59729832e-02
 -1.03830924e-01 -1.51688865e-01 -1.93304466e-01 -2.26596947e-01
 -2.51566307e-01 -2.57808647e-01 -2.41162407e-01 -1.95385246e-01
 -1.07992484e-01  3.14197786e-02  2.29093883e-01  4.99595288e-01
  8.45004775e-01  1.27156468e+00  1.77719423e+00  2.35148953e+00
  2.98404666e+00  3.65613861e+00  4.34695759e+00  5.02737266e+00
  5.67449525e+00  6.26127523e+00  6.77314712e+00  7.18930313e+00
  7.50350091e+00  7.71157892e+00  7.81769870e+00  7.83226416e+00
  7.76775998e+00  7.64083240e+00  7.47020843e+00  7.27045355e+00
  7.05821398e+00  6.84597442e+00  6.64205797e+00  6.45062621e+00
  6.27167913e+00  6.09481282e+00  5.91794652e+00  5.72235320e+00
  5.49970973e+00  5.23961223e+00  4.92957600e+00  4.56543949e+00
  4.14512192e+00  3.67070407e+00  3.14426672e+00  2.57413299e+00
  1.97070678e+00  1.33606887e+00  6.84784712e-01  2.51774385e-02
 -6.36510615e-01 -1.28987555e+00 -1.92243268e+00 -2.52169733e+00
 -3.07310405e+00 -3.56208736e+00 -3.96992024e+00 -4.27787569e+00
 -4.47554979e+00 -4.54421554e+00 -4.48179213e+00 -4.28619881e+00
 -3.95951634e+00 -3.51422941e+00 -2.97114582e+00 -2.34483103e+00
 -1.66441596e+00 -9.50708402e-01 -2.28677727e-01  4.76706708e-01
  1.14463710e+00  1.75430565e+00  2.28698535e+00  2.72602993e+00
  3.05895474e+00  3.27535587e+00  3.37107175e+00  3.34402161e+00
  3.19628622e+00  2.94035028e+00  2.58453689e+00  2.14549230e+00
  1.63570119e+00  1.07180980e+00  4.68383588e-01 -1.60011985e-01]",,4.795677803695035,4.650905,-0.5916699999999997
031,3,2,csp,48b.png,1,1,156,263,163,1,1,556,pos_feedback_onset,8,"[nan nan nan nan nan nan nan nan nan nan nan nan nan nan nan nan nan nan
 nan nan nan nan nan nan nan nan nan nan nan nan nan nan nan nan nan nan
 nan nan nan nan nan nan nan nan nan nan nan nan nan nan nan nan nan nan
 nan nan nan nan nan nan nan nan nan nan nan nan nan nan nan nan nan nan
 nan nan nan nan nan nan nan nan nan nan nan nan nan nan nan nan nan nan
 nan nan nan nan nan nan nan nan nan nan nan nan nan nan nan nan nan nan
 nan nan nan nan nan nan nan nan nan nan nan nan nan nan nan nan nan nan
 nan nan nan nan nan nan nan nan nan nan nan nan nan nan nan nan nan nan
 nan nan nan nan nan nan nan nan nan nan nan nan nan nan nan nan nan nan
 nan nan nan nan nan nan nan nan nan nan nan nan nan nan nan nan nan nan
 nan nan nan nan nan nan nan nan nan nan nan nan nan nan nan nan nan nan
 nan nan nan nan nan nan nan nan nan nan nan nan nan nan nan nan nan nan
 nan nan nan nan nan nan nan nan nan nan nan nan nan nan nan nan nan nan
 nan nan nan nan nan nan nan nan nan nan nan nan nan nan nan nan nan nan
 nan nan nan nan nan nan nan nan]","[nan nan nan nan nan nan nan nan nan nan nan nan nan nan nan nan nan nan
 nan nan nan nan nan nan nan nan nan nan nan nan nan nan nan nan nan nan
 nan nan nan nan nan nan nan nan nan nan nan nan nan nan nan nan nan nan
 nan nan nan nan nan nan nan nan nan nan nan nan nan nan nan nan nan nan
 nan nan nan nan nan nan nan nan nan nan nan nan nan nan nan nan nan nan
 nan nan nan nan nan nan nan nan nan nan nan nan nan nan nan nan nan nan
 nan nan nan nan nan nan nan nan nan nan nan nan nan nan nan nan nan nan
 nan nan nan nan nan nan nan nan nan nan nan nan nan nan]",,,4.584204999999999,
031,3,2,csm,13a.png,1,0,176,54,NaN,0,1,480,neu_feedback_onset,9,"[nan nan nan nan nan nan nan nan nan nan nan nan nan nan nan nan nan nan
 nan nan nan nan nan nan nan nan nan nan nan nan nan nan nan nan nan nan
 nan nan nan nan nan nan nan nan nan nan nan nan nan nan nan nan nan nan
 nan nan nan nan nan nan nan nan nan nan nan nan nan nan nan nan nan nan
 nan nan nan nan nan nan nan nan nan nan nan nan nan nan nan nan nan nan
 nan nan nan nan nan nan nan nan nan nan nan nan nan nan nan nan nan nan
 nan nan nan nan nan nan nan nan nan nan nan nan nan nan nan nan nan nan
 nan nan nan nan nan nan nan nan nan nan nan nan nan nan nan nan nan nan
 nan nan nan nan nan nan nan nan nan nan nan nan nan nan nan nan nan nan
 nan nan nan nan nan nan nan nan nan nan nan nan nan nan nan nan nan nan
 nan nan nan nan nan nan nan nan nan nan nan nan nan nan nan nan nan nan
 nan nan nan nan nan nan nan nan nan nan nan nan nan nan nan nan nan nan
 nan nan nan nan nan nan nan nan nan nan nan nan nan nan nan nan nan nan
 nan nan nan nan nan nan nan nan nan nan nan nan nan nan nan nan nan nan
 nan nan nan nan nan nan nan nan]","[nan nan nan nan nan nan nan nan nan nan nan nan nan nan nan nan nan nan
 nan nan nan nan nan nan nan nan nan nan nan nan nan nan nan nan nan nan
 nan nan nan nan nan nan nan nan nan nan nan nan nan nan nan nan nan nan
 nan nan nan nan nan nan nan nan nan nan nan nan nan nan nan nan nan nan
 nan nan nan nan nan nan nan nan nan nan nan nan nan nan nan nan nan nan
 nan nan nan nan nan nan nan nan nan nan nan nan nan nan nan nan nan nan
 nan nan nan nan nan nan nan nan nan nan nan nan nan nan nan nan nan nan
 nan nan nan nan nan nan nan nan nan nan nan nan nan nan]",,,5.355325,
031,3,2,csm,39a.png,1,1,272,224,277,1,1,603,neu_feedback_onset,10,"[-3.45589824 -3.58048942 -3.62068013 -3.56642268 -3.40565986 -3.12834399
 -2.73648462 -2.23008174 -1.62722116 -0.94196965 -0.20246068  0.56518179
  1.33684332  2.08037136  2.77768009  3.40867416  3.96129635  4.4315276
  4.81534883  5.11878865  5.34988521  5.5206957   5.64528689  5.73772551
  5.81207831  5.88040251  5.95475531  6.04317486  6.1476707   6.27226188
  6.41292935  6.56766356  6.72842638  6.89119874  7.04593295  7.19061949
  7.31922975  7.42774465  7.51415466  7.57845979  7.6186505   7.63673631
  7.63472678  7.61262189  7.57645026  7.52420234  7.46190675  7.38956348
  7.30918207  7.22478159  7.13837157  7.04794249  6.9575134   6.86507478
  6.77062662  6.678188    6.58373985  6.49130122  6.39685307  6.30441445
  6.20996629  6.11551813  6.02307951  5.92863136  5.8341832   5.74174458
  5.64729642  5.5548578   5.46040964  5.36596149  5.27352287  5.17907471
  5.08462655  4.99218793  4.89773978  4.80530115  4.710853    4.61640484
  4.52396622  4.4315276   4.33908898  4.24665036  4.15823081  4.06981125
  3.98541077  3.9070389   3.8326861   3.76838097  3.71412352  3.67192328
  3.64378978  3.63173257  3.63776118  3.65986606  3.69804723  3.75230469
  3.82062888  3.90301983  3.99344892  4.09392568  4.20043105  4.31095548
  4.42549899  4.54205204  4.66061462  4.7791772   4.89974931  5.02032143
  5.14089354  5.26146565  5.38203777  5.50260988  5.623182    5.74576365
  5.87035483  5.99695555  6.12958488  6.26824281  6.42096749  6.59177799
  6.78871244  7.01980899  7.29913439  7.63271724  8.03261476  8.502846
  9.04743006  9.66033831 10.32549447 11.02682227 11.73417868 12.41742066
 13.04238612 13.5769225  13.99691536 14.28226937 14.42494637 14.42293684
 14.28628844 14.02705839 13.66735158 13.22525383 12.72086048 12.1742669
 11.60355889 11.0228032  10.44606659  9.88741579  9.36091755  8.88063863
  8.45863623  8.11098663  7.85376612  7.69903191  7.65482213  7.72917494
  7.92409985  8.23155875  8.64351347  9.14388775  9.70856715 10.31142772
 10.93036458 11.53523469 12.1059427  12.62038372 13.06449101 13.43022642
 13.71357089 13.91653395 14.04514421 14.1074398  14.11346841 14.0732777
 13.99691536 13.89442907 13.77385695 13.63720855 13.49051248 13.33979734
 13.18305359 13.0243003  12.86353749 12.70076513 12.53799278 12.37522042
 12.21043853 12.04766618 11.88288429 11.7181024  11.55533004 11.39054815
 11.22576626 11.06098437 10.89620248 10.73343013 10.56864824 10.40386635
 10.23908446 10.0763121   9.91153021  9.74674832  9.58196643  9.41718454
  9.25441219  9.0896303   8.92484841  8.76006652  8.59729416  8.43251227
  8.26773038  8.10294849  7.9381666   7.77539425  7.61061236  7.44583047
  7.28104858  7.11626669  6.95349433  6.78871244  6.62393055  6.45914866
  6.29637631  6.13159442  5.96882206  5.80604971  5.64729642  5.48854314
  5.33581846  5.18912239  5.05247399  4.93190187  4.82740604  4.7450151
  4.68874811  4.66463369  4.67066229  4.70683393  4.77113905  4.85353
  4.94998769  5.05046445  5.14290308  5.22127495  5.27754194  5.30567543
  5.30768497  5.27955147  5.22730356  5.15295075  5.06252167  4.9560163
  4.84147279  4.71889114  4.59028088  4.45966109  4.3290413   4.19440244
  4.06177311  3.92713425]","[nan nan nan nan nan nan nan nan nan nan nan nan nan nan nan nan nan nan
 nan nan nan nan nan nan nan nan nan nan nan nan nan nan nan nan nan nan
 nan nan nan nan nan nan nan nan nan nan nan nan nan nan nan nan nan nan
 nan nan nan nan nan nan nan nan nan nan nan nan nan nan nan nan nan nan
 nan nan nan nan nan nan nan nan nan nan nan nan nan nan nan nan nan nan
 nan nan nan nan nan nan nan nan nan nan nan nan nan nan nan nan nan nan
 nan nan nan nan nan nan nan nan nan nan nan nan nan nan nan nan nan nan
 nan nan nan nan nan nan nan nan nan nan nan nan nan nan]",10.186334155568185,,4.976274999999999,
031,3,2,csm,27a.png,1,1,184,133,182,1,1,635,neu_feedback_onset,11,"[nan nan nan nan nan nan nan nan nan nan nan nan nan nan nan nan nan nan
 nan nan nan nan nan nan nan nan nan nan nan nan nan nan nan nan nan nan
 nan nan nan nan nan nan nan nan nan nan nan nan nan nan nan nan nan nan
 nan nan nan nan nan nan nan nan nan nan nan nan nan nan nan nan nan nan
 nan nan nan nan nan nan nan nan nan nan nan nan nan nan nan nan nan nan
 nan nan nan nan nan nan nan nan nan nan nan nan nan nan nan nan nan nan
 nan nan nan nan nan nan nan nan nan nan nan nan nan nan nan nan nan nan
 nan nan nan nan nan nan nan nan nan nan nan nan nan nan nan nan nan nan
 nan nan nan nan nan nan nan nan nan nan nan nan nan nan nan nan nan nan
 nan nan nan nan nan nan nan nan nan nan nan nan nan nan nan nan nan nan
 nan nan nan nan nan nan nan nan nan nan nan nan nan nan nan nan nan nan
 nan nan nan nan nan nan nan nan nan nan nan nan nan nan nan nan nan nan
 nan nan nan nan nan nan nan nan nan nan nan nan nan nan nan nan nan nan
 nan nan nan nan nan nan nan nan nan nan nan nan nan nan nan nan nan nan
 nan nan nan nan nan nan nan nan]","[ -2.17875416  -2.44216313  -2.59900206  -2.63921717  -2.56280846
  -2.3758082   -2.08827016  -1.71628038  -1.27592492  -0.78731133
  -0.2685364    0.26632457   0.80520705   1.34006802   1.86688597
   2.37962863   2.87829601   3.35484507   3.80927582   4.23354523
   4.6196103    4.96143874   5.24897678   5.48021366   5.64509562
   5.74563339   5.77981624   5.75367642   5.66922468   5.53651482
   5.36157909   5.15246051   4.91720211   4.66183616   4.39440568
   4.11893217   3.83742639   3.55390986   3.26838258   2.98285529
   2.69732801   2.41180072   2.12627344   1.84074615   1.55521887
   1.26969158   0.98416429   0.69863701   0.41310972   0.12758244
  -0.15794485  -0.44146138  -0.72698866  -1.01251595  -1.29804323
  -1.58357052  -1.8690978   -2.15462509  -2.44015238  -2.72567966
  -3.01120695  -3.29472348  -3.58025076  -3.86577805  -4.15130533
  -4.43683262  -4.7223599   -5.00788719  -5.29341447  -5.57894176
  -5.86245829  -6.14798557  -6.43351286  -6.71904015  -7.00456743
  -7.29009472  -7.575622    -7.86114929  -8.14667657  -8.43220386
  -8.71572039  -9.00124767  -9.28677496  -9.57230224  -9.85782953
 -10.14335682 -10.4288841  -10.71441139 -10.99993867 -11.2834552
 -11.56898249 -11.85450977 -12.14003706 -12.42556434 -12.71109163
 -12.99460816 -13.27812469 -13.56164122 -13.84314699 -14.12063126
 -14.39208325 -14.65348147 -14.90482591 -15.1360628  -15.34518138
 -15.52011711 -15.65885924 -15.75135399 -15.79559061 -15.78553684
 -15.72521417 -15.61663337 -15.46984822 -15.29692324 -15.10992298
 -14.92091196 -14.74798698 -14.59718032 -14.47854574 -14.39409401
 -14.34583588 -14.33176059 -14.33980361 -14.36795419 -14.40615854
 -14.44034139 -14.46447045 -14.46447045 -14.43229836 -14.3538789
 -14.21915828 -14.01406121 -13.72853393 -13.35252264 -12.87798434
 -12.3008975  -11.62327289 -10.85114276 -10.00059317  -9.08771016]",,3.08470006062428,4.552840000000001,0.22212000000000032
031,3,2,csm,46a.png,1,1,60,60,62,1,1,512,neu_feedback_onset,12,"[ 6.24054598  5.67461979  5.04557915  4.35763169  3.62760794  2.87233841
  2.10444599  1.3407612   0.59811456 -0.1192863  -0.7988185  -1.44048203
 -2.04217307 -2.60389164 -3.1235339  -3.60109987 -4.03238192 -4.41106859
 -4.724537   -4.9643719  -5.11795038 -5.1768572  -5.13267708 -4.98541004
 -4.73715989 -4.39634189 -3.97557892 -3.4917015  -2.96154016 -2.40192541
 -1.82758396 -1.25113869 -0.6852125  -0.13822064  0.38562926  0.88002575
  1.33865739  1.75731654  2.13179558  2.45788689  2.73348663  2.96280245
  3.14583434  3.28889375  3.40249975  3.49717142  3.58553164  3.68230713
  3.79801694  3.9473878   4.14093876  4.38498129  4.68582681  5.04347533
  5.45792686  5.92076613  6.4277855   6.96215447  7.51756159  8.07717634
  8.62837583  9.15853718  9.65714129 10.11577293 10.52812064 10.89208061
 11.20554902 11.47273351 11.6978417  11.8829774  12.03655589 12.16278478
 12.27007933 12.36054337 12.44259215 12.5204333  12.59406682 12.66770034
 12.73923005 12.81075975 12.88018564 12.9454039  13.00431072 13.05480227
 13.09687857 13.13053961 13.15999302 13.18313498 13.20838076 13.23783416
 13.27780665 13.33040202 13.39351646 13.46714998 13.54709495 13.62914373
 13.70277725 13.76168406 13.79744891 13.80376036 13.77641077 13.71119251
 13.61020939 13.47135761 13.2988448  13.09898238 12.8738742  12.62983167
 12.36895863 12.09756652 11.81986296 11.53374414 11.2455215  10.95519506
 10.66486861 10.37243834 10.08000808  9.785474    9.49304374  9.19850966
  8.90607939  8.61364913  8.31911505  8.02668479  7.73215071  7.43972045
  7.14729018  6.85485992  6.56242965  6.2721032   5.98388057  5.69776175
  5.42005819  5.15076989  4.89410448  4.65847722  4.44809573  4.2734791
  4.14514639  4.06940906  4.05678617  4.11358917  4.24402569  4.44809573
  4.72790311  5.07292874  5.47896501  5.93759664  6.43620076  6.96846592
  7.52176922  8.08979923  8.6662445   9.24479358  9.81913504 10.38506123
 10.93415691 11.46431825 11.96081855 12.421554   12.8317979  13.18313498
 13.46714998 13.67753147 13.80796799 13.85845954 13.82900614 13.72802302
 13.55761402 13.3282982  13.05059464 12.73502242 12.38789297 12.01972537
 11.63262344 11.23710624 10.83527761 10.42713753 10.01689363  9.60664974
  9.19640584  8.78616195  8.37802187  7.9719856   7.57226078  7.1788474
  6.79384929  6.41937024  6.06172172  5.72090371  5.40112386  5.10238215
  4.8267824   4.57642844  4.34921643  4.14304258  3.96001069  3.7917055
  3.63812702  3.49717142  3.3667349   3.24050601  3.12058856  3.00277493
  2.88916893  2.77556293  2.66195693  2.54835092  2.43684874  2.32534655
  2.21384436  2.10234218  1.98873618  1.87723399  1.7657318   1.65422961
  1.54272743  1.43122524  1.31761924  1.20611705  1.09461487  0.98311268
  0.87161049  0.7601083   0.6465023   0.53500012  0.42349793  0.31199574
  0.20049355  0.08899137 -0.02461463 -0.13611682 -0.24761901 -0.35912119
 -0.47062338 -0.58212557 -0.69573157 -0.80723376 -0.91873594 -1.03023813
 -1.14174032 -1.2532425  -1.36684851 -1.47835069 -1.58985288 -1.70135507
 -1.81285725 -1.92435944 -2.03796544 -2.14946763 -2.26096982 -2.372472
 -2.48397419 -2.59547638 -2.70908238 -2.82058457 -2.93208675 -3.04358894
 -3.15509113 -3.26659331]","[-7.07231719 -6.68777699 -6.21300949 -5.64801468 -4.99064429 -4.2494914
 -3.43314908 -2.55450696 -1.62860292 -0.67477137  0.29194979  1.25867095
  2.21035423  3.13840654  4.03423482  4.89354252  5.71418137  6.48970657
  7.22011811  7.90111946  8.53056235  9.10844678  9.62617967 10.08590929
 10.48548737 10.82276564 11.09989237 11.31901583 11.48443257 11.60043911
 11.67348026 11.70785257 11.71000084 11.68207334 11.62621834 11.54888064
 11.44576372 11.31901583 11.16863699 10.99892372 10.80557948 10.59719737
 10.3780739  10.15250563  9.9312339   9.71855525  9.52306274  9.3512012
  9.20941543  9.09555716  9.00962639  8.95162312  8.91080601  8.88502678
  8.86139582  8.83561659  8.7926512   8.73035139  8.64227235  8.52196928
  8.36944216  8.19113581  7.99134677  7.77866812  7.56813773  7.36834869
  7.19219061  7.05255311  6.95802926  6.9064708   6.90217426  6.93654657
  6.99884638  7.07618407  7.15567003  7.21796984  7.25234215  7.24589734
  7.19004234  7.08048061  6.91506388  6.69808868  6.4317033   6.1245008
  5.78077772  5.41342368  5.03532829  4.65508463  4.29202713  3.96119366
  3.68191866  3.46924001  3.34034385  3.30382327  3.36397481  3.52079847
  3.76355289  4.0772002   4.44025771  4.82694617  5.2093381   5.56595079
  5.87315329  6.11590772  6.28991753  6.38658964  6.41666541  6.38229311
  6.2985106   6.17820753  6.03427349  5.88389464  5.73781233  5.61321272
  5.52513368  5.48002002  5.49076137  5.55735771  5.67980906  5.84522579
  6.03857003  6.23835907  6.41451714  6.53696849  6.58208215  6.53052368
  6.36510695  6.08798022  5.70344002  5.22867252  4.68730867  4.10083117
  3.49716751  2.89565212  2.31561942  1.7721073   1.27370884  0.82686883
  0.43158729  0.09430902]",10.53811376168407,9.43423181114137,4.75327,0.26327499999999926
031,3,2,csp,40b.png,1,1,300,28,302,1,1,457,pos_feedback_onset,13,"[-5.41468425 -5.08076527 -4.69156169 -4.23822797 -3.72076412 -3.13917013
 -2.50008016 -1.80791698 -1.08037165 -0.33071247  0.42115808  1.15754895
  1.86076905  2.51976148  3.12568069  3.67410392  4.17166532  4.62057626
  5.03410507  5.41888588  5.78818701  6.14421983  6.48477296  6.80321226
  7.08626941  7.31625334  7.46883884  7.52633482  7.46883884  7.28308258
  6.96685467  6.52236649  5.96509773  5.31495084  4.60288519  3.85986017
  3.12125792  2.41803782  1.78115923  1.232736    0.7904592   0.46317438
