sub,run,cat_cond,trial_type,picture,old,response_old,target_pos,response_pos,dot_resp_loc,cat_corr,TN_corr,TN_rt,feedback_type,trial,SP_timeseries,FB_timeseries,SP_peak_response,FB_peak_response,preStim_bl,anticipation
027,1,1,csp,12a.png,1,1,152,148,152,1,1,387,pos_feedback_onset,1,"[-2.1721069  -2.09802052 -1.97736555 -1.81437551 -1.61540065 -1.38044098
 -1.11796351 -0.83220175 -0.52738921 -0.21199289  0.10975368  0.43361701
  0.74901333  1.05382587  1.34170439  1.60418186  1.84125828  2.04446665
  2.2159237   2.3535127   2.45511688  2.52708651  2.56730483  2.58423886
  2.58212211  2.56518808  2.53978703  2.51015248  2.48263468  2.46146714
  2.45088337  2.45300013  2.4678174   2.49745196  2.54613729  2.60963991
  2.69007655  2.78533047  2.89751842  3.02452365  3.16211265  3.31240217
  3.4711587   3.6362655   3.8056058   3.97282935  4.13581939  4.29034242
  4.43428167  4.55917015  4.66500784  4.74967799  4.80683034  4.8406984
  4.84916542  4.83223139  4.79412982  4.73486071  4.66289108  4.57822093
  4.48931727  4.40253037  4.31997697  4.25012409  4.19720525  4.16333719
  4.15275342  4.16968745  4.21202253  4.27975865  4.37077906  4.48508377
  4.61843925  4.76872877  4.92960206  5.10317587  5.28309994  5.46937428
  5.65776536  5.84827321  6.04301455  6.23563915  6.4303805   6.62512185
  6.81986319  7.01037104  7.20299563  7.39138672  7.5755443   7.75546837
  7.93115893  8.09838248  8.25713902  8.40531178  8.54290078  8.66355574
  8.76515993  8.84771332  8.90486568  8.93661698  8.94085049  8.91333269
  8.85829709  8.77574369  8.66990601  8.54501753  8.40954529  8.26983954
  8.13225054  8.00524532  7.89517412  7.80415371  7.73430083  7.68561549
  7.65386419  7.63269665  7.61999613  7.6072956   7.58824482  7.55649351
  7.50992493  7.44430556  7.35963541  7.25803123  7.14372652  7.01883805
  6.89394958  6.77117786  6.65898991  6.56161923  6.48329934  6.42826374
  6.39862919  6.39651244  6.41979673  6.47059882  6.54891871  6.65263964
  6.78176163  6.9341679   7.10774171  7.29824955  7.50145791  7.71101654
  7.92269192  8.12590028  8.31429137  8.48151492  8.62122067  8.72917511
  8.80114474  8.83712955  8.83924631  8.80537825  8.74187563  8.64873847
  8.5280835   8.37991074  8.20633693  8.00312856  7.77028565  7.50569142
  7.20722914  6.87489879  6.50870039  6.11075067  5.68739992  5.24288162
  4.78777956  4.33056074  3.87969218  3.44575765  3.03934093  2.66890901
  2.33869542  2.05716717  1.82644101  1.64863369  1.52374521  1.45177559
  1.42849129  1.45177559  1.51739495  1.61899914  1.75235462  1.91534467
  2.101619    2.30906087  2.53132002  2.7705132   3.02029014  3.27853411
  3.54312833  3.81407281  4.08713405  4.35807854  4.62690627  4.88938374
  5.14339419  5.38470413  5.60908003  5.81863865  6.00702974  6.17213653
  6.31607579  6.43673076  6.52986793  6.5997208   6.64205588  6.65898991
  6.64840614  6.61453808  6.55526897  6.47271557  6.37111139  6.25257318
  6.11921769  5.97316168  5.81863865  5.65988212  5.49689208  5.33813554
  5.18361252  5.03543975  4.89785075  4.77507903  4.66712459  4.57610418
  4.50413455  4.44909895  4.41311414  4.3919466   4.38136283  4.37712932
  4.37712932  4.37289581  4.36019529  4.33479425  4.29669268  4.24377383
  4.17392096  4.09348431  4.0024639   3.90720998  3.80983931  3.71881889
  3.6362655   3.56641262  3.51349378  3.47539221  3.45422467  3.44787441
  3.45634142  3.47327545  3.49655975  3.52196079  3.54312833  3.55794561
  3.56217911  3.55159534]","[-1.69783951e+00 -1.57822338e+00 -1.44238811e+00 -1.29033370e+00
 -1.12206015e+00 -9.41622258e-01 -7.51047401e-01 -5.52362976e-01
 -3.47596375e-01 -1.40802381e-01  6.80190048e-02  2.78867783e-01
  4.87689168e-01  6.92455770e-01  8.97222371e-01  1.09590680e+00
  1.29256383e+00  1.48922086e+00  1.68385050e+00  1.87848015e+00
  2.07310979e+00  2.27179421e+00  2.47453342e+00  2.67727263e+00
  2.88001184e+00  3.08072366e+00  3.27535330e+00  3.45781859e+00
  3.62609213e+00  3.77611915e+00  3.90384485e+00  4.00521445e+00
  4.07820057e+00  4.12077580e+00  4.13294015e+00  4.11266623e+00
  4.06198143e+00  3.98291314e+00  3.87140657e+00  3.73151652e+00
  3.56324298e+00  3.36658594e+00  3.14762760e+00  2.90434055e+00
  2.64077957e+00  2.35897207e+00  2.06500022e+00  1.76291880e+00
  1.45678259e+00  1.14861899e+00  8.46537569e-01  5.56620500e-01
  2.80895175e-01  2.34163787e-02 -2.09733712e-01 -4.16527706e-01
 -5.92910818e-01 -7.38883049e-01 -8.54444398e-01 -9.37567474e-01
 -9.88252277e-01 -1.01258098e+00 -1.01055359e+00 -9.86224884e-01
 -9.39594866e-01 -8.78773103e-01 -8.03759596e-01 -7.16581736e-01
 -6.25349092e-01 -5.30061663e-01 -4.32746843e-01 -3.39486806e-01
 -2.52308946e-01 -1.73240654e-01 -1.02281931e-01 -4.34875604e-02
  3.14245775e-03  3.55807313e-02  5.99094364e-02  7.41011811e-02
  8.01833573e-02  8.01833573e-02  7.61285732e-02  7.20737890e-02
  6.80190048e-02  6.59916127e-02  6.59916127e-02  7.20737890e-02
  8.01833573e-02  9.64024941e-02  1.16676415e-01  1.43032512e-01
  1.77498178e-01  2.18046020e-01  2.68730822e-01  3.27525193e-01
  3.94429132e-01  4.73497424e-01  5.60675284e-01  6.57990104e-01
  7.63414493e-01  8.76948451e-01  9.92509800e-01  1.11009854e+00
  1.22363250e+00  1.33108428e+00  1.42434432e+00  1.50341261e+00
  1.56220698e+00  1.59667264e+00  1.60883700e+00  1.59667264e+00
  1.56017959e+00  1.50341261e+00  1.43042649e+00  1.34527602e+00
  1.24998860e+00  1.15064638e+00  1.04927678e+00  9.51961958e-01
  8.60729314e-01  7.77606238e-01  7.02592730e-01  6.39743575e-01
  5.87031381e-01  5.46483539e-01  5.16072658e-01  4.97826129e-01
  4.89716560e-01  4.91743953e-01  5.03908305e-01  5.26209618e-01
  5.60675284e-01  6.09332694e-01  6.74209241e-01  7.57332317e-01
  8.62756706e-01  9.96564584e-01  1.15875595e+00  1.34933081e+00]",7.918511329395483,2.6013467965684454,4.724214999999999,0.032399999999999096
027,1,1,csm,3b.png,1,1,196,210,196,1,1,453,neu_feedback_onset,2,"[-0.50820294 -0.27584755 -0.03356245  0.20475077  0.42916239  0.61981296
  0.76478684  0.85216835  0.87401373  0.82436514  0.70918042  0.53243145
  0.30603389  0.04388935 -0.23811462 -0.52210454 -0.79616475 -1.05036551
 -1.27279118 -1.46344176 -1.61834535 -1.74147385 -1.83481319 -1.90630716
 -1.95595575 -1.99368867 -2.01950594 -2.04135132 -2.05723886 -2.07114047
 -2.08305613 -2.09695773 -2.10887339 -2.12078906 -2.13469066 -2.14660632
 -2.15852198 -2.17043764 -2.18036736 -2.18632519 -2.18831113 -2.18632519
 -2.17440953 -2.15256415 -2.12078906 -2.07312641 -2.01156216 -1.93411037
 -1.84275697 -1.73551602 -1.61437346 -1.48131525 -1.34031326 -1.1913675
 -1.04242174 -0.88950409 -0.74254427 -0.5975704  -0.4605403  -0.33145397
 -0.2142833  -0.10704235 -0.01171707  0.06970662  0.13921464  0.19283511
  0.23453993  0.26432908  0.28220257  0.29213229  0.29809012  0.30206201
  0.30801984  0.32192144  0.34575276  0.38149974  0.43114833  0.49668447
  0.57413626  0.66151778  0.75684306  0.8541543   0.94947958  1.03487515
  1.11034101  1.16793337  1.20765224  1.22353979  1.21559601  1.18580686
  1.13020044  1.0507627   0.95146553  0.83230892  0.70123665  0.55626277
  0.40731701  0.2563853   0.10743954 -0.03356245 -0.16662066 -0.28577727
 -0.39103227 -0.48437162 -0.56380936 -0.63331738 -0.69488163 -0.75048805
 -0.80410852 -0.85375711 -0.90737758 -0.95901211 -1.01461853 -1.068239
 -1.12185948 -1.17349401 -1.21917071 -1.25888958 -1.28669279 -1.30059439
 -1.30059439 -1.28470684 -1.25094581 -1.20129722 -1.13774703 -1.06029523
 -0.97887155 -0.89347598 -0.81205229 -0.73857238 -0.67899408 -0.63927521
 -0.61742983 -0.61544389 -0.63331738 -0.66509248 -0.70679729 -0.75247399
 -0.79219286 -0.82198201 -0.83588362 -0.83191173 -0.80808041 -0.76438965
 -0.70878323 -0.6432471  -0.57969691 -0.52607643 -0.49231539 -0.48635756
 -0.51416077 -0.58366879 -0.69686757 -0.85375711 -1.0543374  -1.29066468
 -1.56075299 -1.85268668 -2.16050792 -2.47230105 -2.78409418 -3.08595759
 -3.37590534 -3.6479796  -3.90615225 -4.14843736 -4.38079275 -4.60520436
 -4.82763003 -5.05402759 -5.28638298 -5.5246962  -5.77293914 -6.0271399
 -6.28134067 -6.52958361 -6.76789683 -6.98635061 -7.17700119 -7.33389072
 -7.44907544 -7.51858347 -7.54042884 -7.51461158 -7.43914573 -7.31998912
 -7.16309958 -6.97046306 -6.75399522 -6.51766795 -6.26942501 -6.01919613
 -5.76896725 -5.5246962  -5.29234081 -5.07190108 -4.86337702 -4.66676861
 -4.48207587 -4.3053269  -4.1365217  -3.96970245 -3.80685508 -3.64400771
 -3.48513223 -3.32625675 -3.17333911 -3.02637929 -2.88934919 -2.7622488
 -2.64706408 -2.54776691 -2.46237134 -2.38889143 -2.32732718 -2.2737067
 -2.22604406 -2.1823533  -2.13866255 -2.09298585 -2.04333726 -1.98773084
 -1.93212442 -1.87254612 -1.81098187 -1.75338951 -1.70175498 -1.65607828
 -1.6203313  -1.59649997 -1.58458431 -1.5885562  -1.60642969 -1.63820479
 -1.68586743 -1.74941762 -1.82686942 -1.91822282 -2.02546377 -2.14859226
 -2.28959425 -2.44846973 -2.62720465 -2.82579899 -3.04425278 -3.28058005
 -3.53676676 -3.80685508 -4.08885906 -4.37880681 -4.67272644 -4.96466014
 -5.24865005 -5.52271026 -5.78286885 -6.02316802 -6.24559369 -6.44617398
 -6.62292295 -6.78179843]","[-2.19331143 -2.0941641  -1.973463   -1.83120813 -1.66308874 -1.47126021
 -1.2492564  -1.00138806 -0.72549983 -0.42590246 -0.10259594  0.2379536
  0.59359077  0.95569407  1.31779738  1.67558993  2.02260559  2.34806749
  2.65197562  2.92786385  3.1735768   3.38480373  3.56370001  3.71457638
  3.83743286  3.93658019  4.01848451  4.09176732  4.15642863  4.22108993
  4.29006199  4.3633448   4.44309374  4.53146419  4.62199002  4.71898197
  4.81166317  4.902189    4.98409332  5.05306538  5.1069498   5.14143583
  5.15867884  5.15436809  5.13065894  5.08539603  5.0228901   4.94529654
  4.85045996  4.74484649  4.63061152  4.50559967  4.37627706  4.2426437
  4.10685496  3.96891084  3.83096673  3.69733337  3.56370001  3.4343774
  3.30936554  3.1929752   3.08305098  2.98174827  2.89337782  2.81578426
  2.75112295  2.69939391  2.65844175  2.63042185  2.61317884  2.60240195
  2.5980912   2.59593582  2.59593582  2.59162507  2.58515894  2.57222668
  2.55282829  2.52265301  2.48170085  2.42997181  2.3653105   2.29202769
  2.20581262  2.11313142  2.00967333  1.90190449  1.7898249   1.67558993
  1.56135496  1.44927536  1.3436619   1.24882532  1.16261025  1.08932744
  1.03113226  0.98802473  0.96000483  0.94707257  0.94707257  0.96000483
  0.98371397  1.01388925  1.04837528  1.08717206  1.12812422  1.16907638
  1.21002854  1.2509807   1.29193286  1.33504039  1.38245868  1.43203235
  1.48807214  1.55057807  1.61739475  1.68852219  1.76396038  1.84370932
  1.92345826  2.0032072   2.08080077  2.15408358  2.22521101  2.28987232
  2.35022287  2.40841804  2.46230246  2.51187613  2.56360517  2.61317884
  2.66490788  2.72094768  2.77914285  2.84380415  2.91277621  2.9882144
  3.06796334  3.15417841]",0.4601431070880394,4.386515100569872,5.03539,-0.21211500000000072
027,1,1,csp,32a.png,1,1,208,36,209,1,0,472,neg_feedback_onset,3,"[-2.30107220e-01 -2.06692054e-01 -1.83276889e-01 -1.59861723e-01
 -1.36446557e-01 -1.17288694e-01 -9.81308312e-02 -8.32302711e-02
 -6.83297111e-02 -5.76864539e-02 -4.49145453e-02 -3.00139852e-02
 -1.08561223e-02  1.68163463e-02  5.30034207e-02  1.04091055e-01
  1.70079250e-01  2.53096656e-01  3.55271925e-01  4.74476405e-01
  6.12838748e-01  7.63973000e-01  9.25750509e-01  1.09178532e+00
  1.26207744e+00  1.42598360e+00  1.57924650e+00  1.71973749e+00
  1.84319928e+00  1.94324590e+00  2.02413465e+00  2.08586554e+00
  2.12630992e+00  2.15185374e+00  2.16249699e+00  2.16249699e+00
  2.15398239e+00  2.13695318e+00  2.11140936e+00  2.07735094e+00
  2.03052060e+00  1.96666106e+00  1.88790096e+00  1.78785434e+00
  1.67077851e+00  1.53667347e+00  1.38766787e+00  1.23227632e+00
  1.07688476e+00  9.23621858e-01  7.78873560e-01  6.46897171e-01
  5.29821342e-01  4.29774725e-01  3.42500016e-01  2.70125867e-01
  2.08394976e-01  1.55178690e-01  1.12605661e-01  7.42899351e-02
  4.23601636e-02  1.89449978e-02  4.04443773e-03 -2.12865144e-04
  1.04303920e-02  3.59742093e-02  8.28045408e-02  1.53050038e-01
  2.48839353e-01  3.72301136e-01  5.23435388e-01  7.06499411e-01
  9.17235904e-01  1.15990217e+00  1.43236955e+00  1.73250940e+00
  2.06245038e+00  2.41793517e+00  2.79896377e+00  3.19915024e+00
  3.61636592e+00  4.04209621e+00  4.46356920e+00  4.87227027e+00
  5.25329888e+00  5.59388311e+00  5.88550835e+00  6.11753136e+00
  6.28356617e+00  6.38574144e+00  6.42618582e+00  6.41128526e+00
  6.35594032e+00  6.27292292e+00  6.17713360e+00  6.08134429e+00
  5.99832688e+00  5.93872464e+00  5.90466622e+00  5.90040891e+00
  5.92382408e+00  5.97065441e+00  6.03664261e+00  6.11327406e+00
  6.20054877e+00  6.29208078e+00  6.38574144e+00  6.48365941e+00
  6.58157737e+00  6.68588129e+00  6.79869982e+00  6.91790430e+00
  7.05200934e+00  7.19675764e+00  7.35640650e+00  7.52669861e+00
  7.70763398e+00  7.89282666e+00  8.08227664e+00  8.26959796e+00
  8.44840468e+00  8.61443949e+00  8.76131644e+00  8.88690688e+00
  8.98269619e+00  9.04868439e+00  9.08274281e+00  9.07848551e+00
  9.04229843e+00  8.97205294e+00  8.86987767e+00  8.74428723e+00
  8.59528163e+00  8.43350412e+00  8.26108336e+00  8.08653394e+00
  7.91624182e+00  7.75233566e+00  7.59694411e+00  7.45006716e+00
  7.31383347e+00  7.18185708e+00  7.05200934e+00  6.92003295e+00
  6.78167061e+00  6.63266501e+00  6.47088750e+00  6.29846673e+00
  6.11327406e+00  5.92382408e+00  5.73011680e+00  5.54066682e+00
  5.36186010e+00  5.19582529e+00  5.04894834e+00  4.91910060e+00
  4.80415342e+00  4.70197816e+00  4.60193154e+00  4.49762762e+00
  4.37203718e+00  4.21877428e+00  4.02506700e+00  3.78240074e+00
  3.48226088e+00  3.12464744e+00  2.70956041e+00  2.24125710e+00
  1.72825210e+00  1.17906003e+00  6.10710097e-01  3.17169064e-02
 -5.40890330e-01 -1.09859701e+00 -1.62650256e+00 -2.11609239e+00
 -2.56310919e+00 -2.96116701e+00 -3.30600854e+00 -3.59763379e+00
 -3.83391410e+00 -4.01910678e+00 -4.15108316e+00 -4.23197192e+00
 -4.26603034e+00 -4.25538708e+00 -4.20004215e+00 -4.10425283e+00
 -3.97227644e+00 -3.80837028e+00 -3.61466300e+00 -3.39328325e+00
 -3.15061699e+00 -2.89092151e+00 -2.61632548e+00 -2.32895754e+00
 -2.03094633e+00 -1.72867783e+00 -1.42002337e+00 -1.10711161e+00
 -7.94199851e-01 -4.83416741e-01 -1.76890934e-01  1.21120267e-01
  4.10616862e-01  6.83084246e-01  9.40651069e-01  1.17480273e+00
  1.38979652e+00  1.57924650e+00  1.74528131e+00  1.89002961e+00
  2.01562004e+00  2.12205262e+00  2.21571328e+00  2.29873069e+00
  2.37749079e+00  2.44986494e+00  2.52223909e+00  2.59461323e+00
  2.66698738e+00  2.74149018e+00  2.81812164e+00  2.89049578e+00
  2.96286993e+00  3.02885813e+00  3.08846037e+00  3.14167665e+00
  3.18850699e+00  3.22682271e+00  3.25875248e+00  3.28855360e+00
  3.31409742e+00  3.34389854e+00  3.37582831e+00  3.41414404e+00
  3.45884572e+00  3.51206200e+00  3.57166424e+00  3.63765244e+00
  3.70576928e+00  3.77175748e+00  3.83561702e+00  3.89309061e+00
  3.94204959e+00  3.98036532e+00  4.00590914e+00  4.02080970e+00
  4.02293835e+00  4.01442374e+00  3.99739453e+00  3.97397936e+00
  3.94417824e+00  3.91224847e+00  3.87819005e+00  3.84413163e+00
  3.81433051e+00  3.78452939e+00  3.76111422e+00  3.74195636e+00]","[-1.37714763 -1.32018606 -1.25101844 -1.16761043 -1.07199637 -0.96010758
 -0.83194405 -0.68750579 -0.52882713 -0.3518394  -0.15857694  0.05096026
  0.27677219  0.51885886  0.77518591  1.04575336  1.32649252  1.6133347
  1.90424557  2.19515644  2.47996428  2.75663475  3.01703049  3.25911716
  3.4808604   3.67615721  3.84297323  3.97723978  4.08099121  4.15015883
  4.1827083   4.18474264  4.15015883  4.08709424  3.99148018  3.87145402
  3.72701575  3.56223407  3.383212    3.19198388  2.99058405  2.78308119
  2.57150965  2.36197246  2.15243526  1.94900109  1.75166994  1.5645105
  1.39159146  1.2329128   1.09254322  0.9745514   0.87893734  0.80773538
  0.76094552  0.74263645  0.74873947  0.7792546   0.83214748  0.90741813
  0.9989635   1.10881796  1.23087846  1.36107633  1.49737722  1.6377468
  1.77608204  1.91034859  2.03851212  2.1544696   2.25822103  2.34569772
  2.41689968  2.47182691  2.5104794   2.53285716  2.54099453  2.5348915
  2.51251374  2.47996428  2.43114008  2.37010982  2.29687352  2.20736249
  2.10157672  1.9835849   1.85338703  1.71098311  1.56044182  1.40583185
  1.25122188  1.09864625  0.95624233  0.82401011  0.70601829  0.60430121
  0.52292754  0.4578286   0.41307309  0.3845923   0.37645494  0.38255796
  0.40290138  0.43748519  0.48427505  0.53920227  0.60226687  0.66940014
  0.73856776  0.8036667   0.86266261  0.91352115  0.9501393   0.97048272
  0.9745514   0.95827667  0.92165852  0.86469695  0.78942631  0.69788093
  0.59006082  0.47003466  0.34187113  0.20353589  0.06113197 -0.08330629
 -0.23181324 -0.37828584 -0.52272411 -0.66309368 -0.7953259  -0.9173864
 -1.02520651 -1.11878623 -1.19609122 -1.25101844 -1.28763659 -1.30391133
 -1.29984264 -1.27949923]",7.8360980967727585,2.615044567341294,4.69781,0.4733200000000002
027,1,1,csp,20a.png,1,1,32,320,32,1,1,372,pos_feedback_onset,4,"[ 0.91876613  0.89193482  0.85271982  0.79905719  0.72888298  0.64426114
  0.54519167  0.43373852  0.30990168  0.17780906  0.03746064 -0.10907961
 -0.25974777 -0.41247986 -0.56727591 -0.71794406 -0.86654826 -1.00689668
 -1.13898931 -1.2607622  -1.36602351 -1.45064534 -1.51462771 -1.55590666
 -1.56829034 -1.55590666 -1.51669166 -1.45477324 -1.3701514  -1.26901798
 -1.15550088 -1.03372799 -0.90782721 -0.78399037 -0.66428143 -0.55695617
 -0.45995065 -0.37739276 -0.3092825  -0.25768382 -0.22053277 -0.19782935
 -0.18544566 -0.18131777 -0.18338172 -0.18544566 -0.18750961 -0.18131777
 -0.16687014 -0.14003882 -0.09875988 -0.04096935  0.0353967   0.12827432
  0.23972748  0.36356431  0.50184878  0.65045298  0.80524903  0.96210902
  1.11896902  1.26963717  1.40998558  1.54001426  1.65353136  1.75466478
  1.84135056  1.91565267  1.97757108  2.03123371  2.0787045   2.12411134
  2.16539029  2.20460529  2.24382028  2.28097133  2.31399449  2.34288975
  2.36352923  2.37384896  2.37384896  2.36146528  2.33669791  2.30161081
  2.25826791  2.21286107  2.16539029  2.12204739  2.08902424  2.07044871
  2.06838477  2.08696029  2.12823924  2.19428555  2.28097133  2.38829659
  2.51419738  2.65454579  2.80727789  2.97032973  3.13544551  3.30262524
  3.46567707  3.62253707  3.76701338  3.89497811  4.00436731  4.09311705
  4.15709941  4.19425046  4.20250625  4.18599467  4.14058783  4.07247757
  3.98166389  3.87021074  3.74430996  3.60602549  3.46154918  3.31294497
  3.16434077  3.02192841  2.88777183  2.76806289  2.66073763  2.5719879
  2.50181369  2.45021501  2.41719186  2.39861633  2.39448844  2.40068028
  2.41512791  2.43576738  2.46053475  2.48530212  2.51213343  2.54102869
  2.56786001  2.59469132  2.61945869  2.64422606  2.66486553  2.68137711
  2.69376079  2.69788869  2.69582474  2.68756895  2.67312132  2.65454579
  2.63390632  2.61326685  2.59469132  2.5761158   2.55960422  2.5369008
  2.50800554  2.4625987   2.39655238  2.30161081  2.16951818  1.99821056
  1.77943215  1.51524689  1.2056548   0.85684771  0.47708141  0.0704838
 -0.3484975  -0.77367064 -1.19058799 -1.59305771 -1.97076006 -2.3175032
 -2.62709529 -2.89747239 -3.12657053 -3.31232579 -3.45473815 -3.55999946
 -3.62810972 -3.66319683 -3.66938867 -3.65700499 -3.62604578 -3.58476683
 -3.53935999 -3.4918892  -3.44648236 -3.40520342 -3.36805237 -3.33296526
 -3.29787816 -3.25866316 -3.20912843 -3.14721001 -3.06671606 -2.96145475
 -2.83349002 -2.67663003 -2.49087477 -2.28035215 -2.04712611 -1.79326059
 -1.52494745 -1.24837851 -0.96561773 -0.68285696 -0.40628802 -0.13591093
  0.12208248  0.36769221  0.59472641  0.80731298  1.00132402  1.17675954
  1.33568348  1.48015979  1.60812452  1.72576952  1.83515872  1.93629214
  2.03536161  2.13443108  2.22937265  2.32225028  2.41100001  2.48736606
  2.54722053  2.58024369  2.58024369  2.53483685  2.43783133  2.28097133
  2.06219292  1.78149609  1.43888085  1.04260297  0.5988543   0.12414643
 -0.37326487 -0.87480405 -1.36808745 -1.83866743 -2.27209636 -2.6580545
 -2.98828607 -3.25866316 -3.46299394 -3.60127841 -3.67351656 -3.68590025
 -3.64049341 -3.54348789 -3.40107552 -3.22151211 -3.01098949 -2.77776344
 -2.53008977 -2.27003241]","[-1.32402181e+00 -1.15756242e+00 -9.81536401e-01 -7.99770401e-01
 -6.18004401e-01 -4.43891706e-01 -2.81258969e-01 -1.32019516e-01
 -1.69937515e-14  1.14799579e-01  2.14292548e-01  3.00392232e-01
  3.78838611e-01  4.49631685e-01  5.20424758e-01  5.91217832e-01
  6.65837559e-01  7.46197264e-01  8.32296948e-01  9.24136611e-01
  1.01788960e+00  1.10972926e+00  1.19965560e+00  1.28192863e+00
  1.35463503e+00  1.41394815e+00  1.45795465e+00  1.48665455e+00
  1.50004783e+00  1.50004783e+00  1.49048120e+00  1.47517459e+00
  1.45604133e+00  1.43690806e+00  1.42160145e+00  1.41203482e+00
  1.40438152e+00  1.40246819e+00  1.40246819e+00  1.39864154e+00
  1.38524825e+00  1.35846169e+00  1.31254185e+00  1.24174878e+00
  1.14225581e+00  1.01214962e+00  8.51430211e-01  6.60097580e-01
  4.41978379e-01  2.02812590e-01 -5.54864632e-02 -3.23352148e-01
 -5.96957811e-01 -8.70563475e-01 -1.13460251e+00 -1.38716158e+00
 -1.62250072e+00 -1.83679327e+00 -2.02429924e+00 -2.18501865e+00
 -2.31703817e+00 -2.41844447e+00 -2.49115087e+00 -2.53707070e+00
 -2.55811729e+00 -2.55811729e+00 -2.54089735e+00 -2.51028413e+00
 -2.47201760e+00 -2.42801110e+00 -2.38400459e+00 -2.34382474e+00
 -2.30938487e+00 -2.28451162e+00 -2.27111834e+00 -2.26920501e+00
 -2.28451162e+00 -2.31129819e+00 -2.35530470e+00 -2.41270449e+00
 -2.48349756e+00 -2.56959724e+00 -2.66717689e+00 -2.77623649e+00
 -2.89868937e+00 -3.03262221e+00 -3.17803501e+00 -3.33301445e+00
 -3.49564718e+00 -3.66593322e+00 -3.84195925e+00 -4.01798527e+00
 -4.19209796e+00 -4.36047068e+00 -4.51927676e+00 -4.66468956e+00
 -4.79670908e+00 -4.91150866e+00 -5.00717497e+00 -5.08370803e+00
 -5.14110782e+00 -5.18320099e+00 -5.20807424e+00 -5.21955419e+00
 -5.22146752e+00 -5.21572754e+00 -5.20233426e+00 -5.18702765e+00
 -5.16789438e+00 -5.14876112e+00 -5.13154118e+00 -5.11432125e+00
 -5.10284129e+00 -5.09518798e+00 -5.09136133e+00 -5.09710131e+00
 -5.11049459e+00 -5.13536784e+00 -5.16980771e+00 -5.21764087e+00
 -5.27504066e+00 -5.34200708e+00 -5.41662681e+00 -5.49507318e+00
 -5.57351956e+00 -5.64813929e+00 -5.71319238e+00 -5.76867885e+00
 -5.81268535e+00 -5.84329857e+00 -5.86243184e+00 -5.87008514e+00
 -5.87008514e+00 -5.86243184e+00 -5.85286521e+00 -5.84329857e+00
 -5.83373194e+00 -5.83181862e+00 -5.83755860e+00 -5.85477853e+00]",3.178788401029064,1.0581172869032698,4.845085000000001,0.6648049999999994
027,1,1,csm,23b.png,1,1,344,222,346,1,1,331,neu_feedback_onset,5,"[ 2.17565733  1.9379955   1.69192086  1.43953662  1.18294598  0.92635533
  0.66976468  0.41948364  0.17340901 -0.06425282 -0.29139864 -0.50802845
 -0.70993584 -0.89501762 -1.06327378 -1.21049792 -1.33669004 -1.43974694
 -1.51966862 -1.57855828 -1.61641591 -1.63744793 -1.64165434 -1.63744793
 -1.62693192 -1.61641591 -1.6080031  -1.6037967  -1.61220951 -1.63113833
 -1.66268636 -1.71106    -1.77415606 -1.85407774 -1.94661863 -2.05177873
 -2.16745484 -2.28944056 -2.41352948 -2.53341199 -2.6427785  -2.73742259
 -2.80893146 -2.8530987  -2.86361471 -2.83837629 -2.77738343 -2.68063613
 -2.55444401 -2.40091027 -2.2305509  -2.05177873 -1.87510976 -1.7068536
 -1.55752626 -1.43343734 -1.34299965 -1.2862132  -1.26728438 -1.28410999
 -1.33458684 -1.41240532 -1.51546222 -1.63324153 -1.75943365 -1.88562577
 -2.00550829 -2.11277159 -2.20320928 -2.27051174 -2.31467898 -2.335711
 -2.335711   -2.31678219 -2.28102775 -2.23686051 -2.18428046 -2.127494
 -2.07070755 -2.0181275  -1.96554745 -1.9171738  -1.87090336 -1.82463291
 -1.77415606 -1.72367922 -1.66478956 -1.5995903  -1.52808143 -1.45026295
 -1.36613487 -1.27780039 -1.1894659  -1.10744102 -1.03172575 -0.96862969
 -0.92235925 -0.89712082 -0.89712082 -0.92446245 -0.9812489  -1.06327378
 -1.17264029 -1.30514201 -1.45657256 -1.62062232 -1.79308488 -1.96765065
 -2.13801001 -2.29785337 -2.44507751 -2.57968244 -2.69535855 -2.79420904
 -2.87833712 -2.94984599 -3.00873565 -3.05500609 -3.09286373 -3.12441176
 -3.14544378 -3.1601662  -3.1664758  -3.1622694  -3.15175339 -3.13492777
 -3.11389575 -3.09076053 -3.06972851 -3.05500609 -3.04869649 -3.0592125
 -3.08234772 -3.12441176 -3.18119822 -3.25270708 -3.33052556 -3.41044724
 -3.48826571 -3.55346497 -3.60394182 -3.63338665 -3.64179946 -3.62918025
 -3.59973542 -3.55767138 -3.50719453 -3.45882088 -3.41886004 -3.39151842
 -3.38100241 -3.38941522 -3.41886004 -3.46723369 -3.52822655 -3.59973542
 -3.67545069 -3.75326916 -3.82477803 -3.8920805  -3.95307336 -4.00565341
 -4.05613026 -4.1045039  -4.15708395 -4.22018001 -4.29589529 -4.38843617
 -4.49990588 -4.63240761 -4.77963175 -4.94157831 -5.10983447 -5.27809063
 -5.43793398 -5.57884852 -5.69242143 -5.7723431  -5.81020074 -5.79758153
 -5.72817586 -5.60198374 -5.41269556 -5.16031132 -4.84272781 -4.46204825
 -4.02458223 -3.53243295 -2.99611644 -2.42194229 -1.82252971 -1.20839472
 -0.59005333  0.01777206  0.60877182  1.17453317  1.70454008  2.20089575
  2.65729059  3.07582779  3.46071376  3.8098453   4.13373841  4.43028989
  4.70791256  4.96870961  5.21688745  5.45454928  5.6859015   5.90884091
  6.12757392  6.33999733  6.54611113  6.74591532  6.9373067   7.12028528
  7.29064464  7.44838479  7.59140253  7.71759465  7.82696116  7.91529564
  7.98680451  8.03728136  8.06882939  8.0793454   8.07093259  8.04569417
  8.00363013  7.94894687  7.87954121  7.79751633  7.70918184  7.61243455
  7.50937765  7.40211435  7.29485105  7.18338134  7.07401483  6.96464833
  6.85738503  6.75432813  6.65337443  6.55873034  6.46618945  6.37785497
  6.29162368  6.2095988   6.12547072  6.04344584  5.95511136  5.86467367
  5.76582318  5.66066308  5.54288376  5.41669164  5.27788031  5.12434656
  4.9602968   4.78362783]","[-2.59568056 -2.28026118 -1.96885987 -1.66549473 -1.36614766 -1.07684581
 -0.79156203 -0.51632346 -0.24510296  0.01808137  0.27724761  0.52636866
  0.76946258  1.00050226  1.21948769  1.4224008   1.60522351  1.76594676
  1.89854345  2.00301356  2.07734807  2.11953792  2.13360121  2.12154696
  2.08337519  2.02712205  1.95680563  1.876444    1.79206429  1.70768458
  1.62531391  1.54696133  1.47463586  1.40833752  1.34605726  1.28578604
  1.2295329   1.17327976  1.11903566  1.06278252  1.00853842  0.95228528
  0.89603214  0.83977901  0.78553491  0.73129081  0.67704671  0.62481165
  0.57056755  0.5183325   0.46609744  0.41587142  0.3656454   0.31541939
  0.26921145  0.22300352  0.1828227   0.14665997  0.11451532  0.09241587
  0.07634355  0.06629834  0.06228026  0.06228026  0.05826218  0.04821698
  0.02611753 -0.01808137 -0.09040683 -0.19487695 -0.33550979 -0.51230537
 -0.72325465 -0.96634857 -1.23355098 -1.51682572 -1.80612757 -2.09141135
 -2.36664992 -2.62179809 -2.85082873 -3.05374184 -3.22651934 -3.36715218
 -3.4816675  -3.56805625 -3.63636364 -3.68658965 -3.72476143 -3.75891512
 -3.79105977 -3.82521346 -3.86941236 -3.92365645 -3.99196384 -4.07232546
 -4.16675038 -4.27122049 -4.38171773 -4.49623305 -4.60873933 -4.71521848
 -4.81366148 -4.89804119 -4.96433953 -5.01456554 -5.04470116 -5.0567554
 -5.05273732 -5.03264691 -5.00050226 -4.96032145 -4.91612255 -4.87192366
 -4.83174284 -4.79758915 -4.7754897  -4.7654445  -4.76946258 -4.78955299
 -4.82370668 -4.86991462 -4.93018584 -5.00050226 -5.07885485 -5.16323456
 -5.25163235 -5.34203918 -5.43445505 -5.52486188 -5.61125063 -5.6936213
 -5.77197388 -5.84429935 -5.90858865 -5.96885987 -6.02511301 -6.07935711
 -6.13360121 -6.1878453 ]",7.12002237806948,1.0001004520341366,4.7546550000000005,-0.07483999999999913
027,1,1,csp,51a.png,1,1,116,310,117,1,1,306,pos_feedback_onset,6,"[-0.43287753 -0.39478515 -0.35457653 -0.31436792 -0.26992681 -0.2254857
 -0.17892836 -0.12813852 -0.07734869 -0.02232636  0.03269596  0.08983452
  0.1427406   0.19564668  0.24220402  0.28452889  0.32050502  0.34801618
  0.36706237  0.37552734  0.37129486  0.35436491  0.32050502  0.27183143
  0.20411165  0.11946192  0.01788225 -0.1027436  -0.23818316 -0.38632018
 -0.54503842 -0.71222162 -0.88575356 -1.06351798 -1.24339864 -1.42116307
 -1.59892749 -1.77034318 -1.93752639 -2.09412838 -2.24014915 -2.36923998
 -2.47716838 -2.56181811 -2.61260794 -2.63165413 -2.6104917  -2.54912065
 -2.44330849 -2.29940396 -2.11529081 -1.89520152 -1.64760108 -1.37460572
 -1.08679665 -0.79263886 -0.49424858 -0.20220703  0.07713706  0.33955121
  0.58080292  0.79877596  0.98923785  1.15218857  1.28974437  1.40190525
  1.49290371  1.56485597  1.62411078  1.67278437  1.71722548  1.76378283
  1.81034018  1.86113001  1.92038482  1.98387211  2.05370813  2.12777664
  2.20607764  2.28437863  2.36267963  2.4346319   2.50235168  2.56160648
  2.60816383  2.63990748  2.65683742  2.65048869  2.62509378  2.57642018
  2.50235168  2.40923698  2.29284361  2.16163653  2.01561576  1.86113001
  1.70452802  1.54792603  1.39344028  1.24741951  1.10774746  0.97865663
  0.85803077  0.74798613  0.64640646  0.55752425  0.4813395   0.41996845
  0.37552734  0.34801618  0.34166745  0.3585974   0.39668977  0.45806082
  0.53847806  0.63582524  0.74375364  0.85591453  0.96595917  1.06753884
  1.15218857  1.21355962  1.24741951  1.24741951  1.21355962  1.14372359
  1.03791144  0.90035563  0.73105619  0.53847806  0.32262126  0.09406701
 -0.14718471 -0.39266891 -0.64026936 -0.88363731 -1.12065654 -1.34497831
 -1.55660263 -1.74918075 -1.92482893 -2.07719843 -2.20840551 -2.31633391
 -2.40309987 -2.47081965 -2.52160949 -2.55758562 -2.58298054 -2.60202673
 -2.61895667 -2.63800286 -2.66339778 -2.69514142 -2.74169877 -2.80095358
 -2.87925457 -2.978718   -3.1014601  -3.24959712 -3.42736154 -3.63052088
 -3.86542387 -4.12783801 -4.41353084 -4.72250233 -5.04840377 -5.38488643
 -5.72560157 -6.06208422 -6.38798566 -6.69695716 -6.98476622 -7.24718037
 -7.47996711 -7.68101021 -7.84819342 -7.98363298 -8.0830964  -8.15081618
 -8.18255983 -8.18255983 -8.14869994 -8.08098016 -7.98151673 -7.85030966
 -7.6852427  -7.49054833 -7.26622656 -7.01227738 -6.73081705 -6.4239618
 -6.09594411 -5.74888024 -5.38700267 -5.01454388 -4.63573636 -4.25692884
 -3.88235381 -3.52047624 -3.17552861 -2.85174341 -2.55335313 -2.28459026
 -2.04545479 -1.8401792  -1.66241478 -1.51639401 -1.40000063 -1.30476969
 -1.23493367 -1.18202759 -1.14393522 -1.12065654 -1.10584284 -1.10161036
 -1.10161036 -1.10795908 -1.12065654 -1.13547025 -1.15451643 -1.17567886
 -1.19895754 -1.2264687  -1.25397986 -1.28572351 -1.3195834  -1.35555953
 -1.39365191 -1.43386052 -1.47618539 -1.52062649 -1.5650676  -1.61162495
 -1.66029854 -1.70685589 -1.75552948 -1.80208683 -1.84864418 -1.89520152
 -1.93964263 -1.98408374 -2.0264086  -2.06873346 -2.11105832 -2.1491507
 -2.18724307 -2.22321921 -2.25496285 -2.28247402 -2.30575269 -2.32268263
 -2.33114761 -2.33114761 -2.32268263 -2.30575269 -2.28035777 -2.24861413
 -2.21052175 -2.17242937]","[-1.4213935  -1.32778022 -1.22652504 -1.11189653 -0.98580517 -0.84634048
 -0.69350247 -0.52729114 -0.35152742 -0.16621134  0.02674665  0.22161512
  0.41839405  0.61135204  0.80048908  0.98198422  1.15583746  1.32395927
  1.4825287   1.63536672  1.78629425  1.93149036  2.07859695  2.22570353
  2.37281012  2.5199167   2.66702329  2.8122194   2.95359456  3.08350687
  3.20195633  3.30321151  3.38154099  3.43312382  3.45413904  3.43885524
  3.38727241  3.29365913  3.16183635  2.98989359  2.7816518   2.54093193
  2.26964446  1.97352081  1.65829242  1.32778022  0.98771564  0.64191965
  0.2923027  -0.0534933  -0.39355788 -0.72407008 -1.04120895 -1.33924307
 -1.61817244 -1.87417611 -2.1053436  -2.31167491 -2.49317005 -2.65173949
 -2.7892937  -2.90965363 -3.01090881 -3.09879067 -3.1732992  -3.23634488
 -3.28792771 -3.32995816 -3.36434671 -3.39109336 -3.41019812 -3.42357144
 -3.43312382 -3.43885524 -3.44076572 -3.43885524 -3.43121334 -3.41975049
 -3.40255622 -3.37772004 -3.34715244 -3.30894293 -3.26309153 -3.21532965
 -3.16374682 -3.112164   -3.06440212 -3.02237166 -2.99180406 -2.97269931
 -2.96887836 -2.98225169 -3.01281929 -3.05867069 -3.12171637 -3.2038668
 -3.29939056 -3.41210859 -3.53819995 -3.67766464 -3.83050265 -3.98907208
 -4.15528342 -4.32531571 -4.49343752 -4.65964885 -4.81821829 -4.96723535
 -5.10478956 -5.23088092 -5.34359895 -5.44485414 -5.53846742 -5.62252832
 -5.7008578  -5.77727681 -5.85178534 -5.92629387 -6.0008024  -6.07531093
 -6.15172994 -6.22814894 -6.30456795 -6.377166   -6.44976406 -6.51854116
 -6.58349732 -6.64463252 -6.70194677 -6.75161913 -6.79556006 -6.83376956
 -6.86624764 -6.88917334 -6.90445714 -6.91018856 -6.91018856 -6.90254666
 -6.88726286 -6.86815811]",1.893349811813091,1.8944749059090953,4.7253549999999995,0.5055800000000001
027,1,1,csp,11a.png,1,1,188,141,189,1,1,397,pos_feedback_onset,7,"[ 2.10140317e-01  1.45256354e-01  7.61863300e-02  5.02327451e-03
 -5.98606879e-02 -1.18465557e-01 -1.64512240e-01 -1.95907706e-01
 -2.10558923e-01 -2.08465892e-01 -1.89628613e-01 -1.56140116e-01
 -1.08000402e-01 -5.14885637e-02  1.13023676e-02  7.82793610e-02
  1.45256354e-01  2.08047286e-01  2.66652155e-01  3.16884900e-01
  3.60838552e-01  3.96420080e-01  4.25722514e-01  4.46652825e-01
  4.63397073e-01  4.73862228e-01  4.80141321e-01  4.82234352e-01
  4.82234352e-01  4.78048290e-01  4.71769197e-01  4.63397073e-01
  4.55024949e-01  4.48745856e-01  4.42466763e-01  4.44559794e-01
  4.50838887e-01  4.67583135e-01  4.96885570e-01  5.38746191e-01
  5.93164998e-01  6.64328053e-01  7.48049295e-01  8.48514785e-01
  9.61538462e-01  1.08502729e+00  1.21898128e+00  1.35921436e+00
  1.50154047e+00  1.64386658e+00  1.77991360e+00  1.90340243e+00
  2.01014701e+00  2.09596129e+00  2.15247313e+00  2.17758950e+00
  2.16921737e+00  2.12317069e+00  2.03944945e+00  1.92433274e+00
  1.77572754e+00  1.60409899e+00  1.41154014e+00  1.20642309e+00
  9.97119989e-01  7.87816885e-01  5.82699843e-01  3.88047956e-01
  2.05954255e-01  3.64187402e-02 -1.18465557e-01 -2.62884699e-01
 -3.96838686e-01 -5.20327517e-01 -6.37537256e-01 -7.50560932e-01
 -8.55212485e-01 -9.57771006e-01 -1.05614346e+00 -1.15032986e+00
 -1.23823717e+00 -1.32195841e+00 -1.39940056e+00 -1.47056361e+00
 -1.53335454e+00 -1.59195941e+00 -1.64637822e+00 -1.69661096e+00
 -1.74684371e+00 -1.79916949e+00 -1.85568132e+00 -1.92056529e+00
 -1.99591440e+00 -2.08591474e+00 -2.18638023e+00 -2.30149694e+00
 -2.42917183e+00 -2.56731188e+00 -2.71382405e+00 -2.86870835e+00
 -3.02777871e+00 -3.18894210e+00 -3.35429155e+00 -3.51964100e+00
 -3.68708349e+00 -3.85661900e+00 -4.02824755e+00 -4.20406215e+00
 -4.38406282e+00 -4.56824956e+00 -4.75662235e+00 -4.95127424e+00
 -5.14801916e+00 -5.34685710e+00 -5.54778808e+00 -5.74871907e+00
 -5.94965005e+00 -6.14639496e+00 -6.34104685e+00 -6.53151268e+00
 -6.71360638e+00 -6.89360705e+00 -7.06523559e+00 -7.23267808e+00
 -7.39174843e+00 -7.54663273e+00 -7.69733097e+00 -7.83965708e+00
 -7.97361106e+00 -8.10128596e+00 -8.21849570e+00 -8.32524028e+00
 -8.41942668e+00 -8.49686883e+00 -8.55965976e+00 -8.60779947e+00
 -8.63919494e+00 -8.65593918e+00 -8.65803222e+00 -8.64966009e+00
 -8.63291584e+00 -8.60989250e+00 -8.58686916e+00 -8.55965976e+00
 -8.53663642e+00 -8.51570610e+00 -8.49686883e+00 -8.48221761e+00
 -8.46965942e+00 -8.45500820e+00 -8.44245002e+00 -8.42570577e+00
 -8.40477546e+00 -8.37756606e+00 -8.34617059e+00 -8.30849603e+00
 -8.26663541e+00 -8.21849570e+00 -8.16826295e+00 -8.11384414e+00
 -8.05942534e+00 -8.00500653e+00 -7.95058772e+00 -7.89616892e+00
 -7.84384314e+00 -7.79151736e+00 -7.74337765e+00 -7.69523794e+00
 -7.65337731e+00 -7.61360973e+00 -7.58221426e+00 -7.55919092e+00
 -7.54872576e+00 -7.55081879e+00 -7.56756304e+00 -7.60314457e+00
 -7.65547035e+00 -7.73081946e+00 -7.82291283e+00 -7.93802954e+00
 -8.06989049e+00 -8.22268176e+00 -8.39221727e+00 -8.57849704e+00
 -8.78152105e+00 -8.99919628e+00 -9.23152272e+00 -9.47222129e+00
 -9.72129199e+00 -9.97245571e+00 -1.02173403e+01 -1.04496668e+01
 -1.06589699e+01 -1.08389706e+01 -1.09792036e+01 -1.10712970e+01
 -1.11110646e+01 -1.10964134e+01 -1.10273434e+01 -1.09080406e+01
 -1.07447842e+01 -1.05522253e+01 -1.03387361e+01 -1.01168749e+01
 -9.90129266e+00 -9.70036168e+00 -9.52454707e+00 -9.37803490e+00
 -9.26710425e+00 -9.18756907e+00 -9.14152239e+00 -9.12059208e+00
 -9.12059208e+00 -9.13524329e+00 -9.15617360e+00 -9.17919695e+00
 -9.19594119e+00 -9.20012726e+00 -9.18966210e+00 -9.16245270e+00
 -9.11012692e+00 -9.03687083e+00 -8.94059141e+00 -8.81919561e+00
 -8.67686950e+00 -8.51570610e+00 -8.33989150e+00 -8.15151870e+00
 -7.95895985e+00 -7.76430796e+00 -7.57802820e+00 -7.40221359e+00
 -7.24105020e+00 -7.10081712e+00 -6.98151435e+00 -6.88732795e+00
 -6.81407187e+00 -6.76174609e+00 -6.72825759e+00 -6.70942031e+00
 -6.70104819e+00 -6.69895516e+00 -6.70314122e+00 -6.70942031e+00
 -6.71779244e+00 -6.72825759e+00 -6.74290881e+00 -6.76383912e+00
 -6.78895549e+00 -6.82244399e+00 -6.86011855e+00 -6.90197917e+00
 -6.94593282e+00 -6.98779344e+00 -7.02128194e+00 -7.04221225e+00
 -7.04430528e+00 -7.02756103e+00 -6.98779344e+00 -6.92290948e+00]","[-3.31011609e+00 -3.03457074e+00 -2.72432708e+00 -2.38346728e+00
 -2.01811456e+00 -1.63030999e+00 -1.22617681e+00 -8.17961475e-01
 -4.07705064e-01 -3.57188417e-03  3.84232683e-01  7.55708636e-01
  1.10065059e+00  1.42109963e+00  1.71297359e+00  1.98035464e+00
  2.22528384e+00  2.44980227e+00  2.66207424e+00  2.86414083e+00
  3.06008419e+00  3.25194540e+00  3.44380661e+00  3.63362674e+00
  3.81936471e+00  3.99489731e+00  4.16022452e+00  4.30514096e+00
  4.42964664e+00  4.52761832e+00  4.59905600e+00  4.64395969e+00
  4.66437046e+00  4.66232938e+00  4.64191861e+00  4.61130246e+00
  4.57252201e+00  4.53374155e+00  4.49496109e+00  4.46230387e+00
  4.43372879e+00  4.41535910e+00  4.40311264e+00  4.39698941e+00
  4.39698941e+00  4.40311264e+00  4.41331803e+00  4.42760556e+00
  4.44393418e+00  4.46434494e+00  4.48475571e+00  4.50516648e+00
  4.52761832e+00  4.55007016e+00  4.57456308e+00  4.59701493e+00
  4.62150785e+00  4.64395969e+00  4.66641153e+00  4.68886338e+00
  4.70927414e+00  4.72764383e+00  4.74397245e+00  4.75417783e+00
  4.75621891e+00  4.74601352e+00  4.72152060e+00  4.67865799e+00
  4.60926139e+00  4.51128971e+00  4.38066080e+00  4.21125144e+00
  4.00714377e+00  3.76425564e+00  3.48871029e+00  3.18254879e+00
  2.85393545e+00  2.51103457e+00  2.15996938e+00  1.81094527e+00
  1.47008547e+00  1.14351320e+00  8.39392780e-01  5.61806353e-01
  3.12794999e-01  9.64408726e-02 -8.92971042e-02 -2.42377854e-01
 -3.62801378e-01 -4.56690904e-01 -5.24046434e-01 -5.68950121e-01
 -5.95484118e-01 -6.07730578e-01 -6.09771655e-01 -6.03648425e-01
 -5.93443041e-01 -5.81196581e-01 -5.64867968e-01 -5.48539355e-01
 -5.30169664e-01 -5.11799974e-01 -4.91389208e-01 -4.70978441e-01
 -4.50567674e-01 -4.32197984e-01 -4.19951524e-01 -4.13828294e-01
 -4.17910448e-01 -4.38321214e-01 -4.75060594e-01 -5.34251818e-01
 -6.15894885e-01 -7.24071948e-01 -8.58783008e-01 -1.01594591e+00
 -1.19760173e+00 -1.40170940e+00 -1.62214568e+00 -1.85482842e+00
 -2.09567547e+00 -2.34264575e+00 -2.58757495e+00 -2.82638092e+00
 -3.05498150e+00 -3.27337671e+00 -3.47340222e+00 -3.65709912e+00
 -3.82038525e+00 -3.96326062e+00 -4.08776630e+00 -4.19594336e+00
 -4.28575073e+00 -4.36127057e+00 -4.42454395e+00 -4.47761194e+00
 -4.52455670e+00 -4.56333716e+00 -4.60007654e+00 -4.63477484e+00]",1.0114572519339842,3.893812986350336,4.777759999999999,0.25495999999999963
027,1,1,csm,7b.png,1,1,192,37,193,1,1,347,neu_feedback_onset,8,"[ 1.12706671  1.01816064  0.89147399  0.74922932  0.59809437  0.43806912
  0.28026644  0.12468634 -0.02422604 -0.15980299 -0.27982193 -0.38206028
 -0.46429548 -0.52875009 -0.57097898 -0.59098213 -0.59542728 -0.57986927
 -0.54875325 -0.50207922 -0.43984718 -0.36650227 -0.2820445  -0.18647387
 -0.07979037  0.03356085  0.15357979  0.28248901  0.41806596  0.55586548
  0.69811015  0.84479996  0.9892672   1.13373443  1.27375653  1.40933347
  1.5382427   1.65603906  1.76494514  1.86273834  1.94719611  2.01831845
  2.07832791  2.12277937  2.15834054  2.18278884  2.19834685  2.20723714
  2.21168229  2.21168229  2.21168229  2.20945971  2.20945971  2.21168229
  2.22057258  2.23613059  2.26280146  2.30280778  2.3583721   2.431717
  2.52728764  2.645084    2.78510609  2.94957649  3.13405004  3.33630417
  3.55856146  3.78970904  4.03196949  4.28089765  4.52982582  4.77653141
  5.01879185  5.24993943  5.47219672  5.67667343  5.86559213  6.03450767
  6.18342005  6.30788413  6.41234506  6.49458026  6.5568123   6.60126375
  6.6301572   6.64571521  6.65238293  6.65238293  6.65016036  6.65016036
  6.65016036  6.65682808  6.67016351  6.69461182  6.72795041  6.77684701
  6.84130163  6.92131425  7.01688489  7.13468125  7.2702582   7.4258383
  7.59919898  7.79256283  8.00370725  8.23263226  8.47711528  8.73493373
  9.00608763  9.28835438  9.57951143  9.8773362  10.18405126 10.49298889
 10.80637167 11.12197702 11.43313723 11.74429743 12.04878992 12.34661469
 12.63554916 12.91337078 13.18007952 13.43123026 13.66904556 13.89130285
 14.09800213 14.2891434  14.46694923 14.6336422  14.7892223  14.93813468
 15.08260192 15.22484659 15.36486868 15.50711334 15.64491286 15.78271238
 15.91384418 16.03830827 16.14943691 16.24500755 16.31835245 16.36947163
 16.39169736 16.38502964 16.34502333 16.27390099 16.17166264 16.04053084
 15.88050559 15.69603204 15.49155533 15.27152062 15.03815046 14.79811259
 14.55362957 14.30692398 14.06021839 13.8135128  13.56902978 13.32454676
 13.07784117 12.82669043 12.56887198 12.30660838 12.03767706 11.76207802
 11.48203383 11.19976707 10.92194546 10.64634642 10.3774151  10.12181922
  9.8773362   9.64618862  9.43282162  9.23501264  9.05498423  8.89051384
  8.74160145  8.60824708  8.48822814  8.38154464  8.28819658  8.20373881
  8.13261648  8.07038444  8.01926526  7.98148152  7.95703322  7.94814293
  7.95925579  7.98814924  8.03704585  8.11039075  8.20151624  8.31709003
  8.44822183  8.59935679  8.76382718  8.93941044  9.12610656  9.31947041
  9.52172454  9.72620125  9.93067795 10.13737723 10.34407651 10.54410807
 10.73747191 10.92194546 11.09530615 11.25310882 11.39313092 11.51537243
 11.62205592 11.70873627 11.78208117 11.83986807 11.89098724 11.9354387
 11.97989016 12.02656419 12.07546079 12.13547026 12.20214745 12.27771493
 12.3621727  12.45329819 12.54886882 12.6488846  12.74890038 12.84891616
 12.9444868  13.03338971 13.11784748 13.19341496 13.26009215 13.31565647
 13.36010793 13.39122395 13.40455939 13.40011424 13.37122079 13.31565647
 13.22453098 13.09784433 12.92892879 12.71333922 12.45329819 12.14658313
 11.80208433 11.42646951 11.02862896 10.61745298 10.20627699  9.8039913
  9.41726361  9.05276166]","[-1.81658371 -1.64925883 -1.46782222 -1.27227386 -1.06261378 -0.84085791
 -0.6110382  -0.37718656 -0.14535089  0.07842094  0.28606506  0.47758149
  0.64692233  0.79408759  0.91907725  1.02793922  1.12268946  1.20937584
  1.29606222  1.38476457  1.48556269  1.59644062  1.71941432  1.85649977
  2.00366502  2.15284624  2.30202745  2.4391129   2.55805468  2.65078895
  2.70723589  2.72336359  2.69715608  2.63062932  2.52378332  2.38468191
  2.22542088  2.05204812  1.87464343  1.70530259  1.54604156  1.40694015
  1.28598241  1.18316833  1.09849791  1.02793922  0.96947631  0.91706129
  0.87271012  0.83037491  0.79005566  0.74973641  0.7074012   0.66708195
  0.62273078  0.57837961  0.53402844  0.4876613   0.44129417  0.39492703
  0.34452797  0.29009699  0.22961812  0.15905943  0.0804369  -0.01028141
 -0.11107953 -0.22397342 -0.34493116 -0.47395276 -0.60700628 -0.74005979
 -0.87109735 -1.00011894 -1.12510861 -1.24606635 -1.36500813 -1.47991799
 -1.59684381 -1.71578559 -1.8387593  -1.96979685 -2.10889826 -2.25404755
 -2.40927665 -2.56853768 -2.7338466  -2.89713955 -3.05841654 -3.20961372
 -3.35073109 -3.47572076 -3.5805508  -3.66522122 -3.72771606 -3.7680353
 -3.78819493 -3.79021089 -3.77609915 -3.7519076  -3.71763624 -3.677317
 -3.63699775 -3.5966785  -3.56240714 -3.53619963 -3.51805597 -3.51402404
 -3.52611982 -3.55635925 -3.60474235 -3.677317   -3.77206723 -3.89100901
 -4.03011041 -4.19138741 -4.37080806 -4.56635641 -4.77198457 -4.98366062
 -5.19533668 -5.40701273 -5.60860897 -5.80012539 -5.97753008 -6.13477515
 -6.27387655 -6.39281834 -6.48958453 -6.56417514 -6.62062209 -6.65892537
 -6.68110096 -6.69118077 -6.69319673 -6.69118077 -6.69118077 -6.69521269
 -6.70932443 -6.7375479 ]",15.093325835854094,1.627385639493537,4.49929,0.0449749999999991
027,1,1,csm,30b.png,1,1,312,230,311,1,1,554,neu_feedback_onset,9,"[ 3.25680043e+00  2.77186410e+00  2.29492122e+00  1.82863629e+00
  1.37567378e+00  9.46691642e-01  5.39025385e-01  1.63332951e-01
 -1.77721172e-01 -4.81472501e-01 -7.45256550e-01 -9.63744348e-01
 -1.13960038e+00 -1.27016016e+00 -1.36075266e+00 -1.41404237e+00
 -1.43535825e+00 -1.42736480e+00 -1.40071994e+00 -1.36075266e+00
 -1.31545641e+00 -1.26749568e+00 -1.22219943e+00 -1.18489663e+00
 -1.15292281e+00 -1.13160692e+00 -1.11828450e+00 -1.10762656e+00
 -1.09696862e+00 -1.08631067e+00 -1.06765928e+00 -1.03834994e+00
 -9.95718172e-01 -9.31770524e-01 -8.49171478e-01 -7.39927579e-01
 -6.04038827e-01 -4.38840736e-01 -2.44333306e-01 -2.05165371e-02
  2.37938541e-01  5.23038473e-01  8.37447743e-01  1.17850187e+00
  1.54087187e+00  1.92455776e+00  2.32156608e+00  2.72923234e+00
  3.14222756e+00  3.55522279e+00  3.96555353e+00  4.36522633e+00
  4.75690568e+00  5.13526260e+00  5.49763260e+00  5.84135121e+00
  6.16641843e+00  6.47549873e+00  6.76592763e+00  7.04036962e+00
  7.29882470e+00  7.54662183e+00  7.78109654e+00  8.00491331e+00
  8.22340111e+00  8.43655994e+00  8.64438979e+00  8.85221965e+00
  9.06271399e+00  9.27320833e+00  9.48636716e+00  9.70219047e+00
  9.92334276e+00  1.01471595e+01  1.03763053e+01  1.06107800e+01
  1.08452547e+01  1.10877229e+01  1.13328555e+01  1.15833171e+01
  1.18444367e+01  1.21108852e+01  1.23906562e+01  1.26837496e+01
  1.29901654e+01  1.33178971e+01  1.36616157e+01  1.40239857e+01
  1.44050071e+01  1.47993509e+01  1.52070172e+01  1.56226769e+01
  1.60410011e+01  1.64539963e+01  1.68589981e+01  1.72506774e+01
  1.76237054e+01  1.79727530e+01  1.82951557e+01  1.85909136e+01
  1.88546976e+01  1.90891723e+01  1.92943377e+01  1.94701937e+01
  1.96194049e+01  1.97473002e+01  1.98565441e+01  1.99524656e+01
  2.00350646e+01  2.01123347e+01  2.01869403e+01  2.02615459e+01
  2.03361515e+01  2.04107571e+01  2.04906916e+01  2.05706262e+01
  2.06478963e+01  2.07225018e+01  2.07891140e+01  2.08477327e+01
  2.08983579e+01  2.09356607e+01  2.09623055e+01  2.09809569e+01
  2.09916149e+01  2.09996083e+01  2.10102663e+01  2.10235887e+01
  2.10475691e+01  2.10795429e+01  2.11221746e+01  2.11781288e+01
  2.12394120e+01  2.13086886e+01  2.13779652e+01  2.14472419e+01
  2.15058605e+01  2.15591502e+01  2.15964530e+01  2.16230979e+01
  2.16337558e+01  2.16284269e+01  2.16124399e+01  2.15804661e+01
  2.15404988e+01  2.14898736e+01  2.14312549e+01  2.13673073e+01
  2.13006952e+01  2.12340830e+01  2.11727999e+01  2.11195102e+01
  2.10742139e+01  2.10449046e+01  2.10262532e+01  2.10209242e+01
  2.10262532e+01  2.10369111e+01  2.10449046e+01  2.10475691e+01
  2.10315821e+01  2.09942793e+01  2.09303317e+01  2.08317457e+01
  2.06985215e+01  2.05279944e+01  2.03228290e+01  2.00883543e+01
  1.98325637e+01  1.95581218e+01  1.92783508e+01  1.89959153e+01
  1.87268023e+01  1.84763407e+01  1.82525239e+01  1.80633455e+01
  1.79167988e+01  1.78182128e+01  1.77702521e+01  1.77755811e+01
  1.78341997e+01  1.79434436e+01  1.81006483e+01  1.82978202e+01
  1.85296304e+01  1.87880855e+01  1.90625275e+01  1.93502919e+01
  1.96380563e+01  1.99204918e+01  2.01922693e+01  2.04480599e+01
  2.06851991e+01  2.08983579e+01  2.10902008e+01  2.12553989e+01
  2.13966166e+01  2.15165185e+01  2.16151044e+01  2.16950390e+01
  2.17589866e+01  2.18096119e+01  2.18469147e+01  2.18788885e+01
  2.19028689e+01  2.19215202e+01  2.19401716e+01  2.19588230e+01
  2.19748100e+01  2.19934614e+01  2.20147772e+01  2.20334286e+01
  2.20574090e+01  2.20787249e+01  2.21000408e+01  2.21213566e+01
  2.21426725e+01  2.21586594e+01  2.21693174e+01  2.21746464e+01
  2.21719819e+01  2.21613239e+01  2.21400080e+01  2.21080342e+01
  2.20680669e+01  2.20174417e+01  2.19614875e+01  2.19055333e+01
  2.18469147e+01  2.17909605e+01  2.17376708e+01  2.16950390e+01
  2.16577362e+01  2.16284269e+01  2.16044465e+01  2.15884596e+01
  2.15724727e+01  2.15564858e+01  2.15404988e+01  2.15218474e+01
  2.15005316e+01  2.14792157e+01  2.14552353e+01  2.14365839e+01
  2.14232615e+01  2.14205970e+01  2.14312549e+01  2.14578998e+01
  2.15031961e+01  2.15698082e+01  2.16497427e+01  2.17509932e+01
  2.18629016e+01  2.19881324e+01  2.21186922e+01  2.22545809e+01
  2.23878052e+01  2.25183650e+01  2.26435958e+01  2.27555042e+01]","[-2.89809366e+00 -2.69231716e+00 -2.47535715e+00 -2.24050353e+00
 -1.98551960e+00 -1.71040536e+00 -1.41068741e+00 -1.08636574e+00
 -7.41913766e-01 -3.79568182e-01  6.71010340e-04  3.92093709e-01
  7.87989810e-01  1.18835931e+00  1.58649211e+00  1.98015151e+00
  2.36486411e+00  2.74286660e+00  3.10968559e+00  3.46755777e+00
  3.81648315e+00  4.15869842e+00  4.49196689e+00  4.82076195e+00
  5.14284692e+00  5.45822178e+00  5.76688653e+00  6.06660449e+00
  6.36184904e+00  6.64591008e+00  6.92102432e+00  7.18495505e+00
  7.43770228e+00  7.67702930e+00  7.90293612e+00  8.11094932e+00
  8.30106892e+00  8.47105821e+00  8.61868048e+00  8.74393574e+00
  8.84458730e+00  8.92287183e+00  8.97878936e+00  9.01681328e+00
  9.03470689e+00  9.04141699e+00  9.03470689e+00  9.02128668e+00
  9.00115637e+00  8.97655266e+00  8.95194895e+00  8.92287183e+00
  8.89603142e+00  8.86919101e+00  8.84458730e+00  8.81774688e+00
  8.79314317e+00  8.76406605e+00  8.72827884e+00  8.68578151e+00
  8.62762729e+00  8.55157945e+00  8.45316460e+00  8.32567263e+00
  8.16686685e+00  7.97003715e+00  7.73742023e+00  7.46901610e+00
  7.16482474e+00  6.83379298e+00  6.48263090e+00  6.11581191e+00
  5.74899293e+00  5.38888404e+00  5.04443207e+00  4.72458381e+00
  4.43604936e+00  4.18330213e+00  3.96857882e+00  3.79411613e+00
  3.65544066e+00  3.55478911e+00  3.48768808e+00  3.44519076e+00
  3.42729715e+00  3.42953385e+00  3.44295406e+00  3.46755777e+00
  3.49663488e+00  3.53018540e+00  3.56597262e+00  3.60399654e+00
  3.63978376e+00  3.67780768e+00  3.72030500e+00  3.76727572e+00
  3.82095655e+00  3.88582088e+00  3.95963202e+00  4.04686336e+00
  4.14527821e+00  4.25487657e+00  4.37789513e+00  4.50762380e+00
  4.64853597e+00  4.79839494e+00  4.95496402e+00  5.11600650e+00
  5.28599579e+00  5.46045848e+00  5.63939457e+00  5.82504076e+00
  6.01292366e+00  6.20304326e+00  6.39539955e+00  6.58551915e+00
  6.77563875e+00  6.96128494e+00  7.14469443e+00  7.32586722e+00
  7.50256661e+00  7.67702930e+00  7.85149199e+00  8.02819138e+00
  8.20489077e+00  8.38606356e+00  8.57170976e+00  8.75735595e+00
  8.94523885e+00  9.13312174e+00  9.31653123e+00  9.49323062e+00
  9.66098321e+00  9.81755229e+00  9.95846446e+00  1.00859564e+01
  1.01955548e+01  1.02872595e+01  1.03610707e+01  1.04169882e+01]",21.8157021166291,9.046529454637954,3.7530699999999997,-0.24067499999999953
027,1,1,csm,44b.png,1,0,248,90,248,1,1,408,neu_feedback_onset,10,"[ 0.68356064  0.52021735  0.35687406  0.19766605  0.04879622 -0.08766779
 -0.20345543 -0.29856671 -0.36679872 -0.40401618 -0.41021909 -0.38540745
 -0.32958126 -0.24894344 -0.14762925 -0.02977397  0.09428423  0.22041005
  0.34033297  0.44991771  0.54296135  0.6194639   0.67529009  0.71043991
  0.72904864  0.72904864  0.71664282  0.69183118  0.65461372  0.61119336
  0.55950244  0.50160862  0.43957953  0.37341516  0.30311551  0.23281587
  0.16251623  0.09635186  0.0363904  -0.01323287 -0.04838269 -0.06492379
 -0.06285615 -0.03804451  0.01157876  0.08601368  0.1831926   0.30311551
  0.43957953  0.59051699  0.75179264  0.91513593  1.07641158  1.22734904
  1.36588069  1.48787124  1.59125307  1.67602617  1.74219054  1.79388145
  1.83109891  1.85797818  1.87658691  1.88899273  1.89933091  1.90760146
  1.91793964  1.92827782  1.94275128  1.96342765  1.99237456  2.02959201
  2.08128293  2.1474473   2.23222039  2.33560222  2.45966041  2.6002597
  2.75740007  2.92281099  3.09235719  3.25776811  3.41077321  3.54310195
  3.64648378  3.71678342  3.7498656   3.74159506  3.69197178  3.60306341
  3.47693758  3.32186484  3.1440481   2.94762263  2.74292662  2.53616296
  2.33353458  2.14331202  1.96963055  1.81455782  1.68016144  1.56850907
  1.4796007   1.40930106  1.35554251  1.31625741  1.2873105   1.26249886
  1.23768722  1.21287559  1.18186104  1.14257594  1.09708794  1.04539703
  0.9875032   0.92754175  0.86964792  0.81588937  0.77040137  0.73938682
  0.72077809  0.72077809  0.73731919  0.77246901  0.82622756  0.8965272
  0.97923266  1.07434394  1.1797934   1.29144577  1.40723342  1.52715634
  1.64501162  1.76079927  1.87451927  1.98203637  2.08335056  2.17846184
  2.26530258  2.3459404   2.41830768  2.48447205  2.54650115  2.60439497
  2.65815352  2.70984443  2.75740007  2.80495571  2.84630844  2.88559354
  2.91867572  2.94555499  2.96416372  2.97036663  2.96623136  2.94555499
  2.91040517  2.85664662  2.78427935  2.6912357   2.57958333  2.44311932
  2.28804658  2.11229748  1.92000728  1.71117599  1.48787124  1.25836359
  1.02265303  0.78694246  0.55329953  0.32792715  0.11289295 -0.09180306
 -0.28202562 -0.45777473 -0.61905038 -0.76792021 -0.90438422 -1.03051004
 -1.14836533 -1.25588243 -1.35719662 -1.4523079  -1.5432839  -1.63012464
 -1.7128301  -1.79346792 -1.87203811 -1.94854066 -2.02297558 -2.09741049
 -2.16977777 -2.23800978 -2.30624178 -2.36827088 -2.4261647  -2.47785561
 -2.52334362 -2.56262871 -2.59571089 -2.62052253 -2.6411989  -2.65773999
 -2.66807817 -2.67428108 -2.68048399 -2.68255163 -2.68048399 -2.67841636
 -2.67221345 -2.66601054 -2.65567235 -2.64326653 -2.63292835 -2.62259017
 -2.61431962 -2.60811671 -2.61018435 -2.61431962 -2.62672544 -2.6411989
 -2.65980763 -2.67634872 -2.69288981 -2.70322799 -2.70322799 -2.69495745
 -2.67221345 -2.63706363 -2.58537271 -2.52127598 -2.44477343 -2.35379742
 -2.25455087 -2.14910141 -2.03744903 -1.92372902 -1.81000901 -1.70042428
 -1.59911009 -1.50399881 -1.42336098 -1.35306134 -1.29930279 -1.25795006
 -1.23313842 -1.22280024 -1.22486788 -1.2372737  -1.2600177  -1.28689697
 -1.31791152 -1.35306134 -1.38614353 -1.41922571 -1.4523079  -1.48125481
 -1.50813408 -1.53708099]","[-1.85538408 -1.73003441 -1.58170396 -1.41039274 -1.22236823 -1.01554127
 -0.7982685  -0.57054993 -0.33656387 -0.10257782  0.1334974   0.3653943
  0.58893455  0.80620732  1.01303428  1.20732627  1.3890833   1.55830536
  1.71081413  1.85078793  1.97404844  2.08268482  2.17460792  2.25190688
  2.3104034   2.35218662  2.37516739  2.37725656  2.3584541   2.31876004
  2.25817437  2.1808754   2.08895231  1.98449425  1.87585786  1.76722148
  1.66485258  1.57292948  1.49563052  1.43922317  1.40579659  1.39117246
  1.3995291   1.42877736  1.47264975  1.53323542  1.60217774  1.68365503
  1.76931064  1.86123373  1.95524599  2.0513474   2.14953798  2.24772856
  2.34591914  2.44619888  2.54438945  2.64466919  2.74285977  2.84313951
  2.94133009  3.0374315   3.13353292  3.22754517  3.31528994  3.39676723
  3.46988787  3.53047355  3.57225677  3.59105923  3.57852426  3.53256271
  3.44272878  3.3069333   3.11473047  2.86820944  2.56110274  2.19758869
  1.77766728  1.31178433  0.80620732  0.26929288 -0.28433484 -0.84214089
 -1.39576861 -1.93268305 -2.44243839 -2.92085631 -3.36166932 -3.76278828
 -4.12212401 -4.44176568 -4.72380244 -4.9682343  -5.18132875 -5.36517494
 -5.52395119 -5.65556835 -5.76838305 -5.86030615 -5.93551595 -5.99610163
 -6.03997401 -6.06922227 -6.08802472 -6.09220304 -6.08593556 -6.06922227
 -6.03997401 -6.00236911 -5.95640756 -5.90208937 -5.83941453 -5.76838305
 -5.69108409 -5.60751764 -5.51768371 -5.42367145 -5.32339171 -5.21684449
 -5.10611894 -4.98912592 -4.87004373 -4.74678321 -4.6235227  -4.49817303
 -4.37073419 -4.24329536 -4.11794569 -3.99050685 -3.86097886 -3.7293617
 -3.59565538 -3.45359242 -3.30108365 -3.13812907 -2.96055037 -2.76625837
 -2.55734225 -2.32962368]",2.5501195093911955,1.865882116988839,4.8364400000000005,0.08697999999999961
027,1,1,csm,48b.png,1,1,160,303,160,1,1,272,neu_feedback_onset,11,"[  0.20659238   0.2107201    0.20865624   0.19833694   0.18182606
   0.16325132   0.14467658   0.12403798   0.10546324   0.0868885
   0.0662499    0.04354745   0.01671727  -0.02249607  -0.07202871
  -0.13600837  -0.21649891  -0.31556419  -0.43114034  -0.56322738
  -0.70976144  -0.87074251  -1.04204289  -1.22366257  -1.41147382
  -1.60547666  -1.80360721  -2.00792935  -2.21637921  -2.42895678
  -2.64772594  -2.86855895  -3.08939197  -3.31228884  -3.531058
  -3.74363557  -3.94589385  -4.13989668  -4.32358022  -4.4948806
  -4.65792553  -4.81684275  -4.97163224  -5.1284856   -5.29565826
  -5.47108635  -5.66302533  -5.87353905  -6.09849978  -6.33997139
  -6.59382617  -6.85593638  -7.12011046  -7.38222067  -7.63401159
  -7.8754832   -8.09838008  -8.30476607  -8.49051347  -8.65768612
  -8.8083479   -8.9424988   -9.06426654  -9.17571497  -9.27684411
  -9.37178167  -9.45846379  -9.53689046  -9.60499784  -9.66072206
  -9.70199926  -9.72470172  -9.72676558  -9.70406312  -9.65453048
  -9.58229538  -9.48323011  -9.36352623  -9.22731147  -9.08284127
  -8.93424336  -8.7877093   -8.65562226  -8.53798225  -8.44098083
  -8.36874573  -8.32127695  -8.29651063  -8.29238291  -8.30476607
  -8.32953239  -8.36049029  -8.39557591  -8.42653381  -8.45542785
  -8.47606645  -8.49051347  -8.49670505  -8.49670505  -8.49257733
  -8.48432189  -8.47400259  -8.46368329  -8.45542785  -8.44717241
  -8.44098083  -8.43478925  -8.42446995  -8.41415065  -8.39557591
  -8.36874573  -8.33366011  -8.28619133  -8.22633939  -8.1541043
  -8.06742218  -7.9683569   -7.85897232  -7.7413323   -7.61543685
  -7.48541367  -7.35332663  -7.2212396   -7.09328028  -6.96738482
  -6.84768094  -6.73416865  -6.62891179  -6.52984651  -6.43697281
  -6.35029069  -6.26980016  -6.19137348  -6.11913838  -6.04896714
  -5.98085976  -5.91894396  -5.86115589  -5.80955939  -5.76415447
  -5.72700499  -5.70017481  -5.68366393  -5.67540849  -5.67953621
  -5.69191937  -5.71462183  -5.74351587  -5.78066535  -5.82400641
  -5.87560291  -5.93132712  -5.99530678  -6.06341416  -6.13977698
  -6.22233138  -6.31107736  -6.40395105  -6.50301633  -6.60414547
  -6.70733847  -6.81259532  -6.91785218  -7.02310904  -7.1283659
  -7.23568662  -7.34507119  -7.45651963  -7.57209579  -7.69179967
  -7.8135674   -7.93946286  -8.06329446  -8.18506219  -8.30063835
  -8.40795907  -8.50083277  -8.57513173  -8.62672822  -8.65562226
  -8.65562226  -8.62879208  -8.57306787  -8.49051347  -8.38525661
  -8.26142501  -8.12521026  -7.98280392  -7.84039758  -7.70418282
  -7.58241509  -7.47922209  -7.40079541  -7.35126277  -7.32856031
  -7.33475189  -7.36983751  -7.43175331  -7.51637157  -7.62162843
  -7.74339616  -7.87961092  -8.02614498  -8.18093447  -8.33985169
  -8.50083277  -8.65974998  -8.8186672   -8.9734567   -9.12411847
  -9.27065253  -9.40893115  -9.54308204  -9.6689775   -9.78868138
  -9.90219368 -10.00745053 -10.10445195 -10.19319793 -10.26956075
 -10.33766813 -10.39132849 -10.43466955 -10.46149972 -10.47594674
 -10.47594674 -10.46356358 -10.44086112 -10.40990323 -10.37481761
 -10.33766813 -10.30051865 -10.26749689 -10.24066671 -10.22209197
 -10.20970881 -10.20558109 -10.20970881 -10.22002811 -10.23447513
 -10.25098601 -10.27162461 -10.29432707 -10.31909339 -10.34385971
 -10.37275375 -10.40783937 -10.4470527  -10.49658534 -10.55437342
 -10.6224808  -10.70297134 -10.79378118 -10.89491031 -11.00429489
 -11.12193491 -11.24576651 -11.37166196 -11.49962128 -11.62345288]","[-1.85046223 -1.70723278 -1.5494728  -1.37510651 -1.18828549 -0.98693395
 -0.77727924 -0.55724559 -0.33098458 -0.10264777  0.12568903  0.35402584
  0.57613528  0.78994156  0.99544468  1.18849307  1.36908673  1.53307407
  1.6804551   1.8133056   1.92954979  2.03126346  2.12259818  2.19940238
  2.26790342  2.32810131  2.37792025  2.41736024  2.4443455   2.45887602
  2.45680023  2.44019392  2.4049055   2.35508657  2.29281289  2.22638764
  2.1578866   2.09768871  2.04994556  2.0229603   2.02088451  2.04579398
  2.0997645   2.17864449  2.28035816  2.40282972  2.54190759  2.69136441
  2.84912438  3.01311172  3.17917485  3.34523798  3.50714954  3.66490951
  3.81644212  3.95551999  4.08006734  4.1838568   4.26688836  4.32293467
  4.34784414  4.3353894   4.28557046  4.19423574  4.05930945  3.87871579
  3.65453057  3.38882956  3.08784013  2.75156229  2.39037498  2.01258136
  1.62648458  1.23831201  0.86051839  0.49725529  0.15682587 -0.16076987
 -0.44930456 -0.7087782  -0.94126658 -1.15092129 -1.33774231 -1.50588123
 -1.66156541 -1.80271908 -1.93556958 -2.06011693 -2.17428533 -2.27807479
 -2.3714853  -2.45036529 -2.51471475 -2.5624579  -2.59151895 -2.60397368
 -2.5998221  -2.58114    -2.55000317 -2.51263896 -2.47112318 -2.4296074
 -2.38809161 -2.35072741 -2.31959057 -2.29260531 -2.27184742 -2.25524111
 -2.24278637 -2.23240743 -2.21995269 -2.21164954 -2.1991948  -2.18881586
 -2.17636112 -2.16390639 -2.15145165 -2.13484534 -2.11616324 -2.09332956
 -2.06426851 -2.03105588 -1.9895401  -1.94179695 -1.88575064 -1.82347697
 -1.75497593 -1.6843991  -1.61174648 -1.53909386 -1.4726686  -1.41039493
 -1.35642441 -1.31490863 -1.281696   -1.2630139  -1.25886232 -1.26508969
 -1.28584758 -1.31906021]",-0.0337981637346659,2.697332299590357,4.84529,0.3424049999999994
027,1,1,csp,5a.png,1,1,28,48,28,1,1,331,pos_feedback_onset,12,"[ 4.12886829  3.71997248  3.3184221   2.92176868  2.52021831  2.1113225
  1.6901843   1.25435523  0.79893834  0.33127906 -0.14862261 -0.63831819
 -1.13046225 -1.62015783 -2.10250798 -2.57261573 -3.02558415 -3.45651626
 -3.86051511 -4.24002919 -4.58771305 -4.9035667  -5.18759013 -5.43733488
 -5.65524941 -5.84133373 -5.99313936 -6.11801174 -6.21595085 -6.28940519
 -6.33837475 -6.37020496 -6.38489583 -6.38734431 -6.3775504  -6.36041105
 -6.33592627 -6.30899301 -6.2771628  -6.24288411 -6.20860542 -6.17187825
 -6.13515108 -6.10087239 -6.06169675 -6.02496958 -5.98824241 -5.95151524
 -5.91233959 -5.87071547 -5.82664287 -5.78012179 -5.72625527 -5.66504333
 -5.58914051 -5.49609835 -5.37857141 -5.23655969 -5.06026928 -4.84970018
 -4.59750696 -4.30613809 -3.97559357 -3.61321884 -3.2190139  -2.80766961
 -2.38408293 -1.96294474 -1.55160045 -1.15984398 -0.79746925 -0.47182169
 -0.1829013   0.06439497  0.27251559  0.44390904  0.58347228  0.69610227
  0.78669595  0.86749572  0.94095006  1.0144044   1.09765264  1.19314328
  1.30332479  1.43309412  1.58489975  1.75384472  1.94237752  2.14560119
  2.36106724  2.58632721  2.81403565  3.03929562  3.26210711  3.47267621
  3.67100292  3.85463876  4.01868678  4.1606985   4.28067392  4.38106151
  4.45941281  4.51817628  4.56224888  4.59163061  4.61366691  4.63570322
  4.65773952  4.68956973  4.73364233  4.79730276  4.88055101  4.99073251
  5.12295032  5.28454986  5.47063418  5.68365176  5.91870564  6.17579582
  6.45247382  6.74873965  7.05969634  7.38289542  7.71588842  8.05867532
  8.40391071  8.74914609  9.091933    9.42982295  9.75547051 10.06887568
 10.36758999 10.64671647 10.9087036  11.14865444 11.36901745 11.56734416
 11.74363457 11.8954402  12.02520953 12.13049408 12.20884537 12.26271189
 12.28719666 12.28719666 12.26026341 12.21129385 12.13783951 12.04479735
 11.93706432 11.81464043 11.68242262 11.5404109  11.39350223 11.24414508
 11.09233945 10.93808534 10.78627971 10.6320256  10.48021997 10.32841434
 10.17660871 10.02725156  9.87544593  9.72608878  9.57673162  9.42982295
  9.28781123  9.15069647  9.02827257  8.91809107  8.82994586  8.76383696
  8.72710979  8.72221284  8.75159457  8.81280652  8.90829716  9.03806649
  9.19476907  9.37840491  9.5791801   9.79464616 10.01990613 10.25006305
 10.47777149 10.70058298 10.91604904 11.1192727  11.31025398 11.49144135
 11.65793784 11.81219195 11.95665215 12.09376691 12.22353624 12.34840861
 12.46838403 12.58591097 12.70588639 12.82831028 12.95563113 13.08784894
 13.22986066 13.38411477 13.55061126 13.73179863 13.92767686 14.13824596
 14.36105745 14.59611133 14.84095912 15.09070386 15.34044861 15.59019336
 15.83259267 16.06764655 16.29045804 16.50347561 16.70180232 16.88788665
 17.06417705 17.23067355 17.38737614 17.53918177 17.68609044 17.83055064
 17.9676654  18.10233169 18.22965254 18.344731   18.44511859 18.52836684
 18.59202727 18.63120291 18.64589378 18.63365139 18.60426966 18.5553001
 18.49408815 18.42797925 18.3667673  18.31534926 18.27862209 18.26393123
 18.27127666 18.30310687 18.35942187 18.4328762  18.52346988 18.62385748
 18.72669355 18.82952962 18.92257178 19.00582003 19.07192894 19.12089849
 19.15272871 19.16252262]","[-0.82093523 -0.79609604 -0.75406049 -0.69291787 -0.61648959 -0.52477566
 -0.42350819 -0.31268719 -0.19422336 -0.07384882  0.05034713  0.17263237
  0.29300691  0.40764932  0.51464891  0.61018426  0.69616607  0.76877293
  0.82609414  0.8700404   0.89870101  0.91398666  0.91780808  0.91016525
  0.89105818  0.86430828  0.83182626  0.79170142  0.74775516  0.69807678
  0.64457698  0.58534507  0.52420245  0.45923841  0.39236367  0.32166751
  0.25097136  0.17836449  0.10384692  0.02741864 -0.04709893 -0.1235272
 -0.19995548 -0.27447305 -0.34899062 -0.42159748 -0.49038293 -0.55343626
 -0.61266818 -0.66234656 -0.7005607  -0.72731059 -0.74068554 -0.74068554
 -0.72731059 -0.7024714  -0.6738108  -0.64323949 -0.62222171 -0.61648959
 -0.63559666 -0.68718575 -0.77698897 -0.91073846 -1.09034491 -1.31580833
 -1.58712871 -1.90048465 -2.24823331 -2.62464258 -3.02206962 -3.43287161
 -3.84749502 -4.26020771 -4.65954546 -5.04550826 -5.40663187 -5.744827
 -6.05627223 -6.33905686 -6.59127017 -6.81673359 -7.0135364  -7.18550003
 -7.32880305 -7.44917758 -7.54662364 -7.62114121 -7.67655171 -7.71667655
 -7.73960504 -7.74915857 -7.74915857 -7.74151574 -7.72431938 -7.69948019
 -7.66699817 -7.62687333 -7.57719495 -7.51605233 -7.44535617 -7.36319577
 -7.26766043 -7.16448225 -7.05557196 -6.94092954 -6.82628712 -6.71737683
 -6.61228795 -6.51866331 -6.4345922  -6.36389605 -6.30275342 -6.25116434
 -6.20530737 -6.16136111 -6.11741485 -6.06773647 -6.01041526 -5.94162981
 -5.86138012 -5.7715769  -5.67030943 -5.56713126 -5.46395308 -5.36650703
 -5.28243592 -5.21556118 -5.17161492 -5.15250785 -5.16015068 -5.1926327
 -5.25186461 -5.3321143  -5.42956036 -5.54229206 -5.6626666  -5.79068397
 -5.92061204 -6.0486294 ]",18.628987623177373,0.3349946930114903,4.08417,0.6606549999999993
027,1,1,csm,59b.png,1,1,72,145,71,1,1,644,neu_feedback_onset,13,"[-0.34427797 -0.32515142 -0.29752417 -0.25927107 -0.21889279 -0.17638933
 -0.13388588 -0.0935076  -0.05737966 -0.0233769   0.00850069  0.04037828
  0.07438104  0.11263415  0.15301243  0.19976623  0.25077038  0.30602486
  0.36340453  0.42078419  0.47391351  0.5206673   0.56104558  0.58654766
  0.60142387  0.59717352  0.57804697  0.53766869  0.47603868  0.39315694
  0.28902348  0.16576347  0.02125173 -0.1402614  -0.31452556 -0.49941558
 -0.68855595 -0.87982149 -1.06258634 -1.23685049 -1.39623844 -1.53862501
 -1.65763468 -1.75539263 -1.82977367 -1.87865264 -1.90627989 -1.91053023
 -1.89565402 -1.86165126 -1.81064712 -1.74689193 -1.67038572 -1.58325364
 -1.48974604 -1.38773775 -1.28360429 -1.17522049 -1.06258634 -0.94570184
 -0.824567   -0.69918181 -0.56529593 -0.42078419 -0.26777176 -0.09988312
  0.08075656  0.27839762  0.48666454  0.70980767  0.94570184  1.18797152
  1.4387419   1.69163745  1.94665817  2.19742854  2.4418234   2.67559239
  2.89661035  3.1027521   3.29189247  3.45978111  3.60429285  3.72330252
  3.81893529  3.88481564  3.92519392  3.93581979  3.92306875  3.88481564
  3.82743598  3.75305494  3.66804803  3.5766656   3.48740835  3.40452662
  3.33439592  3.2812666   3.25151419  3.24301349  3.2578897   3.29401764
  3.3513973   3.42577834  3.5150356   3.61066837  3.71267665  3.81468494
  3.91456806  4.01020083  4.09945808  4.18021464  4.25247051  4.31410052
  4.36722984  4.41185846  4.4479864   4.47561364  4.49686537  4.51386675
  4.52874296  4.54361917  4.55849538  4.57549676  4.59674849  4.62225056
  4.65200298  4.68600574  4.72425885  4.7667623   4.81564127  4.86664541
  4.92402508  4.98140474  5.0387844   5.09403889  5.14079269  5.17267028
  5.18754649  5.17267028  5.12379131  5.03665923  4.90277335  4.7200085
  4.48198916  4.19084051  3.84656253  3.45128042  3.01136967  2.53108065
  2.02316438  1.49187121  0.95207736  0.4122835  -0.1168845  -0.62905111
 -1.11784082 -1.57687812 -2.00403783 -2.40357029 -2.77547551 -3.12400383
 -3.45765593 -3.78068218 -4.09945808 -4.41823398 -4.73913505 -5.06428647
 -5.39368824 -5.72521517 -6.05461694 -6.37764318 -6.68791839 -6.98331739
 -7.25321432 -7.49973435 -7.71225162 -7.89076612 -8.03315269 -8.13941133
 -8.20529168 -8.23291892 -8.22441823 -8.17766444 -8.09903305 -7.99064924
 -7.85251302 -7.68887472 -7.50185953 -7.29996812 -7.08107534 -6.85368186
 -6.6177877  -6.37976836 -6.14174902 -5.90585485 -5.6763362  -5.45531824
 -5.24280098 -5.04303475 -4.85176921 -4.67537987 -4.50961641 -4.35660397
 -4.21634258 -4.08883222 -3.97619807 -3.87418978 -3.78493253 -3.71055148
 -3.65104665 -3.60854319 -3.58091595 -3.57454043 -3.58516629 -3.61916906
 -3.67229837 -3.74455425 -3.83806184 -3.95069599 -4.07608118 -4.21209223
 -4.35660397 -4.50324089 -4.64562746 -4.78376368 -4.90914887 -5.02390819
 -5.11954096 -5.20029752 -5.26192753 -5.30655616 -5.33630858 -5.35118478
 -5.35543513 -5.34905961 -5.3341834  -5.31505685 -5.29380512 -5.27042822
 -5.25130167 -5.23217511 -5.22154925 -5.21942408 -5.23004994 -5.25342684
 -5.29380512 -5.35330996 -5.43406652 -5.53182446 -5.65083413 -5.78897035
 -5.94198279 -6.10774625 -6.28626076 -6.46902561 -6.66029115 -6.85155669
 -7.04707257 -7.24258846]","[-0.5759396  -0.70376582 -0.81097491 -0.89138173 -0.94086285 -0.95735655
 -0.93880113 -0.88313488 -0.78829607 -0.6542847  -0.48110079 -0.27080604
 -0.02546216  0.25286913  0.56212612  0.89612367  1.24867664  1.6156616
  1.98676999  2.35994009  2.72692505  3.07947802  3.4196607   3.73922626
  4.03817468  4.31650597  4.57628184  4.8175023   5.04429076  5.25870893
  5.46694197  5.66692816  5.86691435  6.06690053  6.26482501  6.46274948
  6.66067395  6.85241329  7.03796748  7.21115139  7.37196503  7.51216153
  7.6317409   7.73070314  7.80492481  7.85646765  7.88739334  7.89770191
  7.89357848  7.87502307  7.84615908  7.80904824  7.76369055  7.71214772
  7.65648146  7.59463006  7.52865524  7.45443356  7.37608846  7.29361993
  7.20290454  7.10806573  7.00704178  6.89983269  6.78643846  6.66479738
  6.53490944  6.39471294  6.24420787  6.08545595  5.91227204  5.73084127
  5.54116365  5.34530089  5.14737642  4.94739023  4.75358919  4.56803499
  4.39278936  4.23403744  4.08971751  3.96601472  3.85880563  3.77015196
  3.69799199  3.63820231  3.58872119  3.54748693  3.50831437  3.47326525
  3.4340927   3.39285843  3.34543903  3.29183448  3.2320448   3.16400826
  3.0918483   3.01350319  2.93103466  2.8444427   2.75372732  2.65888851
  2.55992627  2.45271718  2.33932295  2.21562016  2.07954708  1.92904201
  1.76410495  1.57855076  1.37237943  1.14352926  0.88993853  0.61366895
  0.30853539 -0.02133873 -0.37801513 -0.75530865 -1.15528103 -1.56762368
 -1.98821319 -2.40880269 -2.82114534 -3.21287086 -3.57985582 -3.90972995
 -4.19630809 -4.43752854 -4.63132959 -4.77771123 -4.87873518 -4.94058658
 -4.96945056 -4.97357399 -4.959142   -4.93233972 -4.90141403 -4.8663649
 -4.83337749 -4.8045135 ]",3.7098608011901013,7.009464294734295,4.7055,0.5771900000000008
027,1,1,csp,44a.png,1,1,200,217,201,1,1,331,pos_feedback_onset,14,"[ 1.73759276  1.53981279  1.33139948  1.11447951  0.89117954  0.66575291
  0.44457961  0.23191297  0.02987966 -0.15514031 -0.31889362 -0.46350694
 -0.58685359 -0.68893357 -0.77612689 -0.85268688 -0.92286687 -0.99304686
 -1.06960685 -1.15892684 -1.26526016 -1.38860681 -1.52896679 -1.68421344
 -1.85009341 -2.02235339 -2.19036003 -2.34773335 -2.49021999 -2.60718664
 -2.69437997 -2.74967329 -2.76668662 -2.74967329 -2.69437997 -2.60505998
 -2.48596666 -2.33922668 -2.1733467  -1.99045339 -1.79905342 -1.60552678
 -1.41625347 -1.23974016 -1.07811352 -0.9398802  -0.82929355 -0.74848023
 -0.70382024 -0.69531357 -0.72083357 -0.78463356 -0.88033355 -1.00580686
 -1.15680018 -1.33118682 -1.51620679 -1.7118601  -1.90538674 -2.09466005
 -2.27330002 -2.4328     -2.56890665 -2.68161997 -2.76881329 -2.82623328
 -2.85813328 -2.86451328 -2.84537328 -2.80283995 -2.74329329 -2.6667333
 -2.57528665 -2.47108    -2.35836668 -2.23927336 -2.11592671 -1.99045339
 -1.86498008 -1.73950676 -1.61616011 -1.49281346 -1.36946681 -1.24612016
 -1.12064685 -0.98879353 -0.85268688 -0.71020024 -0.55920692 -0.40396028
 -0.2444603  -0.08283366  0.07666632  0.2297863   0.37439962  0.50625293
  0.62109292  0.71891957  0.79547956  0.85077288  0.88692621  0.90606621
  0.90819288  0.89968621  0.88054621  0.85715288  0.83375955  0.81461956
  0.80398622  0.80398622  0.81887289  0.85289955  0.90819288  0.98687953
  1.08683285  1.2101795   1.35691948  1.52492612  1.7099461   1.90985274
  2.12251938  2.33943935  2.55848598  2.77115262  2.97531259  3.1645859
  3.33259254  3.47933252  3.59629918  3.68561916  3.74729249  3.78131915
  3.78982582  3.77706582  3.74729249  3.70688583  3.66009917  3.61331251
  3.57077918  3.53675252  3.51335919  3.50272585  3.50697919  3.52399252
  3.55376585  3.59417251  3.6452125   3.70050583  3.76217915  3.82597914
  3.88765247  3.94932579  4.00674579  4.05565911  4.09819244  4.12796577
  4.14710577  4.1513591   4.1385991   4.11095244  4.06841911  4.00887245
  3.93443913  3.84724581  3.74941915  3.64308584  3.53037252  3.41340587
  3.29431255  3.17309257  3.05187258  2.9306526   2.80943262  2.6903393
  2.57337265  2.46065933  2.35432601  2.26287936  2.18631937  2.13527937
  2.11188604  2.12464604  2.1714327   2.25862602  2.38197267  2.53934599
  2.72223929  2.92639927  3.13693924  3.34960588  3.54951251  3.72815249
  3.8791458   3.99611245  4.07692578  4.12158577  4.13009244  4.11095244
  4.06841911  4.01099912  3.94932579  3.89403247  3.84937247  3.82810581
  3.83661248  3.8791458   3.95995913  4.07692578  4.23429909  4.42782573
  4.6511257   4.90207233  5.17215896  5.45713225  5.74848555  6.04196551
  6.32906547  6.60765876  6.87136539  7.12018536  7.34986533  7.5604053
  7.75180527  7.92193858  8.07505856  8.20903854  8.32387853  8.42170518
  8.50039184  8.5599385   8.60247182  8.62373849  8.62799182  8.61097849
  8.57482516  8.5216585   8.45147851  8.36853852  8.27071187  8.16437855
  8.04953857  7.93044525  7.80497193  7.67737195  7.54977197  7.42217199
  7.29669867  7.17335202  7.0542587   6.93941872  6.83095873  6.72675208
  6.63105209  6.53747877  6.44815879  6.3588388   6.26951881  6.17169216
  6.0674855   5.95264552]","[-2.26628759e+00 -2.04484821e+00 -1.81570660e+00 -1.57693719e+00
 -1.32853997e+00 -1.07051496e+00 -8.06713272e-01 -5.39060462e-01
 -2.69482092e-01 -3.75484158e-03  2.56195729e-01  5.06518501e-01
  7.43362355e-01  9.60950610e-01  1.16120883e+00  1.34221145e+00
  1.50010735e+00  1.63874765e+00  1.75620680e+00  1.85633591e+00
  1.93720942e+00  2.00267845e+00  2.05274301e+00  2.08740308e+00
  2.10858424e+00  2.11628648e+00  2.11243536e+00  2.09895644e+00
  2.07392417e+00  2.04504077e+00  2.01038069e+00  1.97379506e+00
  1.93913498e+00  1.90447490e+00  1.87559151e+00  1.84863367e+00
  1.82552695e+00  1.80434580e+00  1.78316464e+00  1.76005792e+00
  1.73117452e+00  1.69458889e+00  1.65030101e+00  1.59638534e+00
  1.53091631e+00  1.45774503e+00  1.37302040e+00  1.28251909e+00
  1.18431555e+00  1.08033532e+00  9.74429529e-01  8.66598181e-01
  7.58766833e-01  6.50935485e-01  5.46955257e-01  4.46826148e-01
  3.50548159e-01  2.61972409e-01  1.79173338e-01  1.02150947e-01
  2.89796748e-02 -4.03404775e-02 -1.11586190e-01 -1.88608581e-01
 -2.75258771e-01 -3.79239000e-01 -5.04400385e-01 -6.56519608e-01
 -8.39447788e-01 -1.05703604e+00 -1.30735882e+00 -1.58849054e+00
 -1.89658011e+00 -2.22585083e+00 -2.57052603e+00 -2.91712680e+00
 -3.26180200e+00 -3.59299828e+00 -3.90493896e+00 -4.18992181e+00
 -4.44409570e+00 -4.66553508e+00 -4.85616550e+00 -5.01791252e+00
 -5.15270170e+00 -5.26823529e+00 -5.36836440e+00 -5.45886571e+00
 -5.54359034e+00 -5.63024053e+00 -5.71689072e+00 -5.80739203e+00
 -5.89981890e+00 -5.99417133e+00 -6.08659820e+00 -6.17709951e+00
 -6.25989858e+00 -6.33114429e+00 -6.39276221e+00 -6.43897564e+00
 -6.47171016e+00 -6.49096575e+00 -6.49481687e+00 -6.48711464e+00
 -6.47171016e+00 -6.44860344e+00 -6.42164560e+00 -6.39468777e+00
 -6.36965549e+00 -6.35232545e+00 -6.34462321e+00 -6.34847433e+00
 -6.36772993e+00 -6.40239000e+00 -6.45438012e+00 -6.52177471e+00
 -6.60649934e+00 -6.70277733e+00 -6.81253424e+00 -6.92806783e+00
 -7.04937809e+00 -7.17068836e+00 -7.28814751e+00 -7.39982997e+00
 -7.49995908e+00 -7.59238595e+00 -7.67133390e+00 -7.74065405e+00
 -7.80034641e+00 -7.85426208e+00 -7.90240108e+00 -7.95246563e+00
 -8.00445575e+00 -8.06414810e+00 -8.13539381e+00 -8.22204400e+00
 -8.32409867e+00 -8.44540894e+00 -8.58790036e+00 -8.74964738e+00]",7.5823631304104,1.4149013295027362,4.702194999999999,0.032374999999998266
027,2,1,csp,28a.png,1,1,212,214,212,1,1,288,pos_feedback_onset,1,"[-3.35557666e+00 -3.12125447e+00 -2.83301745e+00 -2.50123382e+00
 -2.13212453e+00 -1.73191053e+00 -1.30888641e+00 -8.75494047e-01
 -4.35880740e-01 -2.48837720e-03  4.18462100e-01  8.16602453e-01
  1.18778539e+00  1.52786360e+00  1.83061616e+00  2.09811671e+00
  2.33036525e+00  2.53150908e+00  2.70362183e+00  2.85292447e+00
  2.98771156e+00  3.11005678e+00  3.22825469e+00  3.34645261e+00
  3.46672418e+00  3.59529033e+00  3.73007743e+00  3.87315912e+00
  4.02660905e+00  4.18835357e+00  4.35839267e+00  4.53050543e+00
  4.70676548e+00  4.88095189e+00  5.05099100e+00  5.21480916e+00
  5.36825909e+00  5.50926713e+00  5.63990693e+00  5.75603120e+00
  5.85971359e+00  5.95095409e+00  6.02975270e+00  6.10025672e+00
  6.16246615e+00  6.22260193e+00  6.27859042e+00  6.33665255e+00
  6.39886198e+00  6.46521871e+00  6.53779638e+00  6.61659499e+00
  6.70576184e+00  6.80114963e+00  6.90483201e+00  7.01473534e+00
  7.13085961e+00  7.25113117e+00  7.37347639e+00  7.49789525e+00
  7.62438776e+00  7.74880662e+00  7.87529912e+00  7.99764434e+00
  8.11998955e+00  8.24026111e+00  8.35638538e+00  8.46836236e+00
  8.57619204e+00  8.67572712e+00  8.76696762e+00  8.84161894e+00
  8.89968107e+00  8.93908038e+00  8.95152226e+00  8.94115403e+00
  8.90590202e+00  8.84991353e+00  8.77940951e+00  8.69853725e+00
  8.62181229e+00  8.55545556e+00  8.51190896e+00  8.49739342e+00
  8.52227720e+00  8.58656027e+00  8.69231631e+00  8.83539800e+00
  9.00958440e+00  9.20658093e+00  9.41394570e+00  9.62545776e+00
  9.83074888e+00  1.00256718e+01  1.02040055e+01  1.03678236e+01
  1.05212736e+01  1.06685025e+01  1.08198788e+01  1.09816233e+01
  1.11599570e+01  1.13611009e+01  1.15850548e+01  1.18297452e+01
  1.20910248e+01  1.23564517e+01  1.26198050e+01  1.28686427e+01
  1.30925967e+01  1.32833722e+01  1.34347485e+01  1.35467255e+01
  1.36193032e+01  1.36587025e+01  1.36669971e+01  1.36587025e+01
  1.36379660e+01  1.36213768e+01  1.36130822e+01  1.36234505e+01
  1.36607761e+01  1.37292065e+01  1.38349625e+01  1.39780442e+01
  1.41625989e+01  1.43824055e+01  1.46353905e+01  1.49174066e+01
  1.52201592e+01  1.55312063e+01  1.58422535e+01  1.61429324e+01
  1.64166539e+01  1.66571970e+01  1.68562672e+01  1.70055698e+01
  1.71030313e+01  1.71486515e+01  1.71486515e+01  1.71071786e+01
  1.70366745e+01  1.69433604e+01  1.68396780e+01  1.67339220e+01
  1.66343869e+01  1.65452200e+01  1.64705687e+01  1.64062856e+01
  1.63523708e+01  1.63005296e+01  1.62466148e+01  1.61802580e+01
  1.60973121e+01  1.59894825e+01  1.58526217e+01  1.56867299e+01
  1.54918070e+01  1.52699267e+01  1.50314572e+01  1.47784722e+01
  1.45234136e+01  1.42704285e+01  1.40257381e+01  1.37955632e+01
  1.35799039e+01  1.33766864e+01  1.31838372e+01  1.29951352e+01
  1.27981387e+01  1.25887003e+01  1.23543781e+01  1.20930985e+01
  1.17924196e+01  1.14564887e+01  1.10790848e+01  1.06664289e+01
  1.02205946e+01  9.75195027e+00  9.26879036e+00  8.78148316e+00
  8.30454419e+00  7.84834170e+00  7.42531758e+00  7.04584006e+00
  6.71613008e+00  6.44240858e+00  6.23089652e+00  6.07744659e+00
  5.98205880e+00  5.93643855e+00  5.93229126e+00  5.96132232e+00
  6.00694257e+00  6.06293106e+00  6.11269860e+00  6.15002426e+00
  6.16453980e+00  6.14795061e+00  6.10025672e+00  6.01938446e+00
  5.90326019e+00  5.76017850e+00  5.59221304e+00  5.40558475e+00
  5.20858822e+00  5.00951804e+00  4.81252151e+00  4.62589322e+00
  4.45170682e+00  4.29618324e+00  4.15724885e+00  4.03905093e+00
  3.93536855e+00  3.84205440e+00  3.75910850e+00  3.67823624e+00
  3.59736398e+00  3.51441807e+00  3.42525122e+00  3.33193708e+00
  3.23654928e+00  3.14323514e+00  3.06028923e+00  2.99600615e+00
  2.95453320e+00  2.95038591e+00  2.98563792e+00  3.07065747e+00
  3.20544457e+00  3.38999921e+00  3.62639505e+00  3.90426383e+00
  4.21945828e+00  4.56161015e+00  4.91620390e+00  5.27079765e+00
  5.61502316e+00  5.93229126e+00  6.21430734e+00  6.45277682e+00
  6.64355241e+00  6.78456045e+00  6.87787459e+00  6.92971579e+00
  6.94837861e+00  6.94215767e+00  6.91934755e+00  6.89239013e+00
  6.86543271e+00  6.84884353e+00  6.84054894e+00  6.84469623e+00
  6.85713812e+00  6.87372730e+00  6.89239013e+00  6.90275837e+00
  6.90068472e+00  6.88202189e+00  6.84469623e+00  6.78456045e+00]","[-0.73961356 -0.63698776 -0.54674782 -0.46712435 -0.39811735 -0.33795739
 -0.28133626 -0.22648454 -0.16809399 -0.10616463 -0.03538821  0.04423526
  0.13270578  0.22825395  0.32911034  0.43527497  0.54143959  0.64583481
  0.7466912   0.84046996  0.92540166  0.99971689  1.06164626  1.10942034
  1.14303914  1.15896383  1.15896383  1.13773091  1.09526506  1.02979687
  0.93778753  0.81923703  0.67414537  0.50782079  0.32380211  0.12739755
 -0.07254583 -0.26895039 -0.45473848 -0.62283247 -0.77146295 -0.89709109
 -0.99971689 -1.08110977 -1.14657796 -1.19612145 -1.23681789 -1.27043669
 -1.29874726 -1.32882723 -1.36244603 -1.40137306 -1.45091655 -1.51461533
 -1.59777762 -1.70217284 -1.83310921 -1.99412556 -2.1887607  -2.41701465
 -2.67888739 -2.97437894 -3.29995046 -3.65029372 -4.02186991 -4.40760139
 -4.79864109 -5.19145021 -5.57718168 -5.95229669 -6.31148701 -6.65298323
 -6.97501592 -7.27758511 -7.56069078 -7.82610234 -8.07205039 -8.30030434
 -8.51086418 -8.70196051 -8.87713214 -9.03284026 -9.16731545 -9.28409654
 -9.38141411 -9.45749876 -9.51588931 -9.55481634 -9.57781867 -9.5831269
 -9.57781867 -9.56012457 -9.531814   -9.4981952  -9.45926817 -9.41680232
 -9.37079765 -9.32656239 -9.28055772 -9.23632246 -9.19562602 -9.15669899
 -9.12308019 -9.09476962 -9.0735367  -9.057612   -9.04699554 -9.04168731
 -9.04168731 -9.04699554 -9.05584259 -9.06999788 -9.08946139 -9.11423314
 -9.14608253 -9.18324014 -9.23101423 -9.28409654 -9.3460259  -9.4132635
 -9.48403992 -9.55658575 -9.62913157 -9.69813858 -9.76006795 -9.81668908
 -9.86269375 -9.89808196 -9.92285371 -9.93523958 -9.93347017 -9.91754547
 -9.8874655  -9.84323024 -9.78307028 -9.71052445 -9.62382334 -9.52650577
 -9.41680232 -9.30179064]",15.753656877667229,0.26709250477740526,4.82242,0.5823400000000012
027,2,1,csm,9b.png,1,1,316,314,316,1,1,320,neu_feedback_onset,2,"[ 1.37277213  1.32714298  1.26630411  1.1883543   1.09139235  0.97161581
  0.82902471  0.66552023  0.4811024   0.2757712   0.0571315  -0.17291548
 -0.41056733 -0.64821918 -0.8820686  -1.10451073 -1.31364435 -1.50566705
 -1.67297395 -1.81556506 -1.92963794 -2.01709382 -2.0779327  -2.11405578
 -2.12926549 -2.12926549 -2.11975942 -2.10835213 -2.09884606 -2.10074727
 -2.11595699 -2.14827764 -2.19770923 -2.26235053 -2.34030033 -2.425855
 -2.51331088 -2.59506312 -2.66921049 -2.73004937 -2.77567852 -2.80799917
 -2.8251101  -2.83461618 -2.83841861 -2.84412225 -2.85743076 -2.87834412
 -2.9144672  -2.96770121 -3.03614494 -3.11789718 -3.21485913 -3.32132716
 -3.43159762 -3.54567051 -3.65594096 -3.75670535 -3.84606244 -3.9183086
 -3.96774019 -3.99435719 -3.99625841 -3.9696414  -3.91640739 -3.83655637
 -3.73389077 -3.60841059 -3.46201706 -3.29471016 -3.10839111 -2.90496112
 -2.682519   -2.44106472 -2.18440072 -1.91062579 -1.62354236 -1.32505164
 -1.01515363 -0.69765076 -0.37444425 -0.05123774  0.27386999  0.59517529
  0.91077694  1.21497131  1.50395595  1.77582967  2.02298759  2.24542972
  2.43935362  2.6028581   2.73404192  2.83860873  2.91655854  2.97549619
  3.01732292  3.05154478  3.08386544  3.1180873   3.15801281  3.2074444
  3.26638205  3.336727    3.41467681  3.50213269  3.593391    3.68845174
  3.7873149   3.88617807  3.98694246  4.08960806  4.19417487  4.3006429
  4.41091335  4.52498624  4.64286156  4.76263809  4.88621705  5.00979601
  5.12957254  5.24364543  5.34440981  5.42996448  5.49080335  5.52692643
  5.53263007  5.50411185  5.43947055  5.34060738  5.20942356  5.04591909
  4.85960004  4.65426885  4.43562915  4.20938459  3.98314003  3.7606979
  3.54586063  3.34243065  3.15421038  2.97929862  2.81959658  2.67510426
  2.54772287  2.4355512   2.33858924  2.25873822  2.19599813  2.14846776
  2.11614711  2.10093739  2.09713496  2.10664104  2.12185076  2.1408629
  2.16177627  2.17508477  2.18078841  2.17128234  2.14276412  2.09333253
  2.02108637  1.92412442  1.80434789  1.66175678  1.50205474  1.33094541
  1.15033     0.97161581  0.79860527  0.64080444  0.50201576  0.38794288
  0.30238821  0.25105541  0.23204326  0.24535177  0.29098092  0.3651283
  0.46399147  0.58186678  0.7130506   0.85564171  1.00013404  1.14082393
  1.27581018  1.39748792  1.50395595  1.58951062  1.65225071  1.690275
  1.7035835   1.69597865  1.66555921  1.61802884  1.55718997  1.49064745
  1.42220372  1.35946363  1.30622962  1.27010653  1.25109439  1.25489682
  1.28151382  1.33094541  1.40129035  1.48874623  1.58951062  1.69978108
  1.81575518  1.93363049  2.04770338  2.15607262  2.25493579  2.34429289
  2.42414391  2.49258764  2.55342651  2.60475931  2.65038847  2.69221519
  2.7321407   2.77206621  2.81579415  2.86332452  2.91465732  2.97169376
  3.03633507  3.10668001  3.18653103  3.27588813  3.37285008  3.47551568
  3.58578614  3.69795781  3.81012948  3.9146963   4.0059546   4.08010198
  4.12953357  4.1466445   4.12953357  4.07249712  3.97743638  3.84435135
  3.67514323  3.4774169   3.2587772   3.02492778  2.78917714  2.55722894
  2.34049046  2.14466533  1.97735843  1.8442734   1.74541023  1.68076893
  1.64844828  1.64654706]","[-1.52987599 -1.4712151  -1.39691131 -1.30109852 -1.17986602 -1.03516916
 -0.86505258 -0.66951628 -0.45442636 -0.22173816  0.02268221  0.27296867
  0.51934441  0.75789869  0.98472079  1.19003391  1.37579339  1.53613315
  1.67496392  1.79033034  1.88614312  1.96631301  2.03279535  2.09145624
  2.1462064   2.1990012   2.24984064  2.30263544  2.35543024  2.40235895
  2.44537694  2.47666274  2.49426101  2.49230565  2.46884129  2.41995722
  2.34760879  2.251796    2.13251886  1.99368809  1.83921441  1.6710532
  1.49311517  1.30931105  1.1215962   0.93192599  0.74225578  0.5564963
  0.37464755  0.2025756   0.03832511 -0.11223783 -0.24715788 -0.36839038
 -0.47397998 -0.56392668 -0.64409656 -0.71644499 -0.78879342 -0.86700794
 -0.95695464 -1.06841033 -1.2072411  -1.37735768 -1.57876007 -1.81731435
 -2.08519908 -2.38045888 -2.69722769 -3.02572867 -3.35814037 -3.68468599
 -3.99949943 -4.29084851 -4.55482251 -4.78946607 -4.98891309 -5.15316358
 -5.28221754 -5.37998569 -5.45037875 -5.49339674 -5.51686109 -5.52272718
 -5.51490573 -5.49926283 -5.47384311 -5.44451266 -5.40931613 -5.37020887
 -5.32328016 -5.27048536 -5.20791375 -5.13556531 -5.04952934 -4.94980583
 -4.83835014 -4.70929619 -4.56851005 -4.41599174 -4.25369661 -4.08358003
 -3.91150809 -3.73748079 -3.56931957 -3.40702445 -3.2564615  -3.11763073
 -2.9924875  -2.88298717 -2.78717438 -2.7070045  -2.6385668  -2.58381663
 -2.53884329 -2.50755748 -2.48800385 -2.48213776 -2.49191457 -2.51733429
 -2.56035228 -2.62292389 -2.70113841 -2.79499584 -2.9025408  -3.01790721
 -3.13913972 -3.26428295 -3.38747082 -3.50479259 -3.61820365 -3.72574861
 -3.82742749 -3.92128491 -4.00927624 -4.08944612 -4.16570528 -4.23414298
 -4.29475924 -4.34755404]",4.335102413687215,1.6288173573660685,5.259795,-0.026140000000001606
027,2,1,csp,56a.png,1,1,8,55,9,1,0,290,neg_feedback_onset,3,"[ 0.85695383  0.78425141  0.70531735  0.62222887  0.53498596  0.44566585
  0.35426851  0.25871676  0.16316501  0.06553604 -0.03417014 -0.13595353
 -0.23565971 -0.3374431  -0.43714928 -0.53685545 -0.63240721 -0.72588175
 -0.81520187 -0.90036756 -0.97722441 -1.04784962 -1.11016598 -1.1662507
 -1.21610379 -1.25972525 -1.30542391 -1.35319979 -1.40928451 -1.47990972
 -1.57130705 -1.68970814 -1.83926741 -2.01998486 -2.24016933 -2.4935892
 -2.78024447 -3.0959807  -3.43664347 -3.79184673 -4.15535884 -4.51887095
 -4.87615142 -5.22096862 -5.54709092 -5.85244109 -6.1307875  -6.38628458
 -6.61893233 -6.82873075 -7.01983426 -7.19432007 -7.3542654  -7.50382467
 -7.64507509 -7.78009387 -7.90888102 -8.03143653 -8.1477604  -8.25369822
 -8.35132718 -8.43649288 -8.50711809 -8.55697118 -8.58605214 -8.59228378
 -8.57358887 -8.52996742 -8.45934221 -8.36794488 -8.251621   -8.11867943
 -7.97119738 -7.80917484 -7.63884345 -7.46020321 -7.27740855 -7.09045947
 -6.90143317 -6.70825245 -6.51507173 -6.31773659 -6.11832423 -5.91475745
 -5.70911346 -5.49516062 -5.27913056 -5.05479166 -4.82629834 -4.59365059
 -4.35684841 -4.11796903 -3.88324407 -3.65475074 -3.43248905 -3.22684506
 -3.03574155 -2.86333295 -2.71169647 -2.58083211 -2.47073987 -2.38141975
 -2.31079454 -2.25263261 -2.20901115 -2.17785297 -2.15500364 -2.14046316
 -2.13838594 -2.148772   -2.17162134 -2.21316558 -2.27548194 -2.36064763
 -2.47281708 -2.60991308 -2.77401283 -2.9588847  -3.1645287  -3.38263596
 -3.60905207 -3.83546819 -4.05357545 -4.25714223 -4.44201411 -4.60195943
 -4.73490101 -4.84083882 -4.92185009 -4.98001203 -5.01740184 -5.04025118
 -5.05479166 -5.0610233  -5.06517772 -5.06933215 -5.07348657 -5.07556378
 -5.07971821 -5.07764099 -5.07140936 -5.05686887 -5.03194233 -4.99662972
 -4.94885385 -4.89069191 -4.82422112 -4.7515187  -4.67673907 -4.60611386
 -4.5437975  -4.49809883 -4.4752495  -4.48148114 -4.52094816 -4.59988222
 -4.72243773 -4.89069191 -5.10256754 -5.35806462 -5.65095152 -5.97915102
 -6.33019986 -6.69578918 -7.06968735 -7.43735388 -7.78840272 -8.1124478
 -8.40118027 -8.64213687 -8.83324038 -8.96410474 -9.03265273 -9.03680716
 -8.9744908  -8.84985807 -8.66706341 -8.42818403 -8.14360598 -7.8195609
 -7.46435764 -7.08630504 -6.69578918 -6.29904168 -5.90229418 -5.51593274
 -5.14203457 -4.78475409 -4.45032295 -4.13874115 -3.85000867 -3.58620274
 -3.34732336 -3.1312933  -2.93395816 -2.75531792 -2.59121817 -2.43542727
 -2.28794521 -2.14254037 -1.99505831 -1.84134462 -1.67932208 -1.50691348
 -1.32204161 -1.12262925 -0.91283083 -0.69056915 -0.45999861 -0.22527365
  0.01152853  0.24417628  0.4726696   0.69285408  0.90057528  1.09791043
  1.2827823   1.45726811  1.61929065  1.77092713  1.91217755  2.04719633
  2.16975185  2.28399851  2.38785911  2.47925644  2.55611329  2.61635244
  2.65581947  2.67659159  2.67451437  2.64958783  2.59973474  2.52703232
  2.42940335  2.31100227  2.17182906  2.01396094  1.83947513  1.65252605
  1.45726811  1.25162412  1.0418257   0.82995007  0.61807445  0.40827603
  0.20678646  0.01360574 -0.16711171 -0.33328867 -0.47869352 -0.60332624
 -0.70095521 -0.77158042 -0.81104744 -0.82351072 -0.80481581 -0.75703993
 -0.6822603  -0.58463133]","[ -2.88664127  -2.48473633  -2.1074378   -1.75474571  -1.4246095
  -1.11907972  -0.82995422  -0.55928354  -0.30091608  -0.05075075
   0.19326297   0.43522615   0.67923987   0.92530412   1.17957052
   1.44408959   1.72091187   2.01003737   2.30941555   2.62109693
   2.94098046   3.26086399   3.57664645   3.8801257    4.16720066
   4.4296692    4.66343024   4.86848378   5.04482983   5.19041785
   5.31139944   5.41187568   5.49389709   5.56156476   5.61897976
   5.67024314   5.71535492   5.75841617   5.79942688   5.84043758
   5.87939776   5.91835793   5.95526757   5.99422774   6.03318792
   6.07009755   6.10905773   6.1480179    6.18697807   6.22388771
   6.26284789   6.30180806   6.3387177    6.37767787   6.41663804
   6.45559822   6.49250786   6.53146803   6.5704282    6.60733784
   6.64629801   6.68525819   6.72216783   6.761128     6.80008817
   6.83904835   6.87595798   6.91491816   6.95387833   6.9928385
   7.02974814   7.06870832   7.10766849   7.1486792    7.18763937
   7.22659955   7.26555972   7.30041882   7.33117685   7.35373274
   7.35988435   7.34348007   7.29426722   7.19584151   7.03795028
   6.80213871   6.47815411   6.0495922    5.50825084   4.85413003
   4.08312871   3.20549954   2.2314952    1.17957052   0.07023084
  -1.07601848  -2.23252047  -3.38082032  -4.4963116   -5.5666911
  -6.57555454  -7.51469978  -8.3779752   -9.16333027  -9.870765
 -10.50438046 -11.07032824 -11.57475996 -12.02587776 -12.4277827
 -12.78662641 -13.11061101 -13.40383758 -13.66630611 -13.90211769
 -14.11332284 -14.29992157 -14.45986333 -14.59519867 -14.70182651
 -14.77974686 -14.82690918 -14.84331346 -14.82690918 -14.77974686
 -14.69977598 -14.5910976  -14.45371173 -14.29376996 -14.11127231
 -13.91237037 -13.69911468 -13.47355578 -13.24184528 -13.00398317
 -12.76201998 -12.51800626 -12.27194201 -12.02587776 -11.7798135 ]",1.540979758607208,5.003819122268315,4.814144999999999,-0.9537499999999994
027,2,1,csm,32b.png,1,0,168,99,168,1,1,389,neu_feedback_onset,4,"[-0.43602781 -0.29945986 -0.17872588 -0.07184662  0.01919868  0.09243077
  0.14784965  0.18545532  0.20722702  0.21316475  0.20326853  0.18347607
  0.14982889  0.11024398  0.06274209  0.0112817  -0.04809567 -0.11143153
 -0.18070513 -0.25987495 -0.34696176 -0.44592404 -0.55874104 -0.68145427
 -0.81802222 -0.96646564 -1.12282605 -1.28710343 -1.45336007 -1.62159594
 -1.78983182 -1.95410921 -2.11244886 -2.26485077 -2.40933571 -2.54392441
 -2.66663764 -2.77945464 -2.87643767 -2.96154524 -3.03081883 -3.08425847
 -3.12582262 -3.15155282 -3.16738678 -3.17530376 -3.17530376 -3.17134527
 -3.16936603 -3.17134527 -3.17926226 -3.19509622 -3.22280566 -3.26041133
 -3.30791322 -3.36531135 -3.42864721 -3.49990005 -3.57313214 -3.65032272
 -3.7275133  -3.80470388 -3.88189445 -3.95512654 -4.02440014 -4.09169449
 -4.15107186 -4.20253225 -4.24409641 -4.27180584 -4.28566056 -4.28368132
 -4.26190962 -4.22430395 -4.16690583 -4.09565298 -4.00856618 -3.90960389
 -3.80470388 -3.69386612 -3.58302836 -3.47416985 -3.37322833 -3.28218303
 -3.20697169 -3.14561508 -3.10800941 -3.09217545 -3.10009243 -3.13571885
 -3.19905471 -3.28614152 -3.39697928 -3.52563024 -3.66813593 -3.82053784
 -3.974919   -4.12336242 -4.26586811 -4.39451907 -4.50931532 -4.61025685
 -4.69734365 -4.77057574 -4.8339116  -4.88933048 -4.93683238 -4.97443804
 -5.00214748 -5.01798145 -5.0160022  -4.99818899 -4.95464559 -4.88735123
 -4.79432669 -4.67161346 -4.51921155 -4.34305869 -4.13919639 -3.91554163
 -3.67407366 -3.41677173 -3.14759433 -2.87049994 -2.5914263  -2.31037342
 -2.03327904 -1.75816389 -1.49294498 -1.23564305 -0.9862581  -0.74676938
 -0.51717688 -0.29550137 -0.08174284  0.12607795  0.33389874  0.53776104
  0.74360258  0.95142337  1.1651819   1.38091968  1.60259519  1.82624994
  2.05386319  2.28147644  2.50711044  2.72878595  2.94254448  3.14442753
  3.33245587  3.50267099  3.65309366  3.78174463  3.89060314  3.9757107
  4.0410258   4.08456921  4.10832015  4.11425789  4.10238242  4.07071449
  4.01529561  3.93810503  3.83122577  3.69267857  3.51652571  3.30474643
  3.05536148  2.77035011  2.45367081  2.11126131  1.7549971   1.39279515
  1.03851018  0.70005918  0.38733837  0.10628549 -0.13716172 -0.34300327
 -0.51321839 -0.64978634 -0.75864485 -0.84969015 -0.92688073 -0.99615433
 -1.05949019 -1.12282605 -1.18022417 -1.2336638  -1.27720721 -1.30689589
 -1.31679212 -1.30095815 -1.25741475 -1.18220341 -1.07334491 -0.93083922
 -0.75864485 -0.55874104 -0.33310704 -0.08768058  0.1716006   0.43681951
  0.70401767  0.96725734  1.21664229  1.44821403  1.65801406  1.84208391
  1.99646507  2.1191783   2.2102236   2.27355946  2.30720663  2.31512361
  2.29928965  2.26168398  2.20230661  2.12313679  2.02219526  1.90344052
  1.76291408  1.60259519  1.42446308  1.22455927  1.01080074  0.78120825
  0.53974028  0.29233458  0.04097038 -0.21039381 -0.45977876 -0.69728824
 -0.92490148 -1.13470152 -1.32668835 -1.49492422 -1.63742991 -1.7542054
 -1.8452507  -1.90858656 -1.94619223 -1.96598468 -1.96994318 -1.96202619
 -1.95212997 -1.94619223 -1.95015072 -1.96796393 -2.00359035 -2.06098847
 -2.13817905 -2.23516209 -2.34995834 -2.47465081 -2.60726027 -2.73591123
 -2.85862446 -2.96550373]","[-0.6100062  -0.60812897 -0.60249728 -0.59123389 -0.57246158 -0.54054866
 -0.49549511 -0.43542372 -0.36033449 -0.26647294 -0.15759354 -0.03181906
  0.10709603  0.25915174  0.41871637  0.58203546  0.74535456  0.90491919
  1.0569749   1.19776722  1.32166447  1.42866663  1.51877372  1.59010849
  1.64454819  1.68209281  1.70649681  1.71963743  1.72339189  1.72151466
  1.71212851  1.70086512  1.68397004  1.66707496  1.64454819  1.62014419
  1.59198573  1.5600728   1.52440541  1.48686079  1.44368448  1.39863094
  1.35170016  1.30289216  1.25408415  1.20339891  1.15083645  1.10015121
  1.04758874  0.99690351  0.94621827  0.89553304  0.8448478   0.79228533
  0.73784563  0.67777424  0.61207116  0.53698192  0.44875206  0.34362713
  0.21972989  0.0751831  -0.09376769 -0.28336802 -0.49361788 -0.72076283
 -0.96480286 -1.21822904 -1.48104138 -1.74573094 -2.01417497 -2.28074177
 -2.54543134 -2.8101209  -3.07105601 -3.33011388 -3.58729453 -3.84072071
 -4.09226966 -4.33818691 -4.57847248 -4.80749466 -5.02900791 -5.23738055
 -5.4344898  -5.61658121 -5.78740922 -5.94509663 -6.09339787 -6.23043573
 -6.3618419  -6.48573915 -6.60212747 -6.71476132 -6.82364072 -6.92501119
 -7.01887274 -7.1071026  -7.18406907 -7.25352661 -7.31172077 -7.35865155
 -7.39431894 -7.42060017 -7.43749525 -7.4468814  -7.45063587 -7.4525131
 -7.4525131  -7.45063587 -7.45063587 -7.4525131  -7.45439033 -7.45814479
 -7.46189925 -7.46565371 -7.46753094 -7.46940817 -7.46940817 -7.46753094
 -7.46377648 -7.46002202 -7.45814479 -7.45626756 -7.45814479 -7.46189925
 -7.47128541 -7.48442602 -7.49944387 -7.51633895 -7.53511126 -7.55012911
 -7.56514695 -7.57265588 -7.57453311 -7.57077865 -7.55951526 -7.54262018
 -7.52197064 -7.5013211 ]",2.67935429090556,1.1727531187845863,5.05243,0.1830400000000001
027,2,1,csp,29a.png,1,1,144,258,143,1,1,396,pos_feedback_onset,5,"[ 0.72125941  0.55053495  0.38803818  0.23171217  0.08567077 -0.05008603
 -0.17144438 -0.27429044 -0.35656729 -0.41210416 -0.43884413 -0.43678721
 -0.40181955 -0.33599807 -0.23932278 -0.11385059  0.03630466  0.20908604
  0.40037971  0.60812875  0.82616239  1.05242372  1.28691274  1.52345867
  1.76411845  2.00477823  2.24543801  2.48404086  2.7205868   2.95096197
  3.1772233   3.39731387  3.60711983  3.8086981   3.99999177  4.17894391
  4.34555453  4.50188054  4.64586502  4.7795649   4.90092325  5.01199699
  5.11072921  5.19917682  5.2752829   5.33904746  5.38635665  5.41926739
  5.43160891  5.42543815  5.39869817  5.35138899  5.28762443  5.20534758
  5.11278613  5.00994007  4.90503709  4.80219103  4.70757266  4.62323889
  4.55330357  4.50599438  4.47719749  4.47514056  4.49570978  4.54096204
  4.61089736  4.70757266  4.82687409  4.97085857  5.13541226  5.32053517
  5.52622729  5.74426093  5.9746361   6.20912512  6.44567106  6.67604623
  6.89613679  7.09565815  7.27461029  7.42887938  7.55640849  7.65925455
  7.73947448  7.80529595  7.86288975  7.92048354  7.98836194  8.07475263
  8.18376945  8.32569701  8.49847839  8.70211359  8.93454568  9.18960391
  9.45906058  9.73468802 10.00620162 10.26743061 10.51014731 10.72818095
 10.91947462 11.07991447 11.20950051 11.30823272 11.37816804 11.42136339
 11.43987568 11.43576184 11.41107878 11.36994036 11.31440349 11.24446817
 11.16219132 11.07374371 10.97912534 10.88450696 10.79194551 10.70555482
 10.63356258 10.57802571 10.54100112 10.52660268 10.53483036 10.56157034
 10.6068226  10.66441639 10.72818095 10.78783167 10.84131162 10.88039312
 10.89890541 10.89067772 10.85571006 10.79194551 10.70144098 10.58008263
 10.43404122 10.26125984 10.06996617  9.85810329  9.62978504  9.38706834
  9.13406704  8.87078113  8.59926753  8.32158317  8.03772805  7.74975908
  7.45561935  7.1594227   6.85911221  6.55468788  6.2461497   5.93349768
  5.6146749   5.29379519  4.96468781  4.63146657  4.29207458  3.94651182
  3.59272138  3.23481709  2.87074204  2.50255315  2.13436426  1.76823229
  1.40827109  1.05653756  0.71714557  0.39215202  0.08361385 -0.20641204
