sub,run,cat_cond,trial_type,picture,old,response_old,target_pos,response_pos,dot_resp_loc,cat_corr,TN_corr,TN_rt,feedback_type,trial,SP_timeseries,FB_timeseries,SP_peak_response,FB_peak_response,preStim_bl,anticipation
040,2,2,csm,27a.png,1,0,136,128,NaN,0,1,632,neu_feedback_onset,1,"[-2.99388961e-01 -2.15555861e-01 -1.65256000e-01 -1.48489380e-01
 -1.61064345e-01 -1.92501758e-01 -2.36514136e-01 -2.82622341e-01
 -3.20347237e-01 -3.41305512e-01 -3.39209684e-01 -3.09868099e-01
 -2.44897446e-01 -1.46393552e-01 -8.06893596e-03  1.67980576e-01
  3.83850811e-01  6.41637596e-01  9.39245104e-01  1.27876916e+00
  1.65811394e+00  2.07308779e+00  2.51949906e+00  2.99106025e+00
  3.47519641e+00  3.96771587e+00  4.45185203e+00  4.91502991e+00
  5.34677038e+00  5.73449847e+00  6.06563922e+00  6.32761766e+00
  6.51833797e+00  6.62941683e+00  6.66085424e+00  6.61474603e+00
  6.49737969e+00  6.32342601e+00  6.10545995e+00  5.86234395e+00
  5.61713213e+00  5.39497442e+00  5.21682908e+00  5.10365439e+00
  5.07221698e+00  5.13718763e+00  5.30066218e+00  5.56473644e+00
  5.91893130e+00  6.34857594e+00  6.83690375e+00  7.36505229e+00
  7.90787161e+00  8.44859511e+00  8.96836034e+00  9.45459232e+00
  9.90100359e+00  1.03054983e+01  1.06701723e+01  1.10013130e+01
  1.13093997e+01  1.16028155e+01  1.18920397e+01  1.21875514e+01
  1.24914464e+01  1.28079164e+01  1.31348655e+01  1.34701979e+01
  1.38034344e+01  1.41240960e+01  1.44217036e+01  1.46878736e+01
  1.49079355e+01  1.50797934e+01  1.51950639e+01  1.52558429e+01
  1.52600346e+01  1.52181180e+01  1.51321891e+01  1.50127269e+01
  1.48660190e+01  1.46983528e+01  1.45139200e+01  1.43211038e+01
  1.41199044e+01  1.39124175e+01  1.37007389e+01  1.34848686e+01
  1.32648068e+01  1.30426490e+01  1.28162997e+01  1.25878545e+01
  1.23594093e+01  1.21330599e+01  1.19067105e+01  1.16866486e+01
  1.14728742e+01  1.12674831e+01  1.10746670e+01  1.08944258e+01
  1.07309513e+01  1.05863392e+01  1.04605895e+01  1.03578940e+01
  1.02761567e+01  1.02174735e+01  1.01797486e+01  1.01650779e+01
  1.01671737e+01  1.01860361e+01  1.02174735e+01  1.02572943e+01
  1.02992108e+01  1.03411274e+01  1.03746606e+01  1.03998105e+01
  1.04081938e+01  1.03977147e+01  1.03662773e+01  1.03075941e+01
  1.02237610e+01  1.01126822e+01  9.97435755e+00  9.81088300e+00
  9.62435435e+00  9.41477160e+00  9.18842223e+00  8.94740206e+00
  8.69380693e+00  8.42973267e+00  8.15937092e+00  7.88691334e+00
  7.61655159e+00  7.35247732e+00  7.10097802e+00  6.86624534e+00
  6.66295007e+00  6.49318804e+00  6.37163004e+00  6.30456356e+00
  6.29827608e+00  6.36115090e+00  6.48899638e+00  6.68181251e+00
  6.93331182e+00  7.22882350e+00  7.55367676e+00  7.89110499e+00
  8.22014991e+00  8.52823656e+00  8.79650248e+00  9.01446855e+00
  9.18003892e+00  9.29111778e+00  9.35399260e+00  9.37495088e+00
  9.36866340e+00  9.35189678e+00  9.33513016e+00  9.33303433e+00
  9.35818426e+00  9.41477160e+00  9.50698801e+00  9.63902515e+00
  9.80669135e+00  1.00099866e+01  1.02426235e+01  1.05025061e+01
  1.07854428e+01  1.10893378e+01  1.14120952e+01  1.17495235e+01
  1.20995267e+01  1.24537215e+01  1.28079164e+01  1.31516321e+01
  1.34722937e+01  1.37594221e+01  1.39983464e+01  1.41785876e+01
  1.42917622e+01  1.43315830e+01  1.42959539e+01  1.41911625e+01
  1.40276880e+01  1.38139136e+01  1.35687018e+01  1.33088191e+01
  1.30510324e+01  1.28100122e+01  1.26004294e+01  1.24306674e+01
  1.23049178e+01  1.22231805e+01  1.21833598e+01  1.21791681e+01
  1.22022222e+01  1.22462346e+01  1.23028219e+01  1.23636009e+01
  1.24222841e+01  1.24746798e+01  1.25145005e+01  1.25417463e+01
  1.25564171e+01  1.25585129e+01  1.25480337e+01  1.25270755e+01
  1.24977339e+01  1.24621048e+01  1.24243799e+01  1.23845592e+01
  1.23468343e+01  1.23133011e+01  1.22839595e+01  1.22609054e+01
  1.22483304e+01  1.22483304e+01  1.22588095e+01  1.22860553e+01
  1.23300677e+01  1.23929425e+01  1.24725840e+01  1.25731837e+01
  1.26905500e+01  1.28267788e+01  1.29755826e+01  1.31369613e+01
  1.33067233e+01  1.34764853e+01  1.36462474e+01  1.38097219e+01
  1.39627173e+01  1.41010419e+01  1.42246958e+01  1.43273913e+01
  1.44112244e+01  1.44740992e+01  1.45202074e+01  1.45495490e+01
  1.45663157e+01  1.45705073e+01  1.45705073e+01  1.45663157e+01
  1.45642198e+01  1.45642198e+01  1.45705073e+01  1.45851781e+01
  1.46082322e+01  1.46396696e+01  1.46815862e+01  1.47297902e+01
  1.47884734e+01  1.48513482e+01  1.49226063e+01  1.50022478e+01
  1.50860809e+01  1.51782973e+01  1.52788970e+01  1.53857842e+01]","[-1.33263673 -1.17056187 -1.00467348 -0.83687832 -0.66908317 -0.50700831
 -0.35065373 -0.20383298 -0.06654603  0.05930033  0.17561288  0.28239161
  0.38345006  0.47878821  0.56840608  0.65802395  0.74764181  0.83725968
  0.92878431  1.0222157   1.11564709  1.20907848  1.30441664  1.39975479
  1.49318618  1.58471081  1.67051515  1.75250596  1.8230562   1.88216585
  1.92411464  1.94508904  1.94127551  1.90695377  1.84212383  1.74106538
  1.60377844  1.43407653  1.23195964  1.00505483  0.75717563  0.49785584
  0.23472254 -0.02841077 -0.2801035  -0.51654212 -0.73391312 -0.93221648
 -1.10763868 -1.26399326 -1.40318696 -1.53284685 -1.65869322 -1.78644635
 -1.92182653 -2.07246081 -2.24216273 -2.43665256 -2.65402356 -2.89808923
 -3.16503607 -3.45295729 -3.75803939 -4.07646883 -4.40443208 -4.73620886
 -5.06417211 -5.38641508 -5.6953107  -5.98704545 -6.25399229 -6.49424444
 -6.70398838 -6.88322411 -7.03385839 -7.15779799 -7.2607632  -7.35038107
 -7.42855835 -7.50482888 -7.5810994  -7.65927669 -7.7412675  -7.82135155
 -7.89952884 -7.96817231 -8.0253752  -8.06732399 -8.08829839 -8.09211191
 -8.07685781 -8.0463496  -8.00821434 -7.96626555 -7.93003705 -7.90524913
 -7.89571531 -7.90906265 -7.94529115 -8.00249405 -8.07495104 -8.15503509
 -8.23511914 -8.30185585 -8.34761817 -8.36096551 -8.33617759 -8.27516117
 -8.17410272 -8.04253607 -7.88808826 -7.72219987 -7.55631148 -7.40186367
 -7.26839025 -7.16161152 -7.08343423 -7.03385839 -7.00335018 -6.98809608
 -6.9766555  -6.95568111 -6.91754584 -6.85080913 -6.74784393 -6.6048367
 -6.41988067 -6.19488263 -5.93365608 -5.64573486 -5.33683924 -5.01650303
 -4.69616683 -4.38155092 -4.08218912 -3.8038017  -3.54829545 -3.31948388
 -3.11736699 -2.94003802]",14.77430158169609,0.823530982040217,4.7713849999999995,
040,2,2,csp,26b.png,1,1,124,317,124,1,1,561,neg_feedback_onset,2,"[ 0.41707119  0.34959098  0.279934    0.20592346  0.12538257  0.04048812
 -0.04440633 -0.12930077 -0.20984166 -0.28167542 -0.33609494 -0.37092343
 -0.37963056 -0.35350919 -0.29255933 -0.18807385 -0.04005277  0.15150394
  0.38877304  0.66740097  0.98303417  1.33131909  1.70572537  2.09536912
  2.49154321  2.88554052  3.26430036  3.6212924   3.94345594  4.22643744
  4.46152975  4.64437933  4.77063262  4.8402896   4.85335028  4.81852179
  4.73798091  4.62696509  4.49418147  4.3548675   4.21990709  4.10236094
  4.01093615  3.95433985  3.93474882  3.95216307  4.0044058   4.08276991
  4.17854826  4.28521052  4.38751921  4.48112078  4.55295454  4.60084372
  4.62043475  4.61172762  4.57472235  4.51377249  4.43758517  4.35051394
  4.26344271  4.1850786   4.11977518  4.07623957  4.0610021   4.07623957
  4.11977518  4.18943216  4.28521052  4.39404955  4.51594927  4.63784899
  4.75757193  4.86858775  4.96654288  5.05143733  5.12109431  5.17551383
  5.21687266  5.24734759  5.2691154   5.28435286  5.29523677  5.30176711
  5.30829745  5.31047423  5.31047423  5.30829745  5.30394389  5.29523677
  5.28217608  5.26258506  5.23428691  5.19292807  5.13850856  5.06667479
  4.97525     4.86205741  4.727097    4.56383845  4.37663531  4.1633108
  3.92821848  3.67353514  3.40361433  3.1249864   2.84418168  2.57208409
  2.31304719  2.07577809  1.86898392  1.69919503  1.56858818  1.48151695
  1.44015812  1.4423349   1.4880473   1.57076496  1.68613434  1.82980187
  1.99306042  2.16937966  2.35440602  2.53943238  2.7179284   2.88336374
  3.03356161  3.16416845  3.2708307   3.35572515  3.41885179  3.46238741
  3.48850877  3.50592302  3.5189837   3.53204439  3.5538122   3.59081747
  3.65176733  3.7453689   3.87379896  4.04794142  4.26779627  4.5355403
  4.8511735   5.20816554  5.59780929  6.00704406  6.4206324   6.82116005
  7.19121277  7.51119954  7.77459     7.96832349  8.09239999  8.15334985
  8.15770341  8.12287492  8.06627862  8.00315198  7.95090924  7.92261109
  7.92478787  7.96179314  8.02927335  8.1250517   8.2382443   8.36014402
  8.48204374  8.59741311  8.70189859  8.7911466   8.86733392  8.926107
  8.9718194   9.00447111  9.02188535  9.02623891  9.01317823  8.9827033
  8.93263734  8.86080358  8.76720201  8.65400941  8.52122579  8.37102792
  8.20776937  8.03362691  7.85295411  7.66575097  7.47637105  7.28699112
  7.09978798  6.91476162  6.73408882  6.55994636  6.39015747  6.2290757
  6.07670105  5.93303352  5.80024989  5.67617339  5.56515758  5.46937923
  5.38448478  5.31482779  5.2582315   5.21687266  5.19075129  5.17551383
  5.17116027  5.17769061  5.19510486  5.21904944  5.24952437  5.29088321
  5.33877238  5.39754546  5.46502566  5.54556655  5.63916812  5.74147682
  5.85466941  5.97439235  6.09846885  6.22036857  6.33791473  6.44240021
  6.53600178  6.61001232  6.66443184  6.69926033  6.71232101  6.70361389
  6.6796693   6.63613369  6.57953739  6.51205719  6.43369308  6.34879863
  6.25955063  6.16812584  6.07670105  5.98745304  5.90691215  5.83290161
  5.76977496  5.72188579  5.69141086  5.67835017  5.68488052  5.7088251
  5.75236072  5.80895702  5.87426044  5.9460942   6.01792797  6.08323139
  6.13765091  6.17683296]","[-3.02541476e+00 -2.69365019e+00 -2.35195254e+00 -2.00032183e+00
 -1.65067773e+00 -1.30103364e+00 -9.59335994e-01 -6.27571424e-01
 -3.05739924e-01  2.18527561e-03  3.00177405e-01  5.84263234e-01
  8.58415993e-01  1.12462229e+00  1.38288214e+00  1.63716876e+00
  1.88748215e+00  2.13580892e+00  2.38016247e+00  2.62252940e+00
  2.85893649e+00  3.08541050e+00  3.29599161e+00  3.48869319e+00
  3.64960893e+00  3.77277901e+00  3.85224358e+00  3.87608295e+00
  3.84231051e+00  3.74893964e+00  3.59597035e+00  3.38936248e+00
  3.13904909e+00  2.85694987e+00  2.55895774e+00  2.26096561e+00
  1.98085301e+00  1.73451285e+00  1.53982466e+00  1.41069474e+00
  1.35904277e+00  1.39281521e+00  1.51995852e+00  1.73848608e+00
  2.05038451e+00  2.44373412e+00  2.90860184e+00  3.42512153e+00
  3.97342705e+00  4.52967902e+00  5.07202470e+00  5.57662470e+00
  6.02361290e+00  6.39908298e+00  6.69310188e+00  6.90169637e+00
  7.03281291e+00  7.09042472e+00  7.09042472e+00  7.04870582e+00
  6.97917432e+00  6.89772314e+00  6.81627196e+00  6.74475385e+00
  6.68912865e+00  6.65138298e+00  6.62953023e+00  6.62555700e+00
  6.63549007e+00  6.65336960e+00  6.68118219e+00  6.71098141e+00
  6.74475385e+00  6.77852629e+00  6.81428535e+00  6.85004440e+00
  6.88381684e+00  6.91758928e+00  6.95334834e+00  6.98712078e+00
  7.02089322e+00  7.05466566e+00  7.08645149e+00  7.12022393e+00
  7.15399637e+00  7.18578220e+00  7.21955464e+00  7.25134047e+00
  7.28113968e+00  7.31292551e+00  7.34073811e+00  7.36855071e+00
  7.39437669e+00  7.41821606e+00  7.43808220e+00  7.45198850e+00
  7.45993496e+00  7.46192157e+00  7.45198850e+00  7.43212236e+00
  7.40033653e+00  7.35265779e+00  7.29107275e+00  7.21558141e+00
  7.12618377e+00  7.02287984e+00  6.90964283e+00  6.78845936e+00
  6.66330267e+00  6.53417274e+00  6.40901605e+00  6.28981920e+00
  6.18254203e+00  6.08917116e+00  6.01169321e+00  5.95209479e+00
  5.91037589e+00  5.88057667e+00  5.86071053e+00  5.83885778e+00
  5.80707195e+00  5.75740659e+00  5.67992864e+00  5.56867825e+00
  5.42166880e+00  5.23691368e+00  5.02235934e+00  4.77999241e+00
  4.52371918e+00  4.26148611e+00  4.00521288e+00  3.76085933e+00
  3.54034515e+00  3.34565696e+00  3.18076799e+00  3.04567822e+00
  2.94038767e+00  2.85893649e+00  2.79933806e+00  2.75761916e+00]",8.185511782913995,6.997798831473531,4.593940000000001,0.4958650000000002
040,2,2,csm,22a.png,1,1,120,112,122,1,1,540,neu_feedback_onset,3,"[ 2.1994526   1.9604544   1.6832165   1.38303476  1.07138111  0.76163945
  0.4633697   0.1861318  -0.06242633 -0.2784807  -0.4639433  -0.62072611
 -0.74882915 -0.85590034 -0.94576366 -1.02224308 -1.08916258 -1.15034612
 -1.20770568 -1.26315327 -1.31668886 -1.37213644 -1.42758402 -1.48876756
 -1.55377507 -1.62451854 -1.70290995 -1.79086128 -1.88837255 -1.99926771
 -2.1197228  -2.2516498  -2.39504872 -2.5441836  -2.69714244 -2.85201327
 -3.00306013 -3.15028302 -3.28794598 -3.41604902 -3.53268014 -3.63975133
 -3.73535061 -3.82138996 -3.90169335 -3.97626079 -4.04509227 -4.11392375
 -4.17893126 -4.24393877 -4.30703429 -4.37012981 -4.42940137 -4.48484895
 -4.53264859 -4.57471227 -4.60339205 -4.62059992 -4.62059992 -4.60148007
 -4.56132837 -4.49823285 -4.40836953 -4.29365039 -4.15216346 -3.98582072
 -3.79653414 -3.58621573 -3.36060143 -3.11969125 -2.87113313 -2.61683905
 -2.36063298 -2.10442692 -1.85204482 -1.60731067 -1.37022446 -1.14078619
 -0.92281983 -0.71250142 -0.51174294 -0.31863239 -0.13508178  0.04464486
  0.22054754  0.39262624  0.56279295  0.73295967  0.90312638  1.07520508
  1.24919577  1.42509844  1.60100112  1.77307982  1.94515852  2.10958928
  2.26637209  2.411683    2.54552199  2.66215311  2.76157636  2.84187975
  2.90497527  2.94703896  2.9680708   2.97189477  2.95851087  2.93174307
  2.88967939  2.83996776  2.7826082   2.72142466  2.66215311  2.60479354
  2.5569939   2.51875419  2.49198639  2.47860249  2.47860249  2.49389838
  2.52257816  2.56081787  2.6105295   2.66788906  2.73098459  2.79790408
  2.86673556  2.93556704  3.00248654  3.06175809  3.11146971  3.14970943
  3.17074127  3.17456524  3.15735737  3.12102964  3.06558206  2.99483859
  2.91071123  2.81893592  2.72716062  2.63538531  2.55125794  2.47286653
  2.40403505  2.34285152  2.28740393  2.23578032  2.18415671  2.13062112
  2.06752559  1.99295816  1.90309484  1.79028769  1.65262473  1.48819397
  1.29125945  1.06373317  0.8075271   0.52646523  0.22437151 -0.09110611
 -0.4104077  -0.72397334 -1.02415507 -1.29948099 -1.54039117 -1.74306164
 -1.90366843 -2.01647558 -2.08339507 -2.10825089 -2.092955   -2.04324338
 -1.96676395 -1.86925269 -1.75835753 -1.63981442 -1.51935933 -1.40081623
 -1.28609709 -1.17711392 -1.07386669 -0.97635543 -0.88266814 -0.79089283
 -0.70294149 -0.61499016 -0.52703882 -0.44291146 -0.35878409 -0.28039268
 -0.20773723 -0.14081774 -0.08345817 -0.03183456  0.01214111  0.05038082
  0.08288457  0.11156436  0.13833216  0.16701194  0.19569172  0.22819548
  0.26261122  0.29893894  0.33526667  0.37541837  0.41365808  0.4499858
  0.48631353  0.52072927  0.55514501  0.58764876  0.62015252  0.65648024
  0.69471996  0.73678364  0.78649526  0.84576682  0.91268631  0.99107772
  1.07902906  1.18036429  1.29125945  1.41171454  1.53981758  1.67365657
  1.80940754  1.94324653  2.07134957  2.19562863  2.30843578  2.411683
  2.50537029  2.58758567  2.66024112  2.72524863  2.78452018  2.83996776
  2.89350336  2.94703896  3.00248654  3.05602213  3.11146971  3.16500531
  3.21662892  3.26442856  3.30458026  3.33708401  3.35811585  3.36767578
  3.36385181  3.34664394  3.31796416  3.27781246  3.22810083  3.17074127
  3.10573376  3.04072625]","[-1.51748841 -1.2875376  -1.05571727 -0.82389694 -0.59581564 -0.37708194
 -0.17330439  0.01364749  0.17629562  0.3127705   0.42120259  0.5015919
  0.55393842  0.5819812   0.58758976  0.57824217  0.55767746  0.53337371
  0.51280901  0.49972238  0.5015919   0.5221566   0.56515553  0.62871917
  0.70910848  0.8007149   0.89419084  0.97644967  1.03814379  1.06431706
  1.04749139  0.98018871  0.86053951  0.68854378  0.47167959  0.21555552
 -0.07048086 -0.37521242 -0.68929158 -1.00337074 -1.31184135 -1.61096435
 -1.89326169 -2.15873336 -2.40737936 -2.63359114 -2.84110773 -3.02432057
 -3.18696871 -3.32344358 -3.43187567 -3.5141345  -3.56835054 -3.59078477
 -3.58330669 -3.5440468  -3.47861364 -3.38326818 -3.26361898 -3.12153555
 -2.96075693 -2.78502216 -2.59807028 -2.40550985 -2.20921037 -2.01478042
 -1.82595902 -1.64648521 -1.47822852 -1.32305846 -1.18471407 -1.06319534
 -0.95850229 -0.87624346 -0.81081031 -0.76781137 -0.74537715 -0.74163811
 -0.75846378 -0.79398464 -0.84446164 -0.91176432 -0.99215363 -1.08376005
 -1.18471407 -1.29127664 -1.40344777 -1.51935793 -1.63900714 -1.76239538
 -1.88578362 -2.0129109  -2.14377721 -2.27838257 -2.41859648 -2.56815798
 -2.72706708 -2.89906281 -3.08788421 -3.29166176 -3.51600402 -3.75530242
 -4.0114265  -4.27876769 -4.54984791 -4.82092814 -5.08266077 -5.3238287
 -5.54069288 -5.72577524 -5.87346723 -5.9800298  -6.04546296 -6.0697667
 -6.05668007 -6.00807258 -5.92955279 -5.82859878 -5.70521054 -5.57060518
 -5.42478272 -5.27522121 -5.12379019 -4.9760982  -4.83588429 -4.70314846
 -4.58349925 -4.47506716 -4.38346074 -4.30681047 -4.24511635 -4.2002479
 -4.1703356  -4.15537945 -4.15164041 -4.15724897 -4.1703356  -4.18716127
 -4.20398694 -4.22081261]",2.9963549973055748,-0.1400269584611533,5.230165,-0.13084499999999988
040,2,2,csm,1a.png,1,1,144,142,144,1,1,350,neu_feedback_onset,4,"[ 3.28718203  3.1433753   2.95363032  2.71594976  2.43233095  2.10277387
  1.73127317  1.31982615  0.87642209  0.40905024 -0.07629746 -0.56963441
 -1.06297137 -1.54432443 -2.00570433 -2.43912182 -2.83658763 -3.19011249
 -3.49570178 -3.75135817 -3.959079   -4.11886425 -4.23670587 -4.32059312
 -4.37651796 -4.41246964 -4.43643743 -4.45441327 -4.47039179 -4.48836763
 -4.51033811 -4.53830052 -4.56826026 -4.60021731 -4.63217436 -4.66612872
 -4.69608846 -4.72405088 -4.75001598 -4.77398377 -4.79595424 -4.81393008
 -4.83390323 -4.85187907 -4.87185223 -4.89182539 -4.91379586 -4.93976096
 -4.97171801 -5.00966701 -5.05360795 -5.10753547 -5.17144957 -5.24535025
 -5.33123482 -5.42510865 -5.52896907 -5.63682411 -5.74867378 -5.85652883
 -5.96038924 -6.05426307 -6.13615301 -6.20406174 -6.25599195 -6.29394094
 -6.3139141  -6.31990605 -6.30991947 -6.28595168 -6.24400805 -6.1860859
 -6.10819059 -6.00832481 -5.88648856 -5.74068452 -5.57091269 -5.37517576
 -5.15946568 -4.92378244 -4.6761153  -4.42245622 -4.16679982 -3.91513805
 -3.67346287 -3.4477662  -3.24204269 -3.05429503 -2.89051515 -2.74471111
 -2.61888022 -2.5130225  -2.4231433  -2.34924262 -2.29331778 -2.25337147
 -2.23339831 -2.23739294 -2.26335805 -2.31928288 -2.40317014 -2.51901444
 -2.6668158  -2.84257957 -3.04630577 -3.27000511 -3.5116803  -3.76134475
 -4.0110092  -4.25468171 -4.484373   -4.69209383 -4.87384955 -5.0216509
 -5.13350058 -5.20740125 -5.24535025 -5.24734756 -5.21539052 -5.15347373
 -5.06758916 -4.96173143 -4.8418925  -4.71206698 -4.57624952 -4.44242937
 -4.31260386 -4.19276492 -4.08490988 -3.99303336 -3.92312732 -3.87519174
 -3.85322127 -3.85921322 -3.89316758 -3.95508437 -4.04496357 -4.15881056
 -4.29462802 -4.44442669 -4.60421194 -4.76399719 -4.91978781 -5.0595999
 -5.17744152 -5.26332609 -5.31325898 -5.31925093 -5.28130193 -5.19741467
 -5.06758916 -4.89781733 -4.69209383 -4.45641058 -4.20075419 -3.93311389
 -3.65948166 -3.38784673 -3.12619839 -2.87853125 -2.65083727 -2.44311645
 -2.25936342 -2.09758085 -1.95976607 -1.84392177 -1.7460533  -1.66416336
 -1.59825195 -1.54232711 -1.49638885 -1.45843986 -1.42648281 -1.4005177
 -1.38254186 -1.37055797 -1.36656334 -1.37255529 -1.38653649 -1.41050428
 -1.44246133 -1.47841301 -1.51835933 -1.55830564 -1.59226    -1.61822511
 -1.63220631 -1.630209   -1.61223316 -1.57628148 -1.52035664 -1.44845328
 -1.36057139 -1.26070561 -1.15085325 -1.03500895 -0.91716733 -0.79932571
 -0.68747603 -0.5816183  -0.48574716 -0.39986258 -0.32995654 -0.27802633
 -0.24207465 -0.23009076 -0.24207465 -0.28002365 -0.34593506 -0.44380353
 -0.57163173 -0.72742234 -0.90718075 -1.11090694 -1.33061166 -1.56230027
 -1.79998083 -2.0396587  -2.27933657 -2.51501981 -2.74471111 -2.97040777
 -3.1921098  -3.40981721 -3.62352998 -3.83524543 -4.04496357 -4.25268439
 -4.46040522 -4.66612872 -4.86985491 -5.07158379 -5.27131535 -5.46305765
 -5.65080532 -5.82656909 -5.98835166 -6.13415569 -6.25798926 -6.36184967
 -6.43974498 -6.49167519 -6.51963761 -6.52762687 -6.51764029 -6.49766714
 -6.47170203 -6.44573693 -6.42376646 -6.40978525 -6.40579062 -6.40778793
 -6.41777451 -6.4297584  -6.44573693 -6.45772082 -6.46371277 -6.45971814
 -6.4417423  -6.40978525]","[-1.01682461 -0.96621301 -0.90622888 -0.83499774 -0.75251957 -0.65879438
 -0.55569666 -0.44510094 -0.3288817  -0.20703895 -0.0833217   0.04227006
  0.17348533  0.31219861  0.46590793  0.64211129  0.85018122  1.10136473
  1.40315985  1.76493909  2.19232597  2.68157147  3.22705209  3.81377179
  4.42298554  5.02657578  5.60017395  6.1119135   6.53555137  6.85234252
  7.04916542  7.12602008  7.08853     6.95731474  6.75299382  6.50930832
  6.25062679  6.00694129  5.79699686  5.63391502  5.5251938   5.46708418
  5.45208815  5.46895868  5.50457426  5.54768785  5.58705243  5.61704449
  5.63578953  5.64328754  5.63953853  5.62829151  5.60767197  5.57767991
  5.53456632  5.47083319  5.3789825   5.25339074  5.0846854   4.87099196
  4.60856142  4.3048918   3.9618576   3.58883133  3.20080904  2.80716323
  2.42101544  2.05361268  1.71432749  1.40503435  1.13135679  0.8914203
  0.68147587  0.499649    0.34219068  0.19972838  0.07226212 -0.04583162
 -0.15830185 -0.26327406 -0.36449727 -0.46009697 -0.54632414 -0.6231788
 -0.68691193 -0.73564903 -0.76564109 -0.77876262 -0.77501361 -0.75626858
 -0.73377453 -0.71128048 -0.70190796 -0.71502949 -0.76189209 -0.84999377
 -0.98683255 -1.16865942 -1.39547439 -1.66165393 -1.95407653 -2.26336966
 -2.57641181 -2.88195593 -3.16875502 -3.42931105 -3.66174953 -3.86232144
 -4.03290129 -4.17723809 -4.30282984 -4.41530008 -4.5240213  -4.63274252
 -4.74896176 -4.87642802 -5.01701581 -5.17072512 -5.33568146 -5.50813582
 -5.68246467 -5.85304452 -6.01612636 -6.16233766 -6.29167842 -6.40227415
 -6.49225033 -6.56160697 -6.61221858 -6.64970866 -6.67407721 -6.68907324
 -6.69657125 -6.70219476 -6.70406927 -6.70781827 -6.71156728 -6.7190653
 -6.73218682 -6.75093186]",-9.769962616701378e-15,4.48699984722794,5.0067200000000005,0.46768500000000124
040,2,2,csm,18a.png,1,1,232,243,232,1,1,444,neu_feedback_onset,5,"[  0.9135417    0.84016485   0.76678801   0.69137292   0.61391959
   0.52831327   0.43659222   0.33467993   0.22053818   0.09620519
  -0.03628077  -0.17284323  -0.30940569  -0.44189166  -0.56214815
  -0.66609868  -0.7476285   -0.80673762  -0.84342605  -0.85565552
  -0.85157903  -0.83323482  -0.80673762  -0.77820219  -0.75578148
  -0.74355201  -0.7476285   -0.76801096  -0.80673762  -0.86788499
  -0.94533833  -1.04317412  -1.15323938  -1.27757237  -1.41005833
  -1.55069728  -1.69337448  -1.83808992  -1.98076711  -2.12548255
  -2.2661215   -2.4087987   -2.54943765  -2.69211484  -2.83683028
  -2.98766046  -3.14664362  -3.31174152  -3.4849924   -3.66435801
  -3.85187661  -4.04143346  -4.22895206  -4.41239416  -4.5836068
  -4.73851347  -4.87507592  -4.98717943  -5.07686224  -5.14412435
  -5.18692751  -5.20934821  -5.21546295  -5.20730996  -5.18692751
  -5.16043031  -5.12781838  -5.09112996  -5.0524033   -5.01163838
  -4.96883522  -4.92807031  -4.88526715  -4.84246399  -4.79966084
  -4.75685768  -4.71405452  -4.67125136  -4.62640996  -4.5836068
  -4.54080364  -4.49596224  -4.45315908  -4.40831767  -4.36347627
  -4.31863486  -4.27379346  -4.2309903   -4.19022539  -4.15557521
  -4.12500153  -4.10054258  -4.08627486  -4.07812188  -4.07812188
  -4.08423662  -4.09442784  -4.10665732  -4.11684855  -4.12296328
  -4.12296328  -4.1148103   -4.09850434  -4.07608363  -4.05162469
  -4.02716574  -4.00678328  -3.99251556  -3.99047732  -4.00066854
  -4.02512749  -4.05977767  -4.10461907  -4.15557521  -4.21060785
  -4.26156399  -4.30640539  -4.34105557  -4.36143802  -4.36551451
  -4.35124679  -4.31863486  -4.26767872  -4.19837837  -4.11073381
  -4.00474504  -3.88652679  -3.75200258  -3.60524889  -3.44626573
  -3.27912959  -3.10384046  -2.92039835  -2.73287976  -2.54128467
  -2.34765133  -2.15401799  -1.96038466  -1.76878957  -1.57923272
  -1.39171412  -1.20827202  -1.03094465  -0.85769377  -0.68851938
  -0.52749797  -0.37055306  -0.22176113  -0.08112218   0.04932554
   0.17162028   0.28168555   0.37544485   0.45493643   0.51200731
   0.54869573   0.55684871   0.53646625   0.48347187   0.39990379
   0.28168555   0.12881712  -0.05462498  -0.26660253  -0.50303902
  -0.76189622  -1.03909763  -1.33056675  -1.63018886  -1.9400022
  -2.25185378  -2.56778186  -2.88370993  -3.20167625  -3.51556608
  -3.82945591  -4.13926925  -4.44296785  -4.73851347  -5.02794435
  -5.30514575  -5.57215593  -5.82897488  -6.07356436  -6.31000086
  -6.53828437  -6.76249139  -6.98466016  -7.20682894  -7.43103596
  -7.65728122  -7.88556474  -8.11792474  -8.34620825  -8.57041527
  -8.78443106  -8.98417914  -9.16762125  -9.32864265  -9.46724335
  -9.58342336  -9.67718266  -9.75259774  -9.81578336  -9.86877775
  -9.92381038  -9.9829195  -10.0542581  -10.14394091 -10.25400617
 -10.39056863 -10.55159004 -10.73910863 -10.94497144 -11.16917846
 -11.40357671 -11.64205145 -11.87848795 -12.10677146 -12.31874901
 -12.51442059 -12.68970971 -12.84461638 -12.98117884 -13.10143533
 -13.2115006  -13.31341288 -13.41124867 -13.51112271 -13.61303499
 -13.71902376 -13.83112727 -13.95138376 -14.07775499 -14.21024096
 -14.34884167 -14.48948061 -14.63419605 -14.78094974 -14.92770343
 -15.07649536 -15.22324905 -15.37204098 -15.52083291 -15.66962484
 -15.81637853 -15.96517046 -16.11192414 -16.26071608 -16.40746976
 -16.55626169 -16.70301538 -16.85180731 -16.998561   -17.14735293
 -17.29410662 -17.44289855 -17.58965223 -17.73640592 -17.88315961]","[ -1.45030872  -1.36220633  -1.24746834  -1.10814363  -0.94423221
  -0.75983187  -0.5549426   -0.33775997  -0.11443066   0.10684976
   0.31788571   0.50638384   0.66619747   0.79117993   0.87928231
   0.93050463   0.94689577   0.9387002    0.91411349   0.88133121
   0.85264671   0.83625557   0.84035335   0.87108674   0.93255352
   1.0227048    1.14358948   1.29110975   1.46116785   1.64761709
   1.84431079   2.04715117   2.24794266   2.44258746   2.62698781
   2.79704591   2.95071286   3.08389089   3.19862888   3.29492684
   3.37278476   3.43425154   3.48547386   3.52850061   3.56538068
   3.60226075   3.64118971   3.68626535   3.73953656   3.80510113
   3.88091016   3.97106144   4.07350608   4.18824407   4.31322652
   4.44845344   4.59187594   4.7414451    4.89716095   5.05697458
   5.21473932   5.37250406   5.52207323   5.66344683   5.7863804
   5.88882503   5.96258517   6.00151413   5.99946524   5.9543896
   5.86218943   5.72081583   5.5302688    5.29464614   5.01804562
   4.70661393   4.36444884   3.99974594   3.62070078   3.23755784
   2.8564638    2.48561421   2.13525356   1.8135774    1.52878131
   1.28701197   1.09236716   0.94279799   0.83420667   0.76249543
   0.71741979   0.68053972   0.64365965   0.59038844   0.51457941
   0.40598809   0.26666339   0.09865418  -0.09394173  -0.298831
  -0.50781806  -0.71065844  -0.89710768  -1.05897021  -1.19419713
  -1.30073955  -1.37654858  -1.4277709   -1.45850429  -1.47899322
  -1.49743325  -1.52611775  -1.57734007  -1.66339356  -1.7945227
  -1.97892304  -2.22479017  -2.53212408  -2.90502255  -3.33324113
  -3.81268203  -4.33310078  -4.88220403  -5.44360064  -6.00909503
  -6.56639386  -7.10525264  -7.6236225   -8.11740565  -8.58455319
  -9.02916291  -9.45328371  -9.85691558 -10.24620519 -10.62525035
 -10.99200215 -11.35260727 -11.70296792 -12.04308412 -12.37090695]",-1.72029057665668e-14,4.332844672417916,4.906180000000001,0.6003750000000005
040,2,2,csp,30b.png,1,1,236,237,235,1,1,369,pos_feedback_onset,6,"[-1.79549027e+00 -1.60466634e+00 -1.39755257e+00 -1.18113031e+00
 -9.57726682e-01 -7.27341695e-01 -4.96956707e-01 -2.68898841e-01
 -4.78223383e-02  1.63945680e-01  3.59423851e-01  5.36285054e-01
  6.87547924e-01  8.15539584e-01  9.13278669e-01  9.80765181e-01
  1.01799912e+00  1.02730760e+00  1.00869063e+00  9.66802454e-01
  9.01643064e-01  8.22520947e-01  7.27108983e-01  6.24715655e-01
  5.13013843e-01  4.01312031e-01  2.87283098e-01  1.75581286e-01
  6.85337159e-02 -2.92053696e-02 -1.12981729e-01 -1.80468240e-01
 -2.24683541e-01 -2.43300509e-01 -2.33992025e-01 -1.89776724e-01
 -1.12981729e-01 -1.27991660e-03  1.45328712e-01  3.19862793e-01
  5.19995206e-01  7.38744588e-01  9.71456696e-01  1.21115017e+00
  1.45317076e+00  1.69053711e+00  1.92092210e+00  2.14432572e+00
  2.36074798e+00  2.56786176e+00  2.77032129e+00  2.97045371e+00
  3.17058612e+00  3.37304565e+00  3.58015943e+00  3.79192745e+00
  4.00834971e+00  4.22477197e+00  4.43653999e+00  4.64365377e+00
  4.83680482e+00  5.01366602e+00  5.17191025e+00  5.30455615e+00
  5.41625797e+00  5.50468857e+00  5.57682932e+00  5.63500735e+00
  5.68853113e+00  5.73972780e+00  5.80023294e+00  5.87470082e+00
  5.97011278e+00  6.09112308e+00  6.24238595e+00  6.42622852e+00
  6.64497790e+00  6.89630698e+00  7.18254287e+00  7.49670421e+00
  7.83879101e+00  8.20414902e+00  8.58579688e+00  8.98140747e+00
  9.38632653e+00  9.78891848e+00  1.01915104e+01  1.05824668e+01
  1.09641146e+01  1.13271455e+01  1.16738866e+01  1.19996835e+01
  1.23068635e+01  1.25930994e+01  1.28560641e+01  1.31004118e+01
  1.33214883e+01  1.35192936e+01  1.36891734e+01  1.38311278e+01
  1.39358483e+01  1.40010076e+01  1.40196246e+01  1.39940263e+01
  1.39149042e+01  1.37869125e+01  1.36077242e+01  1.33889748e+01
  1.31329915e+01  1.28490827e+01  1.25488841e+01  1.22440312e+01
  1.19415055e+01  1.16506153e+01  1.13806693e+01  1.11316673e+01
  1.09059366e+01  1.07034771e+01  1.05242887e+01  1.03613903e+01
  1.02171088e+01  1.00844629e+01  9.96345256e+00  9.84942363e+00
  9.73772182e+00  9.62834713e+00  9.51431819e+00  9.39098078e+00
  9.25600775e+00  9.10241776e+00  8.92090232e+00  8.71146142e+00
  8.46711371e+00  8.18553206e+00  7.86671647e+00  7.51066694e+00
  7.12203772e+00  6.70315593e+00  6.26565716e+00  5.81652279e+00
  5.36273418e+00  4.91592693e+00  4.48308241e+00  4.07816334e+00
  3.70815109e+00  3.38235414e+00  3.11008097e+00  2.89831295e+00
  2.75170433e+00  2.67490933e+00  2.67025509e+00  2.73308736e+00
  2.86340614e+00  3.05190295e+00  3.29392354e+00  3.57550519e+00
  3.88966654e+00  4.22477197e+00  4.56918589e+00  4.91592693e+00
  5.25335949e+00  5.57915644e+00  5.88400930e+00  6.16559095e+00
  6.42390140e+00  6.65428638e+00  6.86140016e+00  7.04524272e+00
  7.20348696e+00  7.34311422e+00  7.46179740e+00  7.56419073e+00
  7.64796709e+00  7.71778072e+00  7.77130450e+00  7.80853844e+00
  7.82948253e+00  7.82948253e+00  7.80621132e+00  7.75734178e+00
  7.67821966e+00  7.56651785e+00  7.42223634e+00  7.24537514e+00
  7.03826136e+00  6.80787637e+00  6.55422018e+00  6.29125549e+00
  6.02363657e+00  5.75834477e+00  5.50236145e+00  5.26034085e+00
  5.03461011e+00  4.82982345e+00  4.64365377e+00  4.47610105e+00
  4.32483818e+00  4.18521091e+00  4.05721925e+00  3.93620896e+00
  3.82218002e+00  3.71513245e+00  3.60808488e+00  3.50336444e+00
  3.40097111e+00  3.29857778e+00  3.19851157e+00  3.09844537e+00
  3.00070628e+00  2.90529432e+00  2.81686372e+00  2.73308736e+00
  2.66094660e+00  2.60044145e+00  2.55389903e+00  2.51899222e+00
  2.49804813e+00  2.49106676e+00  2.49106676e+00  2.49572101e+00
  2.50270237e+00  2.50502949e+00  2.49804813e+00  2.47710404e+00
  2.43754298e+00  2.37936495e+00  2.30024284e+00  2.20017663e+00
  2.08382057e+00  1.95117467e+00  1.80922029e+00  1.66493878e+00
  1.52763864e+00  1.39964698e+00  1.28794516e+00  1.19951456e+00
  1.13435517e+00  1.09712123e+00  1.08548563e+00  1.09479411e+00
  1.12039245e+00  1.15529926e+00  1.19486032e+00  1.23209426e+00
  1.25536547e+00  1.26234683e+00  1.24838411e+00  1.21347729e+00
  1.15995350e+00  1.09013987e+00  1.01101775e+00  9.31895638e-01
  8.57427763e-01  7.96922615e-01  7.59688678e-01  7.45725951e-01
  7.59688678e-01  8.03903978e-01  8.73717611e-01  9.66802454e-01]","[-2.09278812e+00 -1.95579019e+00 -1.81686271e+00 -1.67214658e+00
 -1.51392362e+00 -1.33640517e+00 -1.13766170e+00 -9.13834090e-01
 -6.66851903e-01 -3.94785589e-01 -1.03423791e-01  2.05303942e-01
  5.27538514e-01  8.55561730e-01  1.18937359e+00  1.52318545e+00
  1.85120867e+00  2.17537279e+00  2.48795962e+00  2.78896916e+00
  3.07454231e+00  3.33696088e+00  3.57429533e+00  3.78075700e+00
  3.94862771e+00  4.07018925e+00  4.13965299e+00  4.14930073e+00
  4.09527338e+00  3.97757093e+00  3.79619339e+00  3.55307030e+00
  3.25784940e+00  2.91824890e+00  2.54584607e+00  2.15607731e+00
  1.75666080e+00  1.36303294e+00  9.84841468e-01  6.29804575e-01
  3.01781359e-01  2.70136766e-03 -2.63576302e-01 -4.98981198e-01
 -7.07372418e-01 -8.86820413e-01 -1.03925473e+00 -1.16853447e+00
 -1.27465963e+00 -1.35763021e+00 -1.41937575e+00 -1.45796672e+00
 -1.47726220e+00 -1.47919175e+00 -1.46568491e+00 -1.44253033e+00
 -1.40972801e+00 -1.37692569e+00 -1.34412337e+00 -1.31903924e+00
 -1.30360285e+00 -1.29974376e+00 -1.31132105e+00 -1.33833472e+00
 -1.38078479e+00 -1.43674169e+00 -1.50620543e+00 -1.58531691e+00
 -1.67021704e+00 -1.76283536e+00 -1.85738322e+00 -1.95386064e+00
 -2.05033806e+00 -2.14681547e+00 -2.24329289e+00 -2.33977031e+00
 -2.43624772e+00 -2.53272514e+00 -2.63113210e+00 -2.73146862e+00
 -2.83566423e+00 -2.94371893e+00 -3.06142138e+00 -3.18877157e+00
 -3.32962860e+00 -3.48399247e+00 -3.65958137e+00 -3.85446575e+00
 -4.06864561e+00 -4.30598006e+00 -4.56068044e+00 -4.82888765e+00
 -5.10867216e+00 -5.39038622e+00 -5.67017073e+00 -5.94223704e+00
 -6.19886697e+00 -6.44006051e+00 -6.66002902e+00 -6.86070205e+00
 -7.04207959e+00 -7.20802075e+00 -7.35659597e+00 -7.49552345e+00
 -7.62480319e+00 -7.74636473e+00 -7.86406718e+00 -7.97791053e+00
 -8.08982433e+00 -8.20173814e+00 -8.31172239e+00 -8.42170665e+00
 -8.53169090e+00 -8.64167516e+00 -8.75165941e+00 -8.85971412e+00
 -8.96969837e+00 -9.07968263e+00 -9.18966688e+00 -9.29772159e+00
 -9.40770584e+00 -9.51769010e+00 -9.62574481e+00 -9.73572906e+00
 -9.84571332e+00 -9.95569757e+00 -1.00637523e+01 -1.01756661e+01
 -1.02856503e+01 -1.03975641e+01 -1.05133370e+01 -1.06291099e+01
 -1.07487419e+01 -1.08722330e+01 -1.09995832e+01 -1.11269334e+01
 -1.12562131e+01 -1.13835633e+01 -1.15031953e+01 -1.16131796e+01]",11.975597808317337,1.7385712852335586,4.297155000000001,0.27177500000000077
040,2,2,csm,62a.png,1,1,12,23,11,1,1,423,neu_feedback_onset,7,"[nan nan nan nan nan nan nan nan nan nan nan nan nan nan nan nan nan nan
 nan nan nan nan nan nan nan nan nan nan nan nan nan nan nan nan nan nan
 nan nan nan nan nan nan nan nan nan nan nan nan nan nan nan nan nan nan
 nan nan nan nan nan nan nan nan nan nan nan nan nan nan nan nan nan nan
 nan nan nan nan nan nan nan nan nan nan nan nan nan nan nan nan nan nan
 nan nan nan nan nan nan nan nan nan nan nan nan nan nan nan nan nan nan
 nan nan nan nan nan nan nan nan nan nan nan nan nan nan nan nan nan nan
 nan nan nan nan nan nan nan nan nan nan nan nan nan nan nan nan nan nan
 nan nan nan nan nan nan nan nan nan nan nan nan nan nan nan nan nan nan
 nan nan nan nan nan nan nan nan nan nan nan nan nan nan nan nan nan nan
 nan nan nan nan nan nan nan nan nan nan nan nan nan nan nan nan nan nan
 nan nan nan nan nan nan nan nan nan nan nan nan nan nan nan nan nan nan
 nan nan nan nan nan nan nan nan nan nan nan nan nan nan nan nan nan nan
 nan nan nan nan nan nan nan nan nan nan nan nan nan nan nan nan nan nan
 nan nan nan nan nan nan nan nan]","[ -0.94154936  -0.85661312  -0.76960525  -0.68052578  -0.5914463
  -0.50236682  -0.41121573  -0.32006463  -0.22684193  -0.1315476
  -0.03003843   0.07768559   0.19576769   0.32213625   0.45679127
   0.60180438   0.74681748   0.89183058   1.02648561   1.14249609
   1.22743234   1.2750795    1.27300788   1.21914587   1.10935024
   0.94776421   0.7364594    0.48786551   0.21441223  -0.07561398
  -0.36356857  -0.64116508  -0.8939022   -1.1176367   -1.3020105
  -1.44909522  -1.55889086  -1.63761226  -1.68940265  -1.7225485
  -1.74533628  -1.76605243  -1.79505505  -1.83441575  -1.88827776
  -1.9587127   -2.04572056  -2.14722973  -2.25495375  -2.36889262
  -2.48075987  -2.58848389  -2.68584983  -2.77285769  -2.84950747
  -2.91165595  -2.96344634  -3.00487866  -3.03802451  -3.06702713
  -3.0898149   -3.10845944  -3.12710398  -3.14367691  -3.15817822
  -3.17267953  -3.18718084  -3.20168215  -3.21411185  -3.22861316
  -3.24311447  -3.25761578  -3.2741887   -3.29076163  -3.30940617
  -3.33219394  -3.36119657  -3.40055726  -3.45441927  -3.52899744
  -3.63257823  -3.7734481   -3.96196513  -4.20641579  -4.51715816
  -4.89833546  -5.35201931  -5.87613809  -6.46240535  -7.10046301
  -7.7695949   -8.45115648  -9.1244316   -9.76456087 -10.35497136
 -10.87909015 -11.32655915 -11.69116352 -11.97083165 -12.16970676
 -12.29400371 -12.34993733 -12.34993733 -12.29814694 -12.20492423
 -12.07441244 -11.91696964 -11.73259584 -11.52957749 -11.30998622
 -11.08003687 -10.84180106 -10.60149363 -10.36118621 -10.12502201
  -9.89714428  -9.67755301  -9.47246305  -9.27773117  -9.0975006
  -8.92969972  -8.77432854  -8.62931543  -8.49258879  -8.36414862
  -8.24192329  -8.12591281  -8.01197394  -7.90424992  -7.80066913
  -7.69915996  -7.60179402  -7.50442808  -7.40706214  -7.30555297
  -7.19990056  -7.08389008  -6.95752152  -6.81872326  -6.6654237 ]",,-0.11911790601078551,4.690675000000001,0.46465500000000004
040,2,2,csm,11a.png,1,1,312,339,312,1,1,533,neu_feedback_onset,8,"[  4.56595199   3.93802603   3.35661311   2.82403887   2.33797766
   1.89145253   1.47516088   1.08212574   0.70071886   0.31931198
  -0.07139751  -0.47838656  -0.91095777  -1.37143681  -1.86447497
  -2.39239791  -2.95055432  -3.5389442   -4.1459393   -4.7668883
  -5.39016296  -6.00180936  -6.58787359  -7.13905304  -7.64371946
  -8.09722154  -8.49490799  -8.83677879  -9.12748525  -9.37400433
  -9.58098733  -9.75773686  -9.91122987 -10.04844333 -10.17170287
 -10.28798545 -10.39729108 -10.50427106 -10.60892539 -10.71125406
 -10.81358274 -10.91126011 -11.00893748 -11.0996379  -11.18336136
 -11.26010786 -11.32290046 -11.36708784 -11.39267001 -11.39267001
 -11.36708784 -11.3066209  -11.21824613 -11.09731224 -10.95079619
 -10.78102361 -10.59264582 -10.39263978 -10.19030808  -9.98565073
  -9.78797033  -9.59959255  -9.41819171  -9.24376783  -9.07864656
  -8.91585094  -8.75072967  -8.5809571   -8.39955627  -8.20420152
  -7.98791591  -7.75069944  -7.49022645  -7.20184564  -6.89020831
  -6.55298881  -6.19483845  -5.82040852  -5.42969904  -5.02968694
  -4.62502355  -4.21570885  -3.80639415  -3.3994051   -2.9947417
  -2.59240396  -2.19006621  -1.79005412  -1.39236768  -0.99235558
  -0.59466914  -0.201634     0.18442418   0.56117976   0.92630707
   1.27282918   1.59842042   1.89842949   2.17518204   2.42402677
   2.64728934   2.84264408   3.01474231   3.16823532   3.30079747
   3.42173135   3.53103698   3.63336566   3.73336868   3.83104605
   3.92872343   4.0264008    4.12640382   4.22640684   4.33106117
   4.4357155    4.54036983   4.6473498    4.75665543   4.86828672
   4.98224365   5.10085189   5.22178577   5.35202227   5.48691007
   5.63342613   5.79157044   5.96134302   6.14739515   6.34972685
   6.56833811   6.80090328   7.04742236   7.30324405   7.56139139
   7.81721308   8.06605781   8.29397168   8.50095468   8.67537856
   8.81491766   8.91957199   8.98701589   9.01724936   9.01957501
   8.99399284   8.95213111   8.89631547   8.83119722   8.76607897
   8.69863508   8.63351683   8.56607293   8.49862903   8.42420817
   8.34048471   8.24745864   8.14047867   8.01954478   7.88465698
   7.74046657   7.58929921   7.43348055   7.27998753   7.13114583
   6.98928107   6.85904458   6.74508764   6.64973592   6.57298942
   6.51949943   6.49391726   6.49856856   6.53810464   6.6171768
   6.73811069   6.90323196   7.11719192   7.37533925   7.67534832
   8.01489347   8.38467209   8.78003288   9.19167324   9.61029054
  10.0312335   10.44752516  10.85916551  11.26150325  11.6591897
  12.05222483  12.44060867  12.82666685  13.21272504  13.59645757
  13.9755388   14.34764307  14.70579343  15.04766423  15.36627852
  15.65931063  15.92210927  16.15467444  16.35468049  16.52677872
  16.66864347  16.78725171  16.88260343  16.95934993  17.01749123
  17.05935296  17.08260947  17.08726078  17.07563252  17.04074774
  16.9849321   16.9081856   16.80818257  16.69189999  16.55701219
  16.40817048  16.24770051  16.08025359  15.90582971  15.72442888
  15.53372544  15.33139374  15.11045683  14.86393775  14.58485954
  14.27089656  13.9127462   13.51505976  13.07551159  12.59642733
  12.08245831  11.54290711  10.9847507   10.41264038   9.83122746
   9.24748888   8.659099     8.07303477   7.48464488   6.89392935
   6.30088817   5.70552133   5.10782884   4.51013635   3.91476952
   3.32637963   2.74729236   2.182159     1.63563084   1.11003356
   0.60769279   0.12860854  -0.32721919  -0.75746476  -1.16212816]","[ -3.0243097   -2.75667167  -2.49356988  -2.22819998  -1.96509819
  -1.69519204  -1.41621342  -1.12362609  -0.81062568  -0.47721221
  -0.11658131   0.2689989    0.67726029   1.10593476   1.55048606
   2.00184171   2.4577336    2.90908926   3.35137244   3.78458314
   4.20418513   4.61244653   5.00936733   5.39721566   5.77825963
   6.15249924   6.51766638   6.86695668   7.19810204   7.50202997
   7.76966799   7.98967552   8.1552482    8.25504543   8.28679909
   8.24370484   8.13029889   7.94658126   7.69708819   7.39316026
   7.04160184   6.65148539   6.23868776   5.81001329   5.37680259
   4.95039624   4.53533049   4.13614157   3.75736572   3.39900293
   3.05198075   2.71176292   2.36700885   2.00184171   1.60265279
   1.16036961   0.66138346   0.09888998  -0.52484271  -1.21208272
  -1.95375759  -2.74079484  -3.55731763  -4.39425349  -5.23799371
  -6.07492957  -6.89372049  -7.68756209  -8.44511379  -9.16183935
  -9.82413006 -10.42518156 -10.95592138 -11.40500891 -11.76790793
 -12.0400822  -12.21472735 -12.29637963 -12.28730715 -12.1965824
 -12.03327784 -11.80873407 -11.53655981 -11.22582752 -10.88787781
 -10.53178315 -10.16661601  -9.79691264  -9.4317455   -9.07791896
  -8.73770113  -8.42016448  -8.13211339  -7.87808407  -7.66261278
  -7.49023575  -7.36548921  -7.28610505  -7.25435139  -7.26115574
  -7.29971376  -7.35641674  -7.4244603   -7.48343139  -7.52198941
  -7.52879377  -7.49477199  -7.41311971  -7.28156881  -7.10238742
  -6.88464801  -6.63288682  -6.35617631  -6.06812522  -5.777806
  -5.48748679  -5.21077629  -4.94313826  -4.69364518  -4.46002894
  -4.24002141  -4.03362259  -3.83856437  -3.65484674  -3.48020159
  -3.31236079  -3.15132435  -2.99709227  -2.84512831  -2.69316434
  -2.5434685   -2.39150453  -2.23727245  -2.08077225  -1.92200393
  -1.76096749  -1.59993105  -1.44569897  -1.30053936  -1.1735247 ]",15.78204689909229,5.429763163027843,4.29987,-0.7703649999999991
040,2,2,csp,45b.png,1,1,288,305,287,1,1,400,pos_feedback_onset,9,"[-1.64800025e+00 -1.47047779e+00 -1.28840346e+00 -1.10860506e+00
 -9.26530733e-01 -7.46732335e-01 -5.66933937e-01 -3.87135538e-01
 -2.05061211e-01 -2.52628129e-02  1.52259656e-01  3.27506196e-01
  4.98200878e-01  6.62067773e-01  8.16830951e-01  9.57938554e-01
  1.08766651e+00  1.19918704e+00  1.29705199e+00  1.37443358e+00
  1.43588366e+00  1.47912632e+00  1.50416154e+00  1.51326525e+00
  1.50643747e+00  1.48367817e+00  1.44953924e+00  1.40174473e+00
  1.34484650e+00  1.28112049e+00  1.21056668e+00  1.13318509e+00
  1.05352758e+00  9.67042271e-01  8.76005107e-01  7.75864227e-01
  6.64343702e-01  5.34615744e-01  3.86680353e-01  2.09157883e-01
 -2.27592909e-04 -2.48303864e-01 -5.35070929e-01 -8.67356577e-01
 -1.24060895e+00 -1.65255211e+00 -2.09408236e+00 -2.56064782e+00
 -3.03404107e+00 -3.50288246e+00 -3.95124050e+00 -4.36773552e+00
 -4.73871196e+00 -5.05734203e+00 -5.31679795e+00 -5.51935564e+00
 -5.66501510e+00 -5.75832819e+00 -5.81067456e+00 -5.82433014e+00
 -5.81295049e+00 -5.77653563e+00 -5.72646519e+00 -5.66046324e+00
 -5.58535758e+00 -5.49887228e+00 -5.40328326e+00 -5.29631459e+00
 -5.17569035e+00 -5.04141053e+00 -4.89119921e+00 -4.72505639e+00
 -4.54298206e+00 -4.34725216e+00 -4.13786668e+00 -3.91710156e+00
 -3.68723272e+00 -3.45281202e+00 -3.21156354e+00 -2.97031506e+00
 -2.72679064e+00 -2.48099030e+00 -2.23746589e+00 -1.99621741e+00
 -1.75496892e+00 -1.51827230e+00 -1.28385160e+00 -1.05625869e+00
 -8.35493569e-01 -6.23832164e-01 -4.23550404e-01 -2.36924218e-01
 -7.07813947e-02  7.48780671e-02  1.97778238e-01  2.95643189e-01
  3.66196991e-01  4.07163714e-01  4.20819289e-01  4.07163714e-01
  3.68472920e-01  3.09298763e-01  2.29641245e-01  1.34052223e-01
  3.16354144e-02 -7.76091820e-02 -1.89129707e-01 -2.96098375e-01
 -4.03067042e-01 -5.03207922e-01 -5.98796944e-01 -6.92110037e-01
 -7.80871271e-01 -8.67356577e-01 -9.53841882e-01 -1.03805126e+00
 -1.11998471e+00 -1.20191815e+00 -1.28385160e+00 -1.35895726e+00
 -1.42951106e+00 -1.49323708e+00 -1.54558345e+00 -1.58199831e+00
 -1.60248167e+00 -1.59792981e+00 -1.56606681e+00 -1.50234079e+00
 -1.40675177e+00 -1.27474788e+00 -1.10632913e+00 -9.08323300e-01
 -6.80730391e-01 -4.32654120e-01 -1.68646346e-01  1.04465145e-01
  3.77576636e-01  6.46136269e-01  9.05592185e-01  1.14911660e+00
  1.37215765e+00  1.57699127e+00  1.75906559e+00  1.91610470e+00
  2.05038452e+00  2.16190504e+00  2.25066628e+00  2.31894415e+00
  2.36901459e+00  2.40087760e+00  2.41908503e+00  2.43046468e+00
  2.43501653e+00  2.44184432e+00  2.45549990e+00  2.48053512e+00
  2.52377777e+00  2.58977971e+00  2.68081688e+00  2.80144112e+00
  2.95392837e+00  3.13372677e+00  3.34083631e+00  3.57298108e+00
  3.82560921e+00  4.09416884e+00  4.37183219e+00  4.65632333e+00
  4.94309039e+00  5.22758153e+00  5.50524488e+00  5.77152858e+00
  6.02415671e+00  6.25630148e+00  6.46568696e+00  6.64548535e+00
  6.79114482e+00  6.89811348e+00  6.96411543e+00  6.98459879e+00
  6.96183950e+00  6.89811348e+00  6.80024853e+00  6.67507243e+00
  6.53396483e+00  6.38830537e+00  6.25174962e+00  6.13795317e+00
  6.05601972e+00  6.01732892e+00  6.02415671e+00  6.08333087e+00
  6.19257546e+00  6.34278678e+00  6.53168890e+00  6.74335030e+00
  6.96866728e+00  7.19398426e+00  7.41019753e+00  7.60365150e+00
  7.77434618e+00  7.91090193e+00  8.01559467e+00  8.09070033e+00
  8.13621891e+00  8.16125413e+00  8.16580599e+00  8.16125413e+00
  8.15215041e+00  8.14532262e+00  8.14759855e+00  8.16353006e+00
  8.19539306e+00  8.24773943e+00  8.32056916e+00  8.41615819e+00
  8.52995464e+00  8.66195853e+00  8.80534206e+00  8.95100152e+00
  9.08983320e+00  9.21728523e+00  9.31970204e+00  9.38797991e+00
  9.41756699e+00  9.40163548e+00  9.33790947e+00  9.22411301e+00
  9.06707391e+00  8.86906808e+00  8.63919924e+00  8.38884704e+00
  8.12483926e+00  7.85627963e+00  7.59227186e+00  7.33509187e+00
  7.09384338e+00  6.86169862e+00  6.64093350e+00  6.42699616e+00
  6.20850697e+00  5.98318999e+00  5.74194150e+00  5.47565780e+00
  5.17523516e+00  4.84067358e+00  4.46514528e+00  4.04409840e+00
  3.57980887e+00  3.07227668e+00  2.52377777e+00  1.93886399e+00
  1.32208721e+00  6.75723347e-01  1.11520525e-02 -6.69350746e-01
 -1.35895726e+00 -2.05083970e+00 -2.73589436e+00 -3.41412123e+00]","[-3.03284011 -2.77308173 -2.48756219 -2.17842825 -1.84997343 -1.50649128
 -1.1522753  -0.79161904 -0.42452248 -0.05957269  0.30108358  0.65315279
  0.99234142  1.31435594  1.61275607  1.88324827  2.12153901  2.31904126
  2.47360823  2.58523993  2.64964283  2.6689637   2.64534931  2.58309316
  2.4929291   2.37915063  2.25463835  2.12583254  2.00561379  1.90042238
  1.81884536  1.76302951  1.73941511  1.74800217  1.78664391  1.85104682
  1.93691735  2.03781524  2.14944694  2.26537217  2.37915063  2.48648881
  2.58523993  2.67325723  2.75268748  2.82353067  2.89008034  2.95663001
  3.02317968  3.0983164   3.17774665  3.26791072  3.36451507  3.46755972
  3.57275113  3.68008931  3.78313395  3.88188507  3.9741959   4.05362615
  4.12446935  4.18457872  4.23395428  4.27259603  4.30050395  4.31767806
  4.32626511  4.32411835  4.31338453  4.29406366  4.27044926  4.24039458
  4.20819312  4.17813843  4.15023051  4.13090964  4.12017582  4.12232258
  4.13734993  4.16525785  4.20604636  4.25971545  4.32411835  4.39710831
  4.47653856  4.56026233  4.64613287  4.73200341  4.81572719  4.89301067
  4.96385387  5.02611001  5.07333881  5.10554026  5.1205676   5.11842084
  5.09480644  5.05401794  4.99820209  4.93165242  4.86080922  4.78781926
  4.71697607  4.65686669  4.60534437  4.5624091   4.52591412  4.4915659
  4.45292416  4.40140184  4.33055864  4.23180752  4.10085495  3.93555416
  3.73375839  3.49976117  3.23785603  2.95448325  2.65608312  2.35124271
  2.04210877  1.73726835  1.43672146  1.14261487  0.85709532  0.57586931
  0.30108358  0.03273814 -0.23346053 -0.49536567 -0.75727082 -1.0170292
 -1.27678758 -1.53654596 -1.80274464 -2.07323684 -2.35446285 -2.64642269
 -2.94911634 -3.2689841 ]",8.101567887550889,4.5821056529649695,4.39381,0.7491200000000005
040,2,2,csp,13b.png,1,1,356,338,356,1,0,NaN,neg_feedback_onset,10,"[-8.59337372e-01 -6.17367879e-01 -4.21487813e-01 -2.64783760e-01
 -1.47255720e-01 -5.73813370e-02  4.83938987e-03  4.86243458e-02
  7.85824736e-02  9.93227159e-02  1.15454015e-01  1.29280844e-01
  1.47716615e-01  1.66152385e-01  1.89197099e-01  2.14546284e-01
  2.44504412e-01  2.76767011e-01  3.09029610e-01  3.43596681e-01
  3.75859280e-01  4.08121879e-01  4.35775535e-01  4.56515778e-01
  4.70342606e-01  4.72647077e-01  4.65733663e-01  4.44993421e-01
  4.10426350e-01  3.57423509e-01  2.85984896e-01  1.96110513e-01
  8.31914163e-02 -5.04679229e-02 -2.04867504e-01 -3.77702857e-01
 -5.62060566e-01 -7.57940632e-01 -9.58429641e-01 -1.15200524e+00
 -1.33405847e+00 -1.49998041e+00 -1.63824869e+00 -1.75116779e+00
 -1.83412876e+00 -1.88943607e+00 -1.91708973e+00 -1.92169867e+00
 -1.91017632e+00 -1.88713160e+00 -1.85717347e+00 -1.82491087e+00
 -1.79264828e+00 -1.76038568e+00 -1.73273202e+00 -1.70968731e+00
 -1.68894706e+00 -1.67051129e+00 -1.65437999e+00 -1.64055317e+00
 -1.62672634e+00 -1.61289951e+00 -1.60137715e+00 -1.59215927e+00
 -1.58294138e+00 -1.57602797e+00 -1.57372350e+00 -1.57833244e+00
 -1.59215927e+00 -1.61750845e+00 -1.66129341e+00 -1.72581861e+00
 -1.81799746e+00 -1.93782997e+00 -2.08762061e+00 -2.26967385e+00
 -2.48168521e+00 -2.71904576e+00 -2.97253761e+00 -3.23985629e+00
 -3.51178391e+00 -3.78140706e+00 -4.04642127e+00 -4.29760865e+00
 -4.53957814e+00 -4.76541634e+00 -4.97973217e+00 -5.18022118e+00
 -5.36918784e+00 -5.54202319e+00 -5.70103171e+00 -5.84160447e+00
 -5.95913250e+00 -6.04670242e+00 -6.09970526e+00 -6.11122761e+00
 -6.07896502e+00 -6.00061299e+00 -5.87617154e+00 -5.71255407e+00
 -5.51667400e+00 -5.29544475e+00 -5.06499761e+00 -4.83455048e+00
 -4.61332123e+00 -4.41283222e+00 -4.23769239e+00 -4.08790176e+00
 -3.96346030e+00 -3.85975909e+00 -3.77218918e+00 -3.69844609e+00
 -3.62931195e+00 -3.56478676e+00 -3.50256603e+00 -3.44495424e+00
 -3.38964693e+00 -3.34355750e+00 -3.31129491e+00 -3.29285913e+00
 -3.29055466e+00 -3.31129491e+00 -3.35047092e+00 -3.40577823e+00
 -3.47721684e+00 -3.56017781e+00 -3.64544325e+00 -3.72840422e+00
 -3.80445178e+00 -3.86897698e+00 -3.91506640e+00 -3.94041559e+00
 -3.94502453e+00 -3.92889323e+00 -3.89202169e+00 -3.84132332e+00
 -3.77679812e+00 -3.70305504e+00 -3.62700748e+00 -3.54865546e+00
 -3.47260790e+00 -3.40116929e+00 -3.32742621e+00 -3.25137865e+00
 -3.16841768e+00 -3.07162988e+00 -2.95640632e+00 -2.81583356e+00
 -2.64530268e+00 -2.44711814e+00 -2.21897548e+00 -1.97009257e+00
 -1.70507836e+00 -1.44006416e+00 -1.18657231e+00 -9.63038584e-01
 -7.87898760e-01 -6.72675192e-01 -6.38108121e-01 -6.91110963e-01
 -8.38597130e-01 -1.08287109e+00 -1.42393286e+00 -1.85026006e+00
 -2.35033035e+00 -2.90801242e+00 -3.50717497e+00 -4.12707777e+00
 -4.74928504e+00 -5.35766548e+00 -5.93608779e+00 -6.47533409e+00
 -6.96157755e+00 -7.39020922e+00 -7.75431570e+00 -8.05389698e+00
 -8.28895306e+00 -8.45487499e+00 -8.55627173e+00 -8.59775222e+00
 -8.58392539e+00 -8.51709572e+00 -8.40878557e+00 -8.26590834e+00
 -8.10229087e+00 -7.92484658e+00 -7.74509781e+00 -7.57226246e+00
 -7.41325394e+00 -7.27729013e+00 -7.16437103e+00 -7.07680112e+00
 -7.01458039e+00 -6.97540438e+00 -6.95235966e+00 -6.94083731e+00
 -6.93853284e+00 -6.93853284e+00 -6.93392389e+00 -6.92240154e+00
 -6.90166129e+00 -6.86478975e+00 -6.81639585e+00 -6.74956618e+00
 -6.66890969e+00 -6.57212189e+00 -6.46381173e+00 -6.34397922e+00
 -6.21723330e+00 -6.08357396e+00 -5.94991462e+00 -5.81625528e+00
 -5.68720488e+00 -5.56276343e+00 -5.44293092e+00 -5.33231629e+00
 -5.22861508e+00 -5.12952281e+00 -5.03273502e+00 -4.93825169e+00
 -4.83685495e+00 -4.73084927e+00 -4.61101676e+00 -4.47274847e+00
 -4.31373995e+00 -4.12246883e+00 -3.89202169e+00 -3.61778960e+00
 -3.28825019e+00 -2.90570795e+00 -2.46094497e+00 -1.95857021e+00
 -1.40780156e+00 -8.15552416e-01 -1.95649619e-01  4.28862121e-01
  1.04415598e+00  1.62488276e+00  2.15721565e+00  2.62502333e+00
  3.01447899e+00  3.31636474e+00  3.52607164e+00  3.64359968e+00
  3.67125333e+00  3.61594602e+00  3.48228668e+00  3.28179767e+00
  3.02600135e+00  2.72642007e+00  2.39688067e+00  2.04660102e+00
  1.69401690e+00  1.34834620e+00  1.02111126e+00  7.19225513e-01
  4.54211306e-01  2.30677584e-01  4.86243458e-02 -8.73394648e-02]","[-3.95466477 -3.37290895 -2.7981064  -2.24416361 -1.72498711 -1.24753015
 -0.82106373 -0.44558787 -0.1187848   0.16398097  0.41198046  0.64143793
  0.8616244   1.09108187  1.34371686  1.63575365  1.97878098  2.37975212
  2.84562032  3.37406783  3.9627769   4.60015877  5.26998916  5.95836158
  6.64905175  7.3258354   7.97480603  8.58901038  9.16381293  9.69226045
 10.17667066 10.61704359 11.01569698 11.37726633 11.70175164 11.99378842
 12.25337668 12.4897874  12.70302061 12.90002955 13.08544973 13.26391665
 13.44006582 13.61853275 13.80163517 13.98937311 14.18406429 14.38107324
 14.58271768 14.78436213 14.97905331 15.16679125 15.34294042 15.49591206
 15.62802394 15.72768729 15.7902666  15.81344412 15.79258435 15.72768729
 15.61643518 15.46346353 15.27340785 15.05090363 14.80753965 14.54563364
 14.27213888 13.99864411 13.72514935 13.45397234 13.18743083 12.92320707
 12.65898332 12.39475956 12.1212648  11.84081678 11.54877999 11.2428367
 10.92530464 10.59386607 10.25315649  9.9031759   9.54624205  9.18235495
  8.8161501   8.44530974  8.07678713  7.70826453  7.34205967  6.98280807
  6.62819198  6.2828469   5.94909057  5.63155851  5.32793297  5.04284944
  4.77167243  4.51671969  4.2733557   4.03462722  3.79821649  3.55948801
  3.31148852  3.04958251  2.77608775  2.48868647  2.18969643  1.88375314
  1.57549209  1.26954879  0.97055875  0.68779298  0.42356922  0.18715849
 -0.02143921 -0.19527063 -0.33201801 -0.4247281  -0.4734009  -0.4780364
 -0.43631686 -0.34824227 -0.21844815 -0.05156999  0.15239221  0.38648519
  0.64607344  0.92188596  1.20928723  1.49900626  1.78640754  2.06222006
  2.32180831  2.55590129  2.75986348  2.9290594   3.06117128  3.15388137
  3.20718967  3.22341393]",0.6132838435305132,14.139273732334413,4.339389999999999,-0.6184499999999975
040,2,2,csp,36b.png,1,1,212,330,212,1,1,319,pos_feedback_onset,11,"[-1.15531662e+00 -1.14099303e+00 -1.10518406e+00 -1.05027698e+00
 -9.83433579e-01 -9.04653853e-01 -8.09163276e-01 -7.01736377e-01
 -5.79985891e-01 -4.41524555e-01 -2.81577839e-01 -1.02533007e-01
  1.02771733e-01  3.36723647e-01  6.01709998e-01  9.00118050e-01
  1.23433507e+00  1.60674832e+00  2.01497054e+00  2.45900172e+00
  2.93406734e+00  3.43300560e+00  3.95104198e+00  4.47385289e+00
  4.99666380e+00  5.50753838e+00  5.99692759e+00  6.46005689e+00
  6.88737722e+00  7.27888859e+00  7.63220372e+00  7.94970989e+00
  8.22901983e+00  8.47729532e+00  8.69214912e+00  8.87358122e+00
  9.02397888e+00  9.13856757e+00  9.21257277e+00  9.24360720e+00
  9.22212182e+00  9.14572936e+00  9.00488076e+00  8.79718876e+00
  8.52026608e+00  8.17172548e+00  7.75634147e+00  7.27411406e+00
  6.73697956e+00  6.15448704e+00  5.53379829e+00  4.88923690e+00
  4.23512645e+00  3.57624147e+00  2.92929281e+00  2.29666774e+00
  1.68791531e+00  1.10064826e+00  5.39641123e-01  2.50662764e-03
 -5.15529752e-01 -1.02162981e+00 -1.51818081e+00 -2.00995728e+00
 -2.50412102e+00 -3.00067201e+00 -3.50199754e+00 -4.00809760e+00
 -4.51658492e+00 -5.02507224e+00 -5.52878504e+00 -6.02294877e+00
 -6.50040166e+00 -6.95875643e+00 -7.38846402e+00 -7.78713718e+00
 -8.14761411e+00 -8.46512028e+00 -8.73726842e+00 -8.95928401e+00
 -9.13355431e+00 -9.25291754e+00 -9.32453547e+00 -9.34840811e+00
 -9.32453547e+00 -9.26246659e+00 -9.16220149e+00 -9.03328921e+00
 -8.87811702e+00 -8.70623398e+00 -8.52480189e+00 -8.33859526e+00
 -8.15238864e+00 -7.97811833e+00 -7.81817162e+00 -7.67732302e+00
 -7.56273432e+00 -7.47918007e+00 -7.42904752e+00 -7.41472393e+00
 -7.44098384e+00 -7.50782724e+00 -7.61286688e+00 -7.75849001e+00
 -7.93753484e+00 -8.15238864e+00 -8.39588961e+00 -8.66803775e+00
 -8.96167128e+00 -9.27679018e+00 -9.60623267e+00 -9.95238601e+00
 -1.03057011e+01 -1.06637908e+01 -1.10266550e+01 -1.13871319e+01
 -1.17428343e+01 -1.20866004e+01 -1.24184302e+01 -1.27287745e+01
 -1.30176335e+01 -1.32754581e+01 -1.35022482e+01 -1.36932294e+01
 -1.38436270e+01 -1.39558284e+01 -1.40298336e+01 -1.40632553e+01
 -1.40632553e+01 -1.40369954e+01 -1.39868629e+01 -1.39224067e+01
 -1.38507888e+01 -1.37815581e+01 -1.37194893e+01 -1.36693567e+01
 -1.36335477e+01 -1.36072878e+01 -1.35905770e+01 -1.35762534e+01
 -1.35547680e+01 -1.35237336e+01 -1.34688265e+01 -1.33900468e+01
 -1.32802326e+01 -1.31369967e+01 -1.29627264e+01 -1.27621962e+01
 -1.25354061e+01 -1.22919051e+01 -1.20340806e+01 -1.17690942e+01
 -1.15017206e+01 -1.12319597e+01 -1.09645861e+01 -1.06995998e+01
 -1.04393880e+01 -1.01839507e+01 -9.93090063e+00 -9.68739966e+00
 -9.45106048e+00 -9.22665763e+00 -9.01896562e+00 -8.83037173e+00
 -8.66326322e+00 -8.52002736e+00 -8.40543867e+00 -8.31710988e+00
 -8.25742827e+00 -8.22639383e+00 -8.22161931e+00 -8.24310469e+00
 -8.28607544e+00 -8.34575706e+00 -8.42214952e+00 -8.51047830e+00
 -8.60358161e+00 -8.70145945e+00 -8.79456277e+00 -8.88289155e+00
 -8.95928401e+00 -9.02135289e+00 -9.06909818e+00 -9.09774535e+00
 -9.10490714e+00 -9.09535808e+00 -9.06671091e+00 -9.02135289e+00
 -8.95928401e+00 -8.88289155e+00 -8.79456277e+00 -8.69429766e+00
 -8.58448350e+00 -8.46750754e+00 -8.34098253e+00 -8.21207025e+00
 -8.07599618e+00 -7.93753484e+00 -7.79668624e+00 -7.65583764e+00
 -7.51498904e+00 -7.37414044e+00 -7.24045363e+00 -7.11154135e+00
 -6.99217813e+00 -6.87997670e+00 -6.77732433e+00 -6.68660828e+00
 -6.60782856e+00 -6.53621062e+00 -6.46936722e+00 -6.40968561e+00
 -6.34761673e+00 -6.28316059e+00 -6.21392993e+00 -6.13276294e+00
 -6.03965962e+00 -5.92984546e+00 -5.80809497e+00 -5.66963364e+00
 -5.51923598e+00 -5.35451473e+00 -5.17785717e+00 -4.99165054e+00
 -4.79589486e+00 -4.59297738e+00 -4.38051085e+00 -4.16326979e+00
 -3.94125420e+00 -3.70968955e+00 -3.47573763e+00 -3.23939846e+00
 -2.99828475e+00 -2.75478378e+00 -2.51128281e+00 -2.27016910e+00
 -2.03382992e+00 -1.80226528e+00 -1.58263695e+00 -1.37733221e+00
 -1.18873832e+00 -1.02879160e+00 -8.97492059e-01 -8.04388747e-01
 -7.54256194e-01 -7.51868930e-01 -7.99614218e-01 -9.04653853e-01
 -1.06221330e+00 -1.27467984e+00 -1.53727892e+00 -1.84762330e+00
 -2.19855117e+00 -2.58528801e+00 -3.00305928e+00 -3.44709046e+00
 -3.91260702e+00 -4.39483444e+00 -4.88899817e+00 -5.39032370e+00]","[-1.98823681 -1.70060762 -1.44470223 -1.21417589 -1.00268383 -0.80599622
 -0.61776829 -0.43165528 -0.24342736 -0.05308451  0.13937326  0.33606088
  0.53274849  0.72732118  0.91554911  1.09320243  1.2539364   1.39563607
  1.5119567   1.59655353  1.64942654  1.66423098  1.64096686  1.58597892
  1.49715226  1.38506147  1.2539364   1.11223672  0.97053704  0.83941197
  0.72520626  0.63426467  0.57293198  0.54332309  0.54755293  0.58139166
  0.64483928  0.73366594  0.84152689  0.9663072   1.10377704  1.24970655
  1.40198083  1.55848496  1.717104    1.87572304  2.03434208  2.19296112
  2.34312048  2.48905     2.62228999  2.73861062  2.83589697  2.90357443
  2.93952808  2.93529824  2.88454014  2.78513888  2.63074968  2.42137254
  2.15489255  1.83342463  1.46542845  1.05724878  0.61734531  0.16263739
 -0.29418545 -0.73620384 -1.15072827 -1.52295429 -1.84230729 -2.10244252
 -2.29913013 -2.43237013 -2.50850727 -2.52965647 -2.50427743 -2.44294473
 -2.35200315 -2.23991236 -2.11513205 -1.98189205 -1.84653713 -1.71329714
 -1.58851683 -1.47854096 -1.38759937 -1.32415176 -1.29242795 -1.30088763
 -1.35587557 -1.45950667 -1.61178095 -1.81481333 -2.06225903 -2.34354346
 -2.65020694 -2.96533011 -3.27833835 -3.57231231 -3.83667738 -4.06085895
 -4.23851228 -4.36540751 -4.43942973 -4.46269386 -4.43519989 -4.36329259
 -4.24485704 -4.086238   -3.88743547 -3.65056437 -3.37985454 -3.07530598
 -2.74537837 -2.39218664 -2.02207554 -1.64138984 -1.2564743  -0.87155876
 -0.49087306 -0.12076196  0.23877453  0.58773642  0.92189387  1.24336179
  1.55002527  1.84399923  2.1189389   2.37484429  2.60960047  2.81897761
  2.99663093  3.14044553  3.24619156  3.31386901  3.3434779   3.3329033
  3.28426013  3.20389315]",6.210587756436948,1.4902787676780829,4.1888950000000005,-0.19481500000000018
040,2,2,csm,61a.png,1,1,36,38,36,1,1,419,neu_feedback_onset,12,"[  1.32249854   1.14915314   0.98003568   0.82148806   0.66928235
   0.52764648   0.39658044   0.27185632   0.15558806   0.04354775
  -0.06849257  -0.18264686  -0.30314305  -0.42786718  -0.55893321
  -0.69422718  -0.83163511  -0.96481511  -1.09376718  -1.2121494
  -1.31996178  -1.41509035  -1.50176305  -1.58632178  -1.67299448
  -1.77235099  -1.89284718  -2.04293892  -2.2310821   -2.45939067
  -2.73420654  -3.05130178  -3.41067639  -3.80810242  -4.23723797
  -4.69385512  -5.17372591  -5.66839448  -6.1736329   -6.68732718
  -7.20102147  -7.71048782  -8.20938433  -8.69348306  -9.15644211
  -9.59191957  -9.99357354 -10.35717608 -10.68061322 -10.95965703
 -11.19642147 -11.38879259 -11.54522624 -11.66572243 -11.75662306
 -11.82427005 -11.87289132 -11.90671481 -11.93208243 -11.94899417
 -11.96167798 -11.97013386 -11.97858973 -11.98493163 -11.98915957
 -11.99338751 -11.99338751 -11.99338751 -11.98915957 -11.98281767
 -11.96801989 -11.94899417 -11.92362655 -11.894031   -11.86020751
 -11.82638402 -11.79890243 -11.78410465 -11.78833259 -11.82427005
 -11.894031   -12.00818529 -12.16884687 -12.37812973 -12.62969195
 -12.92353354 -13.24908465 -13.59788941 -13.96360592 -14.3377783
 -14.71195069 -15.08189513 -15.44972561 -15.80910021 -16.16636085
 -16.51939354 -16.87242624 -17.22968688 -17.58694751 -17.95055005
 -18.31415259 -18.6798691  -19.04558561 -19.40284625 -19.75376498
 -20.0919999  -20.41332307 -20.71350657 -20.98832244 -21.23565673
 -21.45128149 -21.63308276 -21.77894657 -21.88253101 -21.94383609
 -21.96497577 -21.93960815 -21.8698472  -21.75569292 -21.59925927
 -21.39843228 -21.15321196 -20.86994022 -20.54650307 -20.18712847
 -19.79393037 -19.37325069 -18.92720339 -18.46635831 -17.99282942
 -17.51507259 -17.04365767 -16.58069862 -16.13465132 -15.71185767
 -15.31231767 -14.93814529 -14.59145449 -14.27013132 -13.97628973
 -13.7057018  -13.46470941 -13.24908465 -13.06939735 -12.92353354
 -12.8199491  -12.76075798 -12.75230211 -12.79458148 -12.88971005
 -13.03557386 -13.22794497 -13.46048148 -13.72684148 -14.0185691
 -14.32720846 -14.64218973 -14.95928497 -15.26581037 -15.55542402
 -15.82389799 -16.06489037 -16.27417323 -16.44751862 -16.58069862
 -16.67794116 -16.73501831 -16.75404402 -16.74347418 -16.70330878
 -16.63988974 -16.56167291 -16.47288624 -16.37987164 -16.28685704
 -16.20018434 -16.12196751 -16.05432053 -15.99724339 -15.95496402
 -15.9232545  -15.90422878 -15.89154497 -15.88731704 -15.88520307
 -15.8830891  -15.87674719 -15.86194942 -15.83446783 -15.7900745
 -15.72665545 -15.63998275 -15.53217037 -15.40110434 -15.24467069
 -15.06921132 -14.87261227 -14.65698751 -14.424451   -14.17500275
 -13.91075672 -13.63171291 -13.34209926 -13.04191576 -12.7332764
 -12.42252306 -12.11176973 -11.80947227 -11.51985862 -11.24715671
 -10.99982243 -10.77785576 -10.58759862 -10.43116497 -10.30644084
 -10.21131227 -10.14366528 -10.10138592 -10.07813227 -10.07179036
 -10.08024624 -10.10138592 -10.13520941 -10.18171671 -10.24724973
 -10.32969449 -10.43750687 -10.57068687 -10.73346243 -10.92371957
 -11.14357227 -11.39090655 -11.66360846 -11.95745005 -12.26820338
 -12.58952656 -12.9193056  -13.25331259 -13.58731957 -13.92132656
 -14.24899164 -14.57242878 -14.89163799 -15.20873323 -15.52160053
 -15.83869577 -16.155791   -16.47922815 -16.8090072  -17.14512815
 -17.48547704 -17.83005386 -18.16828878 -18.49806783 -18.8130491
 -19.10266275 -19.36056688 -19.58464752 -19.76644879 -19.90808466]","[ -2.86661873  -2.55042171  -2.2178293   -1.87352588  -1.52688026
  -1.17789244  -0.83593122  -0.50099661  -0.17543079   0.13373963
   0.42417244   0.69586766   0.94648307   1.17133428   1.37276349
   1.5460863    1.69364491   1.81778151   1.92083832   2.00281532
   2.06839693   2.11992533   2.15974273   2.19487573   2.22063994
   2.23937754   2.25343074   2.25577294   2.24874634   2.22766654
   2.19253353   2.14334733   2.07776573   1.99813092   1.90444292
   1.80138611   1.68896051   1.5695083    1.4477139    1.32123509
   1.19241408   1.06125088   0.92540327   0.78721346   0.64199705
   0.49443845   0.33985324   0.17824143   0.01194522  -0.16371979
  -0.3440692   -0.53847181  -0.74224322  -0.96006783  -1.19428784
  -1.44724546  -1.72128287  -2.01405789  -2.3302549   -2.66284732
  -3.01651954  -3.38190276  -3.76133918  -4.1501444   -4.54597622
  -4.94649244  -5.34935086  -5.75455148  -6.1574099   -6.55792612
  -6.95141574  -7.34022096  -7.71497298  -8.0756718   -8.41529082
  -8.72914564  -9.01020965  -9.25379846  -9.45522767  -9.60981288
  -9.71989629  -9.78313569  -9.80421549  -9.79016229  -9.75034489
  -9.68944769  -9.62152388  -9.55360008  -9.49270288  -9.44351667
  -9.41072587  -9.39667267  -9.39901487  -9.41541027  -9.44585887
  -9.48567628  -9.53486248  -9.59107528  -9.64963028  -9.71052749
  -9.77376689  -9.83700629  -9.9025879   -9.9658273  -10.0314089
 -10.09699051 -10.16257211 -10.22815371 -10.29373532 -10.35931692
 -10.42489852 -10.48813793 -10.55371953 -10.61930113 -10.68488274
 -10.75046434 -10.81604594 -10.88162755 -10.94720915 -11.01044855
 -11.07603016 -11.14161176 -11.20485116 -11.26574837 -11.32430337
 -11.38051617 -11.42736018 -11.46483538 -11.49059958 -11.49528398
 -11.47654638 -11.42501798 -11.33835657 -11.20719337 -11.02918616
 -10.80199274 -10.52327093 -10.19536291  -9.81826869  -9.40135707]",4.640732242933154e-15,1.4656317265059915,4.73044,-0.1019600000000005
040,2,2,csp,31b.png,1,1,328,344,327,1,1,373,pos_feedback_onset,13,"[-5.33955897e-01 -4.50741991e-01 -3.69839582e-01 -2.98183163e-01
 -2.31149739e-01 -1.71050807e-01 -1.13263372e-01 -5.77874347e-02
 -4.62299478e-03  4.85414451e-02  1.01705885e-01  1.52558828e-01
  1.96477278e-01  2.35772734e-01  2.65822200e-01  2.79691184e-01
  2.82002681e-01  2.63510702e-01  2.28838241e-01  1.75673801e-01
  1.04017382e-01  1.61804817e-02 -8.32139060e-02 -1.87231288e-01
 -2.91248671e-01 -3.90643059e-01 -4.78479959e-01 -5.47824881e-01
 -5.96366326e-01 -6.21792797e-01 -6.24104295e-01 -6.00989321e-01
 -5.61693865e-01 -5.06217928e-01 -4.39184504e-01 -3.67528085e-01
 -2.93560168e-01 -2.21903749e-01 -1.52558828e-01 -9.01483981e-02
 -3.23609634e-02  2.08034765e-02  7.16564190e-02  1.17886367e-01
  1.61804817e-01  1.98788775e-01  2.33461236e-01  2.56576210e-01
  2.72756692e-01  2.75068189e-01  2.68133697e-01  2.47330221e-01
  2.19592252e-01  1.82608294e-01  1.41001341e-01  9.70828903e-02
  5.31644399e-02  9.24598955e-03 -3.23609634e-02 -6.93449216e-02
 -1.01705885e-01 -1.29443854e-01 -1.47935833e-01 -1.61804817e-01
 -1.68739309e-01 -1.71050807e-01 -1.71050807e-01 -1.75673801e-01
 -1.91854283e-01 -2.33461236e-01 -3.12052147e-01 -4.39184504e-01
 -6.31038787e-01 -8.96860987e-01 -1.24358559e+00 -1.67352411e+00
 -2.18205353e+00 -2.75761638e+00 -3.38634367e+00 -4.04743193e+00
 -4.72007767e+00 -5.38578891e+00 -6.02145070e+00 -6.61319403e+00
 -7.15177292e+00 -7.62794138e+00 -8.04401091e+00 -8.39998151e+00
 -8.70509916e+00 -8.96629837e+00 -9.19051361e+00 -9.38699089e+00
 -9.56266469e+00 -9.71984652e+00 -9.85853636e+00 -9.98335722e+00
 -1.00896861e+01 -1.01752115e+01 -1.02353104e+01 -1.02722944e+01
 -1.02815404e+01 -1.02653599e+01 -1.02237529e+01 -1.01613425e+01
 -1.00804401e+01 -9.98798021e+00 -9.88858583e+00 -9.78456844e+00
 -9.68286256e+00 -9.58577967e+00 -9.49794277e+00 -9.41472886e+00
 -9.34307244e+00 -9.28066201e+00 -9.22980907e+00 -9.19051361e+00
 -9.16277565e+00 -9.14659516e+00 -9.13966067e+00 -9.14659516e+00
 -9.16046415e+00 -9.18126763e+00 -9.20900559e+00 -9.23443207e+00
 -9.25985854e+00 -9.27372752e+00 -9.27835052e+00 -9.26448153e+00
 -9.23443207e+00 -9.18126763e+00 -9.10729971e+00 -9.01252832e+00
 -8.89464195e+00 -8.75595211e+00 -8.59877028e+00 -8.41847349e+00
 -8.21968471e+00 -8.00009246e+00 -7.75738523e+00 -7.49156303e+00
 -7.20493736e+00 -6.89750821e+00 -6.57158707e+00 -6.22948546e+00
 -5.87813786e+00 -5.52216726e+00 -5.17081966e+00 -4.82871804e+00
 -4.50973140e+00 -4.21848273e+00 -3.96421802e+00 -3.75849475e+00
 -3.60824742e+00 -3.51809902e+00 -3.49729555e+00 -3.54583699e+00
 -3.67065785e+00 -3.86713513e+00 -4.13064583e+00 -4.45656696e+00
 -4.83334104e+00 -5.24709907e+00 -5.68166058e+00 -6.12315658e+00
 -6.55309510e+00 -6.95760714e+00 -7.32051223e+00 -7.63256438e+00
 -7.88220609e+00 -8.06712588e+00 -8.18270075e+00 -8.23355370e+00
 -8.22199621e+00 -8.15727428e+00 -8.04632241e+00 -7.89838657e+00
 -7.72502427e+00 -7.53779298e+00 -7.34131570e+00 -7.14946142e+00
 -6.96223013e+00 -6.78424483e+00 -6.62244002e+00 -6.47219269e+00
 -6.33350284e+00 -6.20637049e+00 -6.08848412e+00 -5.97290925e+00
 -5.85964588e+00 -5.74638251e+00 -5.62618464e+00 -5.50136378e+00
 -5.36729693e+00 -5.22167260e+00 -5.06680227e+00 -4.89806297e+00
 -4.72007767e+00 -4.52822338e+00 -4.32943461e+00 -4.12371134e+00
 -3.91567658e+00 -3.70995331e+00 -3.51809902e+00 -3.34242522e+00
 -3.19680089e+00 -3.08353752e+00 -3.01419259e+00 -2.99107762e+00
 -3.01881559e+00 -3.09971800e+00 -3.22916185e+00 -3.40252416e+00
 -3.61518191e+00 -3.85557764e+00 -4.11677685e+00 -4.38953354e+00
 -4.66460173e+00 -4.93273543e+00 -5.19624613e+00 -5.44588785e+00
 -5.68397208e+00 -5.91049882e+00 -6.12777958e+00 -6.33812584e+00
 -6.54384911e+00 -6.74726088e+00 -6.94604965e+00 -7.14021543e+00
 -7.32744672e+00 -7.50312052e+00 -7.66261384e+00 -7.79899219e+00
 -7.90994406e+00 -7.99084647e+00 -8.03938792e+00 -8.05556840e+00
 -8.03707642e+00 -7.99084647e+00 -7.92150155e+00 -7.83597615e+00
 -7.73889326e+00 -7.63718737e+00 -7.53316999e+00 -7.43377560e+00
 -7.33669271e+00 -7.24192132e+00 -7.14252693e+00 -7.03388655e+00
 -6.90675420e+00 -6.75881836e+00 -6.58083306e+00 -6.36817530e+00
 -6.11622209e+00 -5.82728492e+00 -5.49905229e+00 -5.13614720e+00
 -4.74781563e+00 -4.33636910e+00 -3.91798807e+00 -3.49498405e+00]","[ -4.60987201  -4.1056505   -3.59070087  -3.07145999  -2.55436473
  -2.04156073  -1.53948484  -1.04813706  -0.56966303  -0.10406274
   0.35295506   0.79924474   1.24124317   1.67895036   2.11665755
   2.55007349   2.98348943   3.41475974   3.83959319   4.25798977
   4.6635126    5.05187045   5.41662644   5.75563494   6.06031348
   6.32637079   6.54951563   6.72545675   6.84990291   6.92285411
   6.94431034   6.91641724   6.84132042   6.72331113   6.56668061
   6.37786575   6.16115778   5.92084795   5.65693626   5.37585959
   5.07976355   4.76650253   4.44251338   4.1056505    3.76020512
   3.40403163   3.03927564   2.66808278   2.29045305   1.90424082
   1.51373735   1.11465139   0.71127418   0.30360572  -0.10406274
  -0.51387682  -0.92154528  -1.32277687  -1.71757158  -2.10378381
  -2.48141354  -2.84831515  -3.20877989  -3.56280776  -3.90825314
  -4.25155289  -4.5905614   -4.92956991  -5.26643279  -5.60115005
  -5.93801294  -6.27487582  -6.61388433  -6.95289284  -7.29404697
  -7.6352011   -7.97635523  -8.31536374  -8.64793537  -8.97621576
  -9.29162241  -9.5920097   -9.875232   -10.13699806 -10.37301664
 -10.58328774 -10.76995698 -10.93516999 -11.08321801 -11.22268353
 -11.35785781 -11.50161458 -11.66039072 -11.83847747 -12.04016607
 -12.26545654 -12.51005761 -12.76967805 -13.03358974 -13.29106455
 -13.53566563 -13.75451922 -13.94547971 -14.0999646  -14.22226513
 -14.30809007 -14.36602191 -14.39606064 -14.40678875 -14.39820626
 -14.38104127 -14.35100254 -14.31667257 -14.27590572 -14.23084763
 -14.18149829 -14.12356646 -14.05705213 -13.97551844 -13.881111
 -13.76310171 -13.62149056 -13.45198631 -13.25458895 -13.02715286
 -12.77826054 -12.51005761 -12.23541781 -11.96506925 -11.7140313
 -11.49303209 -11.31494534 -11.18406231 -11.10681986 -11.07678114
 -11.08965488 -11.13256735 -11.19049918 -11.24843101 -11.28705224]",-0.17156447279881348,4.562561016167282,4.3262,-0.3805499999999995
040,2,2,csp,57b.png,1,1,224,294,223,1,1,328,pos_feedback_onset,14,"[ -3.41276606  -3.30535091  -3.13021752  -2.88970099  -2.5791311
  -2.21018342  -1.78986328  -1.32984623  -0.83947273  -0.32808322
   0.18797651   0.69936602   1.19907997   1.6754428    2.12144917
   2.53242887   2.90371166   3.23062733   3.51317587   3.75135728
   3.94750668   4.10629429   4.23005523   4.32812993   4.40051839
   4.45656108   4.50092821   4.53361977   4.55697089   4.57331668
   4.5779869    4.57331668   4.55463578   4.5196091    4.46590153
   4.39584817   4.30944903   4.20903922   4.09928896   3.98486847
   3.8727831    3.76770307   3.67196348   3.59023456   3.5201812
   3.46413852   3.41743628   3.37540427   3.33337225   3.28667001
   3.23062733   3.16290908   3.07884505   2.97843524   2.85700942
   2.71690271   2.56045021   2.3829817    2.19150253   1.98134246
   1.75717171   1.52132541   1.27380355   1.01694124   0.75307359
   0.48453572   0.21366274  -0.05721024  -0.32574811  -0.59195087
  -0.85581852  -1.11735105  -1.37654847  -1.63341078  -1.88560287
  -2.13779495  -2.38531682  -2.62816845  -2.86868498  -3.09986106
  -3.32636692  -3.54353232  -3.74902217  -3.94283646  -4.12497519
  -4.29310325  -4.44955574  -4.58966246  -4.7157585   -4.82550876
  -4.91657813  -4.9889666   -5.03566883  -5.05434973  -5.04500928
  -5.00531238  -4.93759413  -4.83951943  -4.7157585   -4.57098156
  -4.41219395  -4.24640101  -4.08060806  -3.92182045  -3.77704351
  -3.65094747  -3.54820255  -3.47581408  -3.43144695  -3.41510117
  -3.42911184  -3.46880874  -3.52952165  -3.61125057  -3.70465505
  -3.80739997  -3.91481512  -4.02223027  -4.12264008  -4.21137433
  -4.28843302  -4.34914593  -4.39117795  -4.41452907  -4.41919929
  -4.40518862  -4.37716728  -4.33513526  -4.28609791  -4.23472545
  -4.18101788  -4.13431564  -4.09461873  -4.0689325   -4.05492183
  -4.05959206  -4.07827295  -4.11329963  -4.1670072   -4.23239034
  -4.31411925  -4.40985884  -4.51727399  -4.64103492  -4.77647141
  -4.92825369  -5.09404663  -5.27618536  -5.47233476  -5.68015972
  -5.89499002  -6.11449054  -6.33632617  -6.55115646  -6.7543112
  -6.94345527  -7.11391843  -7.25869537  -7.37778608  -7.46885544
  -7.53190347  -7.57160037  -7.58327593  -7.57393548  -7.54824925
  -7.50621724  -7.45484477  -7.39880209  -7.3427594   -7.28905183
  -7.2446847   -7.20965802  -7.18397179  -7.17229623  -7.17229623
  -7.18397179  -7.20732291  -7.24234959  -7.28671672  -7.34509451
  -7.41514787  -7.4992119   -7.59962171  -7.7140422   -7.84480846
  -7.9895854   -8.1460379   -8.31183084  -8.4799589   -8.65042207
  -8.81387991  -8.96566218  -9.10576889  -9.2248596   -9.32059919
  -9.39298766  -9.44202501  -9.46771124  -9.47471658  -9.4607059
  -9.43268456  -9.39298766  -9.34395031  -9.29257785  -9.23887027
  -9.1851627   -9.13846046  -9.09642845  -9.06140177  -9.03571554
  -9.02170487  -9.01703464  -9.02170487  -9.03571554  -9.05906666
  -9.09175822  -9.13145512  -9.17582225  -9.2248596   -9.28090229
  -9.33694497  -9.39765788  -9.4607059   -9.52608904  -9.59147217
  -9.6568553   -9.72690866  -9.79696202  -9.86935049  -9.94640918
 -10.02346787 -10.10519679 -10.18926082 -10.27332485 -10.35738888
 -10.44145291 -10.52084671 -10.5979054  -10.67029387 -10.73801212
 -10.80106014 -10.85943794 -10.91781574 -10.97619353 -11.03690644
 -11.09761935 -11.1653376  -11.23772607 -11.31244965 -11.38950834
 -11.47123726 -11.5576364  -11.64403554 -11.73276979 -11.82617427
 -11.92191386 -12.02465878 -12.13440904 -12.25116464 -12.37492557]","[-1.08628763e+00 -7.60677801e-01 -4.82168766e-01 -2.58951966e-01
 -9.10274014e-02  2.16049288e-02  8.30407453e-02  1.01471490e-01
  8.50886058e-02  4.61792554e-02 -9.21537247e-04 -4.18787482e-02
 -6.23573537e-02 -4.80223299e-02  7.26990495e-03  1.11710793e-01
  2.65300334e-01  4.65990668e-01  6.97398910e-01  9.47237897e-01
  1.19502902e+00  1.42029368e+00  1.59845755e+00  1.71723346e+00
  1.76023853e+00  1.72337704e+00  1.60664899e+00  1.41619796e+00
  1.16431112e+00  8.67371335e-01  5.39713648e-01  2.01816657e-01
 -1.36080333e-01 -4.55546579e-01 -7.52486359e-01 -1.01666037e+00
 -1.25216433e+00 -1.45695039e+00 -1.63306639e+00 -1.78870380e+00
 -1.92795831e+00 -2.05287781e+00 -2.16960586e+00 -2.28223819e+00
 -2.38872694e+00 -2.48907210e+00 -2.58532155e+00 -2.67542741e+00
 -2.75529398e+00 -2.82696909e+00 -2.89045277e+00 -2.94369715e+00
 -2.99284580e+00 -3.03585087e+00 -3.07680808e+00 -3.12186101e+00
 -3.16896181e+00 -3.22630190e+00 -3.29183344e+00 -3.37170000e+00
 -3.46385373e+00 -3.57034247e+00 -3.69321411e+00 -3.82837290e+00
 -3.97786672e+00 -4.13759985e+00 -4.30347655e+00 -4.47549684e+00
 -4.64956498e+00 -4.82363313e+00 -4.99565342e+00 -5.16357798e+00
 -5.33150255e+00 -5.49737925e+00 -5.66530382e+00 -5.83732410e+00
 -6.01548797e+00 -6.19979542e+00 -6.39434217e+00 -6.59298464e+00
 -6.79777070e+00 -7.00255675e+00 -7.20529495e+00 -7.40188956e+00
 -7.58619701e+00 -7.75821730e+00 -7.91590256e+00 -8.05515708e+00
 -8.18212443e+00 -8.29270890e+00 -8.39305407e+00 -8.48520779e+00
 -8.56712221e+00 -8.64289305e+00 -8.71661603e+00 -8.78419543e+00
 -8.84767911e+00 -8.90706706e+00 -8.96440716e+00 -9.01765153e+00
 -9.06884805e+00 -9.11594884e+00 -9.16509749e+00 -9.21629401e+00
 -9.27363410e+00 -9.34121350e+00 -9.41903220e+00 -9.51118593e+00
 -9.61562681e+00 -9.73440273e+00 -9.86341794e+00 -9.99448102e+00
 -1.01234962e+01 -1.02402243e+01 -1.03385216e+01 -1.04122446e+01
 -1.04511539e+01 -1.04572975e+01 -1.04265796e+01 -1.03630959e+01
 -1.02709422e+01 -1.01562620e+01 -1.00272468e+01 -9.89004013e+00
 -9.75692919e+00 -9.63200970e+00 -9.52347309e+00 -9.43746295e+00
 -9.37397927e+00 -9.33916564e+00 -9.32687848e+00 -9.34121350e+00
 -9.37602713e+00 -9.42722364e+00 -9.49070732e+00 -9.56238244e+00
 -9.63405756e+00 -9.70368482e+00 -9.76716849e+00 -9.81836501e+00]",3.610958680194752,0.02186091135940007,4.28245,0.7482549999999999
040,3,2,csp,24b.png,1,0,284,196,283,1,1,371,pos_feedback_onset,1,"[ 0.6223065   0.40135659  0.20400327  0.02595625 -0.13063932 -0.26792858
 -0.38805669 -0.48673335 -0.56181342 -0.60686146 -0.61329689 -0.57897458
 -0.49745908 -0.3644601  -0.1778325   0.05598828  0.33700225  0.65662882
  1.00414227  1.36667174  1.73563665  2.09816612  2.44353443  2.76959643
  3.06777156  3.3380598   3.58046116  3.79712079  3.98803867  4.15965026
  4.31195554  4.44495451  4.55864719  4.65732385  4.73883935  4.80319369
  4.85253202  4.88899948  4.91903151  4.94691839  4.97909556  5.01556303
  5.06490136  5.12711055  5.20219062  5.29014156  5.39310851  5.50465604
  5.622639    5.74276711  5.86718551  5.98731361  6.10315143  6.21040867
  6.30479504  6.38631054  6.45281003  6.50000322  6.53003524  6.54076097
  6.53647068  6.51930952  6.49356778  6.46353576  6.43779402  6.41848772
  6.41419743  6.43350373  6.47855177  6.55792213  6.67375995  6.82821037
  7.01698311  7.24007817  7.48891496  7.75705806  8.0316366   8.29977969
  8.55290678  8.77600184  8.95833914  9.09133812  9.16641819  9.18572449
  9.14711188  9.05916095  8.92830712  8.76742126  8.58937424  8.40489179
  8.22898992  8.07239435  7.93939537  7.83642842  7.76563864  7.72917118
  7.7205906   7.74204205  7.78709009  7.85144443  7.93725022  8.04021717
  8.16249043  8.29763455  8.45208497  8.62155141  8.80388872  8.99909689
  9.20288565  9.41310984  9.62118888  9.82283249 10.01160523 10.18536196
 10.33337695 10.45779535 10.55218172 10.62082635 10.6615841  10.68303555
 10.69161613 10.69590642 10.70663214 10.73451903 10.78814765 10.87609858
 11.00051698 11.15925769 11.35017558 11.56039977 11.77920454 11.99371902
 12.18892719 12.3519582  12.4720863  12.54502123 12.56647267 12.54073094
 12.47637659 12.37769993 12.25757182 12.12457285 11.98728358 11.84999432
 11.71914048 11.59257694 11.46815854 11.34374015 11.21503146 11.07774219
 10.9297272  10.77313163 10.60581034 10.43205361 10.25400659 10.07810472
  9.90649314  9.74560728  9.593302    9.45386759  9.32301376  9.20288565
  9.09133812  8.98837117  8.89183965  8.80174357  8.72451836  8.66016402
  8.61297083  8.59151938  8.60009996  8.64300286  8.72451836  8.84893676
  9.01625805  9.22219195  9.46459331  9.73488156 10.02662125 10.32694152
 10.62511664 10.90827575 11.16998342 11.39736877 11.58399636 11.72557592
 11.82425258 11.88002634 11.89933265 11.88646178 11.84999432 11.7963657
 11.73201135 11.66122157 11.58828665 11.51535173 11.44027166 11.3609013
 11.2793858  11.19143487 11.0970485  10.99622669 10.88682431 10.76884134
 10.64656809 10.5178594  10.38271528 10.24542602 10.10813675  9.96870234
  9.83141307  9.70055924  9.57185055  9.45386759  9.34661035  9.24793369
  9.1621279   9.08490269  9.01411291  8.94546827  8.8746785   8.79316299
  8.69448633  8.57006794  8.41132722  8.20968361  7.96299196  7.66481684
  7.31301309  6.91187102  6.4656809   5.98516847  5.48105944  4.96836984
  4.46640596  3.98374838  3.53755827  3.13641619  2.78675759  2.48858247
  2.23760053  2.02952148  1.85576475  1.70774976  1.57904108  1.46105811
  1.35165573  1.24868878  1.15644755  1.07922234  1.01701314  0.98054568
  0.96981996  0.99127141  1.04275488  1.12427038  1.23367277  1.37096203
  1.52970275  1.70774976]","[nan nan nan nan nan nan nan nan nan nan nan nan nan nan nan nan nan nan
 nan nan nan nan nan nan nan nan nan nan nan nan nan nan nan nan nan nan
 nan nan nan nan nan nan nan nan nan nan nan nan nan nan nan nan nan nan
 nan nan nan nan nan nan nan nan nan nan nan nan nan nan nan nan nan nan
 nan nan nan nan nan nan nan nan nan nan nan nan nan nan nan nan nan nan
 nan nan nan nan nan nan nan nan nan nan nan nan nan nan nan nan nan nan
 nan nan nan nan nan nan nan nan nan nan nan nan nan nan nan nan nan nan
 nan nan nan nan nan nan nan nan nan nan nan nan nan nan]",11.37704351855226,,4.661690000000001,0.12816500000000008
040,3,2,csp,11b.png,1,1,196,347,196,1,1,322,pos_feedback_onset,2,"[  2.44879578   2.26186481   2.0430706    1.80303423   1.54600414
   1.2826014    1.01282601   0.74305063   0.47327524   0.20349986
  -0.06839974  -0.34242356  -0.62069581  -0.9053407   -1.19635824
  -1.49587265  -1.80388392  -2.12464048  -2.45814233  -2.80226526
  -3.16338192  -3.53724387  -3.92809955  -4.33382474  -4.75229521
  -5.18351099  -5.62109941  -6.06081205  -6.49840047  -6.92111938
  -7.32259613  -7.69645808  -8.02995994  -8.31885326  -8.55676541
  -8.74157217  -8.87114933  -8.94762109  -8.98160854  -8.97736011
  -8.94549688  -8.90088835  -8.84990717  -8.80742286  -8.77980806
  -8.77131119  -8.79042913  -8.83291345  -8.90088835  -8.98585697
  -9.08781932  -9.19827854  -9.30661353  -9.40857588  -9.49779294
  -9.56576784  -9.61037637  -9.62949431  -9.62099745  -9.58701
  -9.52753196  -9.4510602   -9.35971892  -9.25775657  -9.15154579
  -9.04533501  -8.94762109  -8.85627982  -8.77980806  -8.72033002
  -8.68209414  -8.66510041  -8.67359727  -8.71183316  -8.78193227
  -8.88601884  -9.02409285  -9.20040275  -9.41494853  -9.66773019
  -9.95662352 -10.27950429 -10.63637252 -11.02085555 -11.43295338
 -11.86416916 -12.31025444 -12.76483658 -13.21729451 -13.65913137
 -14.08609871 -14.48757546 -14.85718898 -15.19493927 -15.49445367
 -15.7557322  -15.98302327 -16.17845111 -16.34838836 -16.49283502
 -16.62028796 -16.73287139 -16.83058531 -16.91767815 -16.98777726
 -17.04300687 -17.07699432 -17.09186383 -17.07911854 -17.04088265
 -16.97503197 -16.87944227 -16.75836197 -16.6117911  -16.44610228
 -16.26341973 -16.07436454 -15.88318513 -15.69412994 -15.51994426
 -15.36062809 -15.22467829 -15.10997064 -15.01862937 -14.94640604
 -14.88905222 -14.83807104 -14.78284144 -14.71911497 -14.63202213
 -14.5194387  -14.37286782 -14.19230949 -13.9756395  -13.72923048
 -13.45095823 -13.15144383 -12.83068727 -12.4950612  -12.14456562
 -11.78557318 -11.41808387 -11.04422192 -10.66611154 -10.28587694
  -9.90989077  -9.54027725  -9.18553324  -8.85203139  -8.54826855
  -8.27849317  -8.05332631  -7.87276798  -7.7389424   -7.65609799
  -7.62211054  -7.62848318  -7.6709675   -7.74319083  -7.8345321
  -7.93649445  -8.03633258  -8.12767386  -8.19989719  -8.24450572
  -8.25725101  -8.23813307  -8.18077925  -8.09156219  -7.9704819
  -7.82391102  -7.6582222   -7.47978809  -7.29498133  -7.10805035
  -6.92961624  -6.75967899  -6.60248703  -6.46441302  -6.34545694
  -6.24774302  -6.17127126  -6.11816587  -6.08842685  -6.07992999
  -6.0947995   -6.12878695  -6.18189234  -6.25199145  -6.33271165
  -6.42617713  -6.52601527  -6.63222605  -6.74268526  -6.85526869
  -6.96785212  -7.07831133  -7.18664633  -7.29285711  -7.39481946
  -7.48616074  -7.56688093  -7.63485583  -7.68796122  -7.71770024
  -7.72832132  -7.71557602  -7.67734014  -7.61573789  -7.53289348
  -7.43093113  -7.30985084  -7.17177682  -7.0188333   -6.85526869
  -6.68108301  -6.50052468  -6.31784214  -6.13515959  -5.96097391
  -5.79740931  -5.65508686  -5.54037921  -5.45965902  -5.41717471
  -5.41929892  -5.46603167  -5.55737294  -5.68695009  -5.85476313
  -6.04806675  -6.26261253  -6.48777939  -6.71931889  -6.94660996
  -7.16752839  -7.37782574  -7.57537779  -7.75806034  -7.92587337
  -8.0788169   -8.21901513  -8.34859228  -8.46967257  -8.58438022
  -8.69483943  -8.80317443  -8.91363364  -9.02621707  -9.14304893
  -9.26625344  -9.39370637  -9.52753196  -9.66560597  -9.80580421
  -9.94600244 -10.08620067 -10.22002626 -10.34747919 -10.46643527]","[nan nan nan nan nan nan nan nan nan nan nan nan nan nan nan nan nan nan
 nan nan nan nan nan nan nan nan nan nan nan nan nan nan nan nan nan nan
 nan nan nan nan nan nan nan nan nan nan nan nan nan nan nan nan nan nan
 nan nan nan nan nan nan nan nan nan nan nan nan nan nan nan nan nan nan
 nan nan nan nan nan nan nan nan nan nan nan nan nan nan nan nan nan nan
 nan nan nan nan nan nan nan nan nan nan nan nan nan nan nan nan nan nan
 nan nan nan nan nan nan nan nan nan nan nan nan nan nan nan nan nan nan
 nan nan nan nan nan nan nan nan nan nan nan nan nan nan]",-8.570921750106209e-15,,4.70762,0.45845
040,3,2,csp,54b.png,1,1,132,91,131,1,1,349,pos_feedback_onset,3,"[-0.58744768 -0.68636084 -0.73943619 -0.75632381 -0.74184871 -0.70324845
 -0.64052303 -0.56332252 -0.46923439 -0.36308368 -0.24004536 -0.10011942
  0.05428161  0.23039529  0.42822161  0.64776058  0.8890122   1.15438897
  1.44147839  1.74545542  2.06390755  2.39442226  2.72976201  3.06510175
  3.40044149  3.72371865  4.03734575  4.33408523  4.60911207  4.85760124
  5.07472769  5.25325388  5.3907673   5.47520537  5.50415556  5.47038033
  5.36905466  5.20259104  4.96616446  4.66701246  4.30513504  3.89259478
  3.43421672  2.93723839  2.41854742  1.88296884  1.34256523  0.80698665
  0.28588316 -0.21350768 -0.68636084 -1.12543878 -1.53074149 -1.89744394
 -2.22554613 -2.5198731  -2.78042484 -3.01443891 -3.2219153  -3.41250407
 -3.58620523 -3.75025633 -3.90465736 -4.04940833 -4.18692175 -4.31237259
 -4.42576085 -4.52226149 -4.60187453 -4.66218743 -4.69837517 -4.71285027
 -4.70078769 -4.66218743 -4.59704949 -4.50537388 -4.38474807 -4.23517207
 -4.05905839 -3.85881956 -3.63445556 -3.39320394 -3.13747723 -2.87451297
 -2.61154871 -2.355822   -2.11457039 -1.89261891 -1.69238007 -1.51867891
 -1.37392794 -1.25571465 -1.16162652 -1.09166355 -1.04100071 -1.009638
 -0.99516291 -0.99757542 -1.01687555 -1.05306329 -1.10613865 -1.17851413
 -1.26777723 -1.37634045 -1.49937878 -1.6368922  -1.78405568 -1.93363168
 -2.0856202  -2.2351962  -2.37512213 -2.505398   -2.61878626 -2.72011194
 -2.80696252 -2.87933801 -2.93965091 -2.98548872 -3.02408897 -3.05545168
 -3.07716433 -3.09405194 -3.10370201 -3.10370201 -3.09405194 -3.06992678
 -3.03373904 -2.98066368 -2.91070072 -2.8190251  -2.70804936 -2.57777349
 -2.42578497 -2.25932136 -2.07838265 -1.88538136 -1.68273    -1.47525362
 -1.26777723 -1.06030084 -0.85523697 -0.65499813 -0.45958432 -0.26658303
 -0.07358174  0.12424458  0.32689594  0.53919736  0.76356136  1.00481297
  1.2629522   1.53797904  1.82748097  2.131458    2.44267259  2.75629968
  3.06510175  3.36907878  3.66099323  3.93843259  4.19898433  4.44023594
  4.66218743  4.86966382  5.06025259  5.23636627  5.40041737  5.55240588
  5.69474433  5.8250202   5.94564601  6.05179672  6.14829737  6.2279104
  6.29546085  6.34853621  6.38954898  6.42091169  6.44262434  6.46192446
  6.47398704  6.48846214  6.50052472  6.51017479  6.51982485  6.5270624
  6.53188743  6.5270624   6.51499982  6.49328717  6.46192446  6.42091169
  6.37507388  6.32199853  6.26892317  6.21826033  6.17242253  6.13382227
  6.10728459  6.09522201  6.10004704  6.11934717  6.16035995  6.21826033
  6.29304833  6.38954898  6.50534975  6.63803814  6.79002666  6.9613153
  7.14949156  7.35455543  7.57168189  7.7984584   8.03247247  8.26648653
  8.49567556  8.71280202  8.91545337  9.09397957  9.24596808  9.36418137
  9.44620692  9.48963221  9.49445724  9.46068202  9.38830653  9.27974331
  9.13981737  8.97094124  8.77793995  8.56563853  8.33403698  8.09037285
  7.83464614  7.5740944   7.30630511  7.0361033   6.76831401  6.50052472
  6.2423855   5.99148382  5.75264472  5.53310575  5.33286691  5.15434072
  4.99993969  4.87207633  4.76833814  4.68872511  4.63082472  4.59463698
  4.57774936  4.57774936  4.58981194  4.61634962  4.6573624   4.70802523
  4.76833814  4.84071362]","[-2.03107612 -1.84042509 -1.64120547 -1.43127512 -1.21706048 -0.99213511
 -0.76292544 -0.52728934 -0.28951109 -0.04959069  0.18818756  0.42596581
  0.65517548  0.87367441  1.07932047  1.26354506  1.42206389  1.54845053
  1.63842068  1.68769005  1.68983219  1.64913141  1.56344556  1.44134321
  1.28925082  1.11573696  0.93579666  0.75585636  0.59091109  0.44738728
  0.33385352  0.25030981  0.20104044  0.18176112  0.19032971  0.21817761
  0.26102054  0.31243205  0.36812786  0.42596581  0.48166162  0.53735743
  0.59091109  0.64660689  0.70658699  0.76870924  0.83511578  0.90580661
  0.97863959  1.05147256  1.1221634   1.18642779  1.24426574  1.29139296
  1.33423589  1.36851023  1.39850028  1.42634819  1.45633824  1.49275473
  1.53559765  1.58700917  1.64698927  1.71339581  1.78194449  1.85263532
  1.91904186  1.97902196  2.03043347  2.06899211  2.09255572  2.1054086
  2.1054086   2.09684001  2.07970284  2.05613923  2.02829133  1.99615913
  1.95974264  1.91904186  1.87405679  1.82050313  1.76266517  1.69840078
  1.63199424  1.56344556  1.49918116  1.44134321  1.39635814  1.36851023
  1.3577995   1.36851023  1.40278458  1.45633824  1.52917121  1.61914136
  1.72196439  1.83121386  1.94474762  2.05828138  2.16753084  2.27035387
  2.36032402  2.43958344  2.50598998  2.55954364  2.60238657  2.63451876
  2.66236666  2.68807242  2.71377818  2.74162608  2.77375828  2.81017477
  2.8487334   2.88943418  2.92585067  2.95369858  2.96655145  2.96012502
  2.93013497  2.87443916  2.79089545  2.68378813  2.55525934  2.41173553
  2.26178529  2.11183504  1.97473767  1.85691961  1.76480732  1.70482722
  1.68126361  1.69411649  1.74124371  1.81621883  1.91904186  2.03900206
  2.17181514  2.30891251]",7.863897902317237,2.4072370274291326,4.1450499999999995,-0.12355000000000071
040,3,2,csp,12b.png,1,1,296,308,296,1,1,327,pos_feedback_onset,4,"[-5.72552411e-01 -4.43655354e-01 -3.23074236e-01 -2.12888043e-01
 -1.13096773e-01 -2.78583962e-02  4.69850563e-02  1.07275615e-01
  1.55092265e-01  1.88356022e-01  2.09145870e-01  2.15382824e-01
  2.09145870e-01  1.88356022e-01  1.59250235e-01  1.21828509e-01
  8.02488129e-02  3.86691171e-02  1.24739087e-03 -2.78583962e-02
 -4.65692593e-02 -5.28062137e-02 -4.24112897e-02 -1.95424570e-02
  1.37212996e-02  5.32220106e-02  9.68806912e-02  1.36381402e-01
  1.67566174e-01  1.84198052e-01  1.80040083e-01  1.53013281e-01
  1.01038661e-01  1.78792692e-02 -9.64648943e-02 -2.44072814e-01
 -4.24944491e-01 -6.41158909e-01 -8.92716069e-01 -1.18169495e+00
 -1.51017455e+00 -1.87607587e+00 -2.28147791e+00 -2.72430167e+00
 -3.20454716e+00 -3.72013538e+00 -4.26067143e+00 -4.82615529e+00
 -5.40411306e+00 -5.98830779e+00 -6.57042353e+00 -7.13798638e+00
 -7.68268039e+00 -8.19618964e+00 -8.67019817e+00 -9.10470599e+00
 -9.49347615e+00 -9.84066661e+00 -1.01462774e+01 -1.04186244e+01
 -1.06618656e+01 -1.08843170e+01 -1.10922154e+01 -1.12917980e+01
 -1.14872226e+01 -1.16868051e+01 -1.18884666e+01 -1.20942861e+01
 -1.23063426e+01 -1.25225570e+01 -1.27450084e+01 -1.29674597e+01
 -1.31940691e+01 -1.34227574e+01 -1.36493667e+01 -1.38801341e+01
 -1.41088224e+01 -1.43375107e+01 -1.45661990e+01 -1.47948874e+01
 -1.50235757e+01 -1.52522640e+01 -1.54830313e+01 -1.57158776e+01
 -1.59466449e+01 -1.61774122e+01 -1.64019426e+01 -1.66202360e+01
 -1.68218975e+01 -1.70048482e+01 -1.71586931e+01 -1.72751162e+01
 -1.73499597e+01 -1.73749075e+01 -1.73499597e+01 -1.72709582e+01
 -1.71420612e+01 -1.69653475e+01 -1.67470541e+01 -1.64975759e+01
 -1.62231499e+01 -1.59320920e+01 -1.56327182e+01 -1.53312654e+01
 -1.50360496e+01 -1.47533077e+01 -1.44830396e+01 -1.42335615e+01
 -1.40048731e+01 -1.38032116e+01 -1.36306559e+01 -1.34892849e+01
 -1.33832567e+01 -1.33104922e+01 -1.32751495e+01 -1.32751495e+01
 -1.33063343e+01 -1.33666248e+01 -1.34518632e+01 -1.35537334e+01
 -1.36701566e+01 -1.37907377e+01 -1.39154768e+01 -1.40360579e+01
 -1.41483231e+01 -1.42543513e+01 -1.43479056e+01 -1.44289860e+01
 -1.44975925e+01 -1.45516461e+01 -1.45932258e+01 -1.46181737e+01
 -1.46285686e+01 -1.46223316e+01 -1.46036208e+01 -1.45724360e+01
 -1.45287773e+01 -1.44768027e+01 -1.44165121e+01 -1.43520636e+01
 -1.42813781e+01 -1.42086136e+01 -1.41296122e+01 -1.40506108e+01
 -1.39632934e+01 -1.38697391e+01 -1.37657899e+01 -1.36514457e+01
 -1.35204697e+01 -1.33728618e+01 -1.32044640e+01 -1.30131974e+01
 -1.27969830e+01 -1.25558207e+01 -1.22897107e+01 -1.20048898e+01
 -1.17034370e+01 -1.13957472e+01 -1.10942944e+01 -1.08094735e+01
 -1.05579164e+01 -1.03541758e+01 -1.02148839e+01 -1.01525143e+01
 -1.01753832e+01 -1.02897273e+01 -1.04934678e+01 -1.07824467e+01
 -1.11504270e+01 -1.15807769e+01 -1.20589434e+01 -1.25662157e+01
 -1.30880408e+01 -1.36036291e+01 -1.40984275e+01 -1.45620411e+01
 -1.49819960e+01 -1.53520553e+01 -1.56659820e+01 -1.59216971e+01
 -1.61212797e+01 -1.62626506e+01 -1.63478890e+01 -1.63811528e+01
 -1.63665999e+01 -1.63042303e+01 -1.62002811e+01 -1.60589101e+01
 -1.58821964e+01 -1.56722189e+01 -1.54331357e+01 -1.51711836e+01
 -1.48863627e+01 -1.45828309e+01 -1.42647462e+01 -1.39341877e+01
 -1.35973921e+01 -1.32564386e+01 -1.29134061e+01 -1.25745316e+01
 -1.22418940e+01 -1.19175724e+01 -1.16098827e+01 -1.13167458e+01
 -1.10423198e+01 -1.07928416e+01 -1.05641533e+01 -1.03624918e+01
 -1.01836991e+01 -1.00319332e+01 -9.90095716e+00 -9.79492894e+00
 -9.70761158e+00 -9.63900508e+00 -9.58910945e+00 -9.55376670e+00
 -9.53297686e+00 -9.52673990e+00 -9.53505584e+00 -9.55792467e+00
 -9.59742539e+00 -9.64940000e+00 -9.71800650e+00 -9.79908691e+00
 -9.88848326e+00 -9.98411656e+00 -1.00839078e+01 -1.01836991e+01
 -1.02772534e+01 -1.03624918e+01 -1.04352563e+01 -1.04997048e+01
 -1.05516794e+01 -1.05953381e+01 -1.06327598e+01 -1.06660236e+01
 -1.07034453e+01 -1.07429460e+01 -1.07928416e+01 -1.08510532e+01
 -1.09238177e+01 -1.10090561e+01 -1.11067683e+01 -1.12127966e+01
 -1.13271407e+01 -1.14435639e+01 -1.15599870e+01 -1.16743312e+01
 -1.17845174e+01 -1.18863876e+01 -1.19840999e+01 -1.20755753e+01
 -1.21670506e+01 -1.22626839e+01 -1.23707911e+01 -1.24955302e+01
 -1.26472961e+01 -1.28323257e+01 -1.30547771e+01 -1.33188082e+01]","[-2.21345223e+00 -1.96959043e+00 -1.72369646e+00 -1.47983466e+00
 -1.23800505e+00 -9.98207616e-01 -7.58410184e-01 -5.20644933e-01
 -2.82879683e-01 -4.51144321e-02  1.92650818e-01  4.30416069e-01
  6.64116956e-01  8.93753480e-01  1.11119691e+00  1.31238290e+00
  1.48715052e+00  1.62940323e+00  1.72898013e+00  1.77978467e+00
  1.77572031e+00  1.71069049e+00  1.58875960e+00  1.41195980e+00
  1.18841982e+00  9.30332749e-01  6.47859503e-01  3.53193167e-01
  6.25911942e-02 -2.11753326e-01 -4.63743848e-01 -6.83219463e-01
 -8.68147992e-01 -1.01243289e+00 -1.11810633e+00 -1.18720051e+00
 -1.22174759e+00 -1.22377978e+00 -1.19736142e+00 -1.14655687e+00
 -1.07746270e+00 -9.90078889e-01 -8.92534171e-01 -7.84828545e-01
 -6.73058555e-01 -5.57224202e-01 -4.43422031e-01 -3.31652042e-01
 -2.21914234e-01 -1.16240789e-01 -1.46317077e-02  8.49451921e-02
  1.82489910e-01  2.78002447e-01  3.73514983e-01  4.69027520e-01
  5.62507875e-01  6.55988230e-01  7.43372040e-01  8.28723668e-01
  9.05946570e-01  9.73008564e-01  1.03194183e+00  1.07868201e+00
  1.11322910e+00  1.13558309e+00  1.14371182e+00  1.13761528e+00
  1.11729346e+00  1.08071419e+00  1.02787747e+00  9.56751111e-01
  8.67335119e-01  7.57597311e-01  6.27537687e-01  4.75124065e-01
  3.02388626e-01  1.07299190e-01 -1.10144244e-01 -3.49941676e-01
 -6.10060925e-01 -8.94566353e-01 -1.19939360e+00 -1.52860702e+00
 -1.87814226e+00 -2.25003150e+00 -2.64224255e+00 -3.05477542e+00
 -3.48356575e+00 -3.92454916e+00 -4.37772566e+00 -4.83496653e+00
 -5.29627176e+00 -5.75554481e+00 -6.21278567e+00 -6.66393000e+00
 -7.11100995e+00 -7.55605773e+00 -7.99907333e+00 -8.44412110e+00
 -8.89729760e+00 -9.35860283e+00 -9.83413334e+00 -1.03259213e+01
 -1.08319345e+01 -1.13501408e+01 -1.18764759e+01 -1.24068753e+01
 -1.29332103e+01 -1.34473523e+01 -1.39391402e+01 -1.44024776e+01
 -1.48231392e+01 -1.51990928e+01 -1.55201775e+01 -1.57843611e+01
 -1.59835149e+01 -1.61196711e+01 -1.61928297e+01 -1.62029906e+01
 -1.61562504e+01 -1.60566735e+01 -1.59123886e+01 -1.57315244e+01
 -1.55201775e+01 -1.52905410e+01 -1.50487114e+01 -1.48028174e+01
 -1.45609878e+01 -1.43252547e+01 -1.41017148e+01 -1.38903679e+01
 -1.36952784e+01 -1.35123821e+01 -1.33457432e+01 -1.31933296e+01
 -1.30510769e+01 -1.29210172e+01 -1.28011185e+01 -1.26893485e+01]",0.021634854622613865,0.012359832877551926,4.810040000000001,0.21964500000000164
040,3,2,csm,50a.png,1,1,180,205,179,1,1,516,neu_feedback_onset,5,"[ 0.99109646  0.99339652  0.97499603  0.93129487  0.86229302  0.77029057
  0.65298743  0.51728381  0.36547976  0.2021754   0.03197085 -0.14053375
 -0.31303836 -0.48554296 -0.65344745 -0.81905187 -0.98235623 -1.14106047
 -1.2997647  -1.45846894 -1.6217733  -1.79197785 -1.97138264 -2.16458779
 -2.37849351 -2.61309977 -2.87530677 -3.16281445 -3.47792286 -3.81603189
 -4.17254141 -4.54285129 -4.92006137 -5.2995715  -5.67218145 -6.03559115
 -6.38520048 -6.71870939 -7.03611786 -7.33512585 -7.61343328 -7.87104016
 -8.11024654 -8.32415225 -8.51505735 -8.68066177 -8.8163654  -8.92676834
 -9.00727049 -9.06017191 -9.08547258 -9.08317252 -9.05557178 -9.00267037
 -8.92676834 -8.8278657  -8.70596245 -8.56335864 -8.39545416 -8.20684912
 -7.99754353 -7.76753739 -7.52143082 -7.26382394 -6.99931688 -6.73250976
 -6.4680027  -6.217296   -5.9849898  -5.77568421 -5.59627942 -5.45137555
 -5.34557273 -5.27887095 -5.25357027 -5.26737064 -5.32027205 -5.40537432
 -5.52497752 -5.66988139 -5.83548581 -6.02179078 -6.21959606 -6.42890165
 -6.64510742 -6.86591332 -7.08901928 -7.30982517 -7.53063107 -7.74453678
 -7.94924224 -8.1424474  -8.31955213 -8.47365625 -8.60245969 -8.6967622
 -8.75426374 -8.77036417 -8.74736355 -8.6852619  -8.58635926 -8.45755582
 -8.30575176 -8.14014734 -7.96764274 -7.79743819 -7.63643389 -7.48462984
 -7.34892622 -7.2247229  -7.11201989 -7.00851713 -6.90731443 -6.80381166
 -6.69340871 -6.57150546 -6.43350177 -6.2770976  -6.10229293 -5.90908777
 -5.70208225 -5.48357641 -5.26047045 -5.03966456 -4.82805891 -4.63255369
 -4.4531489  -4.29674472 -4.16334116 -4.05063815 -3.95633563 -3.88043361
 -3.81603189 -3.76083041 -3.71252912 -3.67112802 -3.63432704 -3.60212618
 -3.57452544 -3.55152483 -3.53312433 -3.51242378 -3.48942317 -3.45952237
 -3.41352114 -3.34681936 -3.2548169  -3.13291365 -2.97880953 -2.7902045
 -2.57399873 -2.33249228 -2.07718546 -1.8126784  -1.55277146 -1.30896495
 -1.09505924 -0.91565445 -0.78455095 -0.70174874 -0.674148   -0.69714861
 -0.76615046 -0.8765534  -1.01455709 -1.17096126 -1.33196556 -1.48376962
 -1.61717318 -1.71837588 -1.77817748 -1.79197785 -1.7528768  -1.66087435
 -1.51597048 -1.32046526 -1.08125887 -0.80755156 -0.50164339 -0.17503467
  0.16307435  0.50348344  0.83929241  1.16360107  1.47410936  1.76161704
