sub,run,cat_cond,trial_type,picture,old,response_old,target_pos,response_pos,dot_resp_loc,cat_corr,TN_corr,TN_rt,feedback_type,trial,SP_timeseries,FB_timeseries,SP_peak_response,FB_peak_response,preStim_bl,anticipation
002,1,1,csm,15b.png,1,1,308,279,307,1,1,384,neu_feedback_onset,1,"[-0.01459713  0.04230694  0.09426283  0.14127054  0.18827826  0.23033779
  0.26250096  0.28476777  0.29219004  0.28229368  0.25013051  0.19817462
  0.12395191  0.03241058 -0.07644938 -0.1976798  -0.32633248 -0.46240744
 -0.60095648 -0.74445371 -0.89042502 -1.03887043 -1.19226402 -1.3456576
 -1.50152528 -1.65491886 -1.79841609 -1.92954286 -2.03592874 -2.11015144
 -2.14726279 -2.13489234 -2.070566   -1.95180967 -1.78109746 -1.56337753
 -1.31102034 -1.03144816 -0.73950553 -0.45003699 -0.17541299  0.06952193
  0.28229368  0.45053181  0.57423631  0.65340719  0.69299263  0.69794081
  0.67319991  0.63114038  0.57423631  0.51238406  0.44558363  0.37878319
  0.31198276  0.24518233  0.17343372  0.09921101  0.01756604 -0.0715012
 -0.17046481 -0.27932477 -0.39560701 -0.51436333 -0.63559374 -0.75435007
 -0.86568412 -0.96712182 -1.05124088 -1.1205154  -1.17247129 -1.20463447
 -1.21947901 -1.2219531  -1.21453083 -1.19968629 -1.18731583 -1.18236765
 -1.18731583 -1.20958265 -1.25411627 -1.3209167  -1.41245803 -1.52626618
 -1.66234113 -1.81573472 -1.98644693 -2.16705551 -2.35756045 -2.55301357
 -2.75588895 -2.95876434 -3.16163973 -3.36698921 -3.57233868 -3.77768816
 -3.97808946 -4.17354258 -4.36157342 -4.53970791 -4.70299785 -4.85144326
 -4.98257004 -5.09390409 -5.18297133 -5.25224586 -5.29925357 -5.32399447
 -5.32646856 -5.31162402 -5.27451267 -5.22008268 -5.14833407 -5.05926683
 -4.96030322 -4.85144326 -4.73763512 -4.61887879 -4.50012247 -4.38631432
 -4.27745436 -4.17849076 -4.0918976  -4.01272672 -3.94840038 -3.8914963
 -3.84696268 -3.81232542 -3.78758452 -3.77273998 -3.76531771 -3.76531771
 -3.77273998 -3.78758452 -3.80985133 -3.83706632 -3.86922949 -3.90881494
 -3.95334856 -4.00530445 -4.06220852 -4.13148304 -4.20817984 -4.29477299
 -4.39373659 -4.50012247 -4.6164047  -4.73516103 -4.85886553 -4.98009595
 -5.09885227 -5.21018632 -5.30914993 -5.39821717 -5.47738805 -5.54418849
 -5.60109256 -5.65304845 -5.70005616 -5.74458978 -5.78664932 -5.82870885
 -5.86829429 -5.91035382 -5.94746517 -5.98210243 -6.0142656  -6.03653241
 -6.05385104 -6.06127332 -6.05879923 -6.04642877 -6.02416196 -5.98705061
 -5.93756881 -5.87324247 -5.7915975  -5.69510798 -5.57882575 -5.44769897
 -5.30172766 -5.1409118  -4.97019958 -4.78959101 -4.60403425 -4.41105522
 -4.2180762  -4.02262308 -3.82716996 -3.63419094 -3.43873782 -3.2432847
 -3.05030567 -2.85732665 -2.66434762 -2.47136859 -2.27838957 -2.08541054
 -1.89243151 -1.69945248 -1.50647346 -1.31349443 -1.1205154  -0.92753638
 -0.73455735 -0.54405241 -0.35107338 -0.16056845  0.0274624   0.21549325
  0.39857591  0.5767104   0.74494853  0.90576438  1.0517357   1.18038838
  1.29172244  1.37831559  1.44016784  1.47975328  1.49212373  1.47975328
  1.44759011  1.39563422  1.32883379  1.25461109  1.1754402   1.09626932
  1.02452071  0.96266845  0.91566074  0.88844575  0.8760753   0.88102348
  0.9008162   0.93050528  0.96514254  0.99483163  1.01709844  1.02204662
  1.00720208  0.97009072  0.90576438  0.82164532  0.71773354  0.6014513
  0.4777468   0.35404229  0.24023415  0.13879645  0.05962557  0.00766968
 -0.01707122 -0.01212304  0.02251422  0.08436647  0.17343372  0.28476777
  0.41589454  0.56186586]","[-1.63002013 -1.41453826 -1.19404518 -0.9710465  -0.75305903 -0.54008276
 -0.3371289  -0.14670306  0.02868916  0.18654215  0.32435033  0.44461928
  0.54484341  0.63003391  0.6976852   0.75280847  0.79790932  0.83298777
  0.8605494   0.88560544  0.90565026  0.92569509  0.9407287   0.95826793
  0.97330155  0.98833516  1.00336878  1.0184024   1.03343602  1.04846964
  1.06099766  1.07603127  1.09106489  1.10609851  1.12113213  1.13616575
  1.15119937  1.16623299  1.18126661  1.19379462  1.20882824  1.22386186
  1.23889548  1.2539291   1.26896272  1.28399634  1.29902996  1.31155797
  1.32659159  1.34162521  1.35665883  1.37169245  1.38672607  1.40175969
  1.4167933   1.42932132  1.44435494  1.45938856  1.47442218  1.4894558
  1.50448941  1.51952303  1.53455665  1.54708467  1.56211829  1.57715191
  1.59218552  1.60721914  1.62225276  1.63728638  1.65232     1.66484802
  1.67988164  1.69491525  1.70994887  1.72498249  1.74001611  1.75504973
  1.77008335  1.78261136  1.79764498  1.8126786   1.82771222  1.84274584
  1.85527386  1.87030748  1.88283549  1.8928579   1.90288032  1.90789152
  1.91039713  1.90288032  1.8878467   1.86028506  1.81518421  1.75504973
  1.67236483  1.56712949  1.43934373  1.28900754  1.11612093  0.92569509
  0.72524683  0.51477617  0.30681111  0.10636285 -0.08406299 -0.25945521
 -0.41730821 -0.56012759 -0.68540774 -0.80317109 -0.91341763 -1.01865296
 -1.1288995  -1.24165164 -1.35941499 -1.48218955 -1.6024585  -1.72272745
 -1.83297399 -1.93069251 -2.01087181 -2.07100629 -2.11109594 -2.12863516
 -2.12362395 -2.10107353 -2.05847827 -2.0008494  -1.92818691 -1.8404908
 -1.73776107 -1.62250332 -1.49221196 -1.34438137 -1.18151717 -1.00361934
 -0.8106879  -0.60021724]",0.6520464436191871,1.3810258189877278,4.04189,-0.14525000000000032
002,1,1,csp,21a.png,1,1,172,53,176,1,1,220,pos_feedback_onset,2,"[ 1.29316348  1.04501384  0.81205703  0.60442162  0.42463974  0.27777567
  0.15623299  0.06254384 -0.00835606 -0.06659526 -0.1147059  -0.15775227
 -0.20586292 -0.26410212 -0.33500201 -0.42615902 -0.54010529 -0.67937294
 -0.84396199 -1.03387243 -1.24403998 -1.47446464 -1.72008214 -1.96823178
 -2.21891356 -2.45946678 -2.68735931 -2.89499472 -3.07730874 -3.23430137
 -3.36597261 -3.46979031 -3.54828663 -3.60399369 -3.63944364 -3.66223289
 -3.66982931 -3.66729717 -3.65970075 -3.64450792 -3.62678294 -3.60652583
 -3.58373658 -3.56094732 -3.53562593 -3.51030454 -3.48751529 -3.4621939
 -3.4368725  -3.41155111 -3.38622972 -3.36090833 -3.33558694 -3.31279768
 -3.28747629 -3.2621549  -3.23683351 -3.21151212 -3.18619073 -3.16086933
 -3.13808008 -3.11275869 -3.0874373  -3.06211591 -3.03679451 -3.01147312
 -2.98615173 -2.96336248 -2.93804109 -2.91271969 -2.8873983  -2.86207691
 -2.83675552 -2.81143413 -2.78611274 -2.76332348 -2.73800209 -2.7126807
 -2.68735931 -2.66203792 -2.63671652 -2.61139513 -2.58860588 -2.56328449
 -2.5379631  -2.5126417  -2.48985245 -2.46453106 -2.44174181 -2.42148469
 -2.40375972 -2.38603475 -2.37337405 -2.36830977 -2.36830977 -2.37590619
 -2.39109902 -2.41895256 -2.45693464 -2.50251315 -2.56075235 -2.62405583
 -2.69242359 -2.76332348 -2.83422338 -2.89752686 -2.95576606 -3.00134457
 -3.03679451 -3.05451949 -3.05958377 -3.05198735 -3.03173024 -3.00134457
 -2.96589462 -2.92538039 -2.8873983  -2.85194835 -2.81903055 -2.79117701
 -2.76585562 -2.74053423 -2.71521284 -2.68735931 -2.6544415  -2.61392727
 -2.56581663 -2.5126417  -2.45187036 -2.38603475 -2.32019913 -2.25689565
 -2.19865645 -2.14801366 -2.10749944 -2.07711377 -2.05685665 -2.0467281
 -2.04926024 -2.05685665 -2.07458163 -2.09737088 -2.12522441 -2.15814222
 -2.18852789 -2.22397784 -2.25436351 -2.28728132 -2.31260271 -2.3379241
 -2.35564908 -2.36577763 -2.37084191 -2.36577763 -2.3505848  -2.32526341
 -2.28981346 -2.23917067 -2.17586719 -2.09737088 -2.00368173 -1.89733188
 -1.7757892  -1.63905369 -1.49472176 -1.33772913 -1.17567222 -1.00855103
 -0.84142985 -0.6768408  -0.51731603 -0.36285554 -0.22105575 -0.08938451
  0.03215817  0.14357229  0.24485786  0.34107915  0.42970402  0.51579675
  0.60188948  0.68545008  0.76901067  0.85003912  0.92853544  1.00196747
  1.06780309  1.12351015  1.16908866  1.20453861  1.22732786  1.23745642
  1.24252069  1.23745642  1.22732786  1.21466716  1.19947433  1.18174935
  1.1589601   1.13363871  1.1007209   1.06020667  1.00956389  0.94626041
  0.87029623  0.78167136  0.68291794  0.57403595  0.46008969  0.34361129
  0.22966502  0.12078304  0.01949747 -0.0691274  -0.14762371 -0.21599147
 -0.27169853 -0.32234132 -0.37045196 -0.41603047 -0.46667325 -0.52491245
 -0.59074807 -0.66418011 -0.74520856 -0.83636557 -0.92752258 -1.01867959
 -1.10224018 -1.17314008 -1.226315   -1.25163639 -1.24403998 -1.20099361
 -1.11490088 -0.98576178 -0.81357632 -0.60087663 -0.35019485 -0.0691274
  0.23726144  0.56137526  0.89055335  1.2171993   1.53118456  1.82744484
  2.09078732  2.3161477   2.49592959  2.62506868  2.69850072  2.71369356
  2.66811505  2.56429734  2.40477258  2.19713716  1.94392325  1.66032366
  1.35140268  1.03235314]","[ 0.63566658  0.51199604  0.38090527  0.24239426  0.10883008 -0.01731388
 -0.13109077 -0.2275538  -0.29928271 -0.34627752 -0.3660648  -0.36111798
 -0.32896364 -0.2745486  -0.19787287 -0.10388326  0.00494682  0.12614395
  0.25476132  0.3883255   0.5243631   0.66040069  0.79396488  0.92258224
  1.04872619  1.16744991  1.28122681  1.3925303   1.49888697  1.60524363
  1.70665348  1.80806332  1.90699975  2.00593619  2.10487262  2.20380905
  2.30274549  2.39920851  2.49814494  2.59708138  2.6935444   2.79248083
  2.89141726  2.9903537   3.08929013  3.18575315  3.287163    3.38609943
  3.48503586  3.58644571  3.68785555  3.7892654   3.88572842  3.98219144
  4.07123423  4.14790997  4.21221865  4.25921346  4.28147415  4.27900074
  4.24931981  4.18995795  4.10338857  3.9945585   3.86346772  3.71506307
  3.55429137  3.38609943  3.20801385  3.02250804  2.8320554   2.63418254
  2.42641603  2.20628246  1.97872867  1.74128123  1.49888697  1.25154588
  1.0042048   0.76428395  0.53425674  0.32154341  0.12614395 -0.0445214
 -0.19292605 -0.31907    -0.42295325 -0.51199604 -0.58372496 -0.64803364
 -0.7073955  -0.76675736 -0.83106604 -0.90279495 -0.98441751 -1.07840712
 -1.18229038 -1.29606728 -1.41726441 -1.54588177 -1.67449913 -1.80558991
 -1.93420727 -2.05787781 -2.17660153 -2.29037843 -2.3967351  -2.49814494
 -2.58966114 -2.67623052 -2.75290626 -2.81968835 -2.87410339 -2.91120455
 -2.93099184 -2.93346525 -2.91615137 -2.87905021 -2.82216176 -2.74795944
 -2.65891665 -2.5575068  -2.4437299  -2.32500618 -2.20133564 -2.07519169
 -1.94904774 -1.8253772  -1.70418006 -1.58792976 -1.47415286 -1.36532278
 -1.25896611 -1.15755627 -1.05614643 -0.9596834  -0.86569379 -0.77417759
 -0.69255503 -0.6158793 ]",1.0136677014384596,3.273373732376946,3.949229999999999,0.19238000000000088
002,1,1,csp,43a.png,1,1,124,64,122,1,0,215,neg_feedback_onset,3,"[ 1.53728018e+00  1.37814668e+00  1.21901317e+00  1.05987966e+00
  9.00746159e-01  7.39086725e-01  5.79953220e-01  4.18293786e-01
  2.59160280e-01  9.75008462e-02 -6.41585879e-02 -2.25818022e-01
 -3.87477456e-01 -5.51662819e-01 -7.18374110e-01 -8.87611330e-01
 -1.05937448e+00 -1.24124134e+00 -1.42816006e+00 -1.62518250e+00
 -1.83230865e+00 -2.05206444e+00 -2.28444988e+00 -2.52441310e+00
 -2.76942818e+00 -3.01444326e+00 -3.25440648e+00 -3.48426599e+00
 -3.69896993e+00 -3.88841458e+00 -4.05259994e+00 -4.18900009e+00
 -4.30014095e+00 -4.38602252e+00 -4.44917074e+00 -4.49463745e+00
 -4.52242267e+00 -4.54010417e+00 -4.54515603e+00 -4.54010417e+00
 -4.51989674e+00 -4.48453374e+00 -4.43148924e+00 -4.35318545e+00
 -4.24709645e+00 -4.10817037e+00 -3.93893315e+00 -3.73685886e+00
 -3.50194749e+00 -3.23672498e+00 -2.94624319e+00 -2.63555396e+00
 -2.30718324e+00 -1.97123472e+00 -1.62770843e+00 -1.28165620e+00
 -9.43181761e-01 -6.09759178e-01 -2.88966238e-01  2.17229865e-02
  3.14730711e-01  5.90056934e-01  8.47701658e-01  1.08766488e+00
  1.30994660e+00  1.51454682e+00  1.70146554e+00  1.87575462e+00
  2.03488813e+00  2.18391792e+00  2.32284399e+00  2.45671821e+00
  2.59311836e+00  2.72951851e+00  2.87602237e+00  3.03515588e+00
  3.20944495e+00  3.39888960e+00  3.60601575e+00  3.82577154e+00
  4.05563105e+00  4.28801649e+00  4.51535007e+00  4.73005400e+00
  4.92202458e+00  5.08620995e+00  5.21755824e+00  5.30849167e+00
  5.36406210e+00  5.38426953e+00  5.37163988e+00  5.33375095e+00
  5.27312867e+00  5.19482488e+00  5.10389145e+00  5.00538023e+00
  4.89929122e+00  4.78562443e+00  4.66185393e+00  4.53303157e+00
  4.39157956e+00  4.24002384e+00  4.07836441e+00  3.90660126e+00
  3.72473440e+00  3.54034161e+00  3.35342289e+00  3.16903009e+00
  2.99474102e+00  2.83308158e+00  2.68910365e+00  2.56280722e+00
  2.46177007e+00  2.38094035e+00  2.32284399e+00  2.28242914e+00
  2.25716985e+00  2.23696242e+00  2.21928092e+00  2.19654756e+00
  2.16371049e+00  2.11319192e+00  2.04246591e+00  1.95405841e+00
  1.84291755e+00  1.71409519e+00  1.57264318e+00  1.42361339e+00
  1.27205767e+00  1.12302788e+00  9.81575876e-01  8.55279443e-01
  7.44138583e-01  6.48153294e-01  5.69849505e-01  5.01649431e-01
  4.43553072e-01  3.87982642e-01  3.29886283e-01  2.66738066e-01
  1.93486135e-01  1.07604561e-01  6.56741451e-03 -1.07099375e-01
 -2.33395808e-01 -3.67270027e-01 -5.03670174e-01 -6.42596251e-01
 -7.73944541e-01 -8.97715045e-01 -1.00380405e+00 -1.09473748e+00
 -1.16293755e+00 -1.21093020e+00 -1.23618949e+00 -1.24124134e+00
 -1.22608577e+00 -1.19072277e+00 -1.14273012e+00 -1.08210784e+00
 -1.01390776e+00 -9.38129903e-01 -8.64877972e-01 -7.89100113e-01
 -7.18374110e-01 -6.52699965e-01 -5.89551749e-01 -5.31455390e-01
 -4.70833102e-01 -4.05158957e-01 -3.29381097e-01 -2.40973594e-01
 -1.39936448e-01 -1.86918721e-02  1.15182347e-01  2.61686209e-01
  4.15767857e-01  5.72375434e-01  7.21405225e-01  8.57805372e-01
  9.76524019e-01  1.07250931e+00  1.14828717e+00  1.20133167e+00
  1.23416874e+00  1.25185024e+00  1.26195396e+00  1.26953174e+00
  1.28468732e+00  1.30994660e+00  1.35541332e+00  1.42866525e+00
  1.52970240e+00  1.67115440e+00  1.85302126e+00  2.08035484e+00
  2.36073292e+00  2.69415551e+00  3.08314852e+00  3.53023789e+00
  4.03289769e+00  4.58607607e+00  5.18472116e+00  5.82630704e+00
  6.49567814e+00  7.18273073e+00  7.87230925e+00  8.54925813e+00
  9.19589587e+00  9.78948911e+00  1.03148823e+01  1.07518679e+01
  1.10878164e+01  1.13126241e+01  1.14187131e+01  1.14111353e+01
  1.12949426e+01  1.10802386e+01  1.07847050e+01  1.04260231e+01
  1.00269264e+01  9.60257039e+00  9.17316251e+00  8.75638428e+00
  8.35728756e+00  7.99102790e+00  7.65507939e+00  7.35449388e+00
  7.08421951e+00  6.84678222e+00  6.63460421e+00  6.44263363e+00
  6.27087049e+00  6.10921105e+00  5.95260347e+00  5.79852183e+00
  5.63938832e+00  5.46762517e+00  5.28323238e+00  5.07610623e+00
  4.84372079e+00  4.59112793e+00  4.31327578e+00  4.01521619e+00
  3.70452697e+00  3.38878589e+00  3.07557073e+00  2.77751115e+00
  2.49965900e+00  2.25211799e+00  2.04246591e+00  1.86565091e+00
  1.72672483e+00  1.62316176e+00  1.54485797e+00  1.48928754e+00
  1.44887268e+00  1.41603561e+00  1.38572446e+00  1.35541332e+00]","[-1.59344505 -1.26405073 -0.96709675 -0.70757395 -0.48548232 -0.30082186
 -0.14860176 -0.02632659  0.07598528  0.16082928  0.23569162  0.30306773
  0.36794843  0.43282914  0.49770984  0.56259054  0.62747124  0.68736111
  0.74475558  0.79715922  0.84457204  0.88449863  0.9219298   0.95187474
  0.97932427  1.00427838  1.02673709  1.04670038  1.06666367  1.08662696
  1.10659026  1.12405814  1.14402143  1.16148931  1.17895719  1.19892048
  1.21638837  1.23635166  1.25381954  1.27378283  1.29125071  1.31121401
  1.33367271  1.35613141  1.38358094  1.41602129  1.45345246  1.50086528
  1.56075516  1.63561751  1.72794774  1.83774584  1.96750725  2.11224112
  2.27194746  2.43664462  2.59884637  2.74607565  2.87084623  2.96068105
  3.00559846  2.99561681  2.93073611  2.80596553  2.62130508  2.38424098
  2.09726865  1.77286514  1.4185167   1.03921414  0.64493912  0.24317786
 -0.1585834  -0.55535384 -0.94214264 -1.31645437 -1.67329822 -2.00768337
 -2.31960982 -2.60408674 -2.86111413 -3.09069199 -3.29781115 -3.47997619
 -3.64467336 -3.79439805 -3.93164569 -4.06140709 -4.18867308 -4.31344366
 -4.43571882 -4.5604894  -4.68525998 -4.80753514 -4.93230572 -5.05458089
 -5.17436064 -5.29164499 -5.40643392 -5.51623203 -5.62353473 -5.7258466
 -5.82316765 -5.91549788 -5.99784646 -6.07270881 -6.13259868 -6.1800115
 -6.20995644 -6.2224335  -6.21993809 -6.19747938 -6.16254362 -6.11762621
 -6.06272716 -6.00782811 -5.95043364 -5.89553459 -5.85061718 -5.81069059
 -5.78324107 -5.76327777 -5.75329613 -5.75329613 -5.75828695 -5.77325942
 -5.79571812 -5.82316765 -5.85810341 -5.90052541 -5.95292905 -6.01032352
 -6.07270881 -6.14258033 -6.21245185 -6.27982797 -6.34221326 -6.3946169
 -6.43454348 -6.4594976 ]",7.562630401066936,1.2538819246111097,3.9589400000000006,-0.028980000000000672
002,1,1,csm,19b.png,1,1,44,263,NaN,0,1,367,neu_feedback_onset,4,"[ 4.08999342e-01  3.84581471e-01  3.46598116e-01  3.00475470e-01
  2.54352825e-01  2.08230179e-01  1.67533727e-01  1.32263469e-01
  1.02419404e-01  7.25753393e-02  4.00181777e-02  2.03482260e-03
 -4.68009197e-02 -1.06489049e-01 -1.77029566e-01 -2.55709373e-01
 -3.39815374e-01 -4.23921374e-01 -5.02601182e-01 -5.67715505e-01
 -6.16551247e-01 -6.46395312e-01 -6.57247699e-01 -6.46395312e-01
 -6.16551247e-01 -5.73141698e-01 -5.16166666e-01 -4.51052342e-01
 -3.83224923e-01 -3.09971309e-01 -2.34004599e-01 -1.58037888e-01
 -7.93580813e-02  4.74791939e-03  9.42801137e-02  1.89238502e-01
  2.92336180e-01  4.00860052e-01  5.17523214e-01  6.36899473e-01
  7.64415022e-01  8.94643669e-01  1.02758541e+00  1.16324025e+00
  1.30160819e+00  1.43726303e+00  1.57563096e+00  1.71399890e+00
  1.85507993e+00  1.99344787e+00  2.13181581e+00  2.27018374e+00
  2.41126478e+00  2.54963271e+00  2.68800065e+00  2.82908168e+00
  2.96744962e+00  3.10853065e+00  3.24961169e+00  3.39069272e+00
  3.53448685e+00  3.68099408e+00  3.82750131e+00  3.97943473e+00
  4.13136815e+00  4.28330157e+00  4.44066118e+00  4.59802080e+00
  4.75266731e+00  4.90731383e+00  5.05924725e+00  5.20304138e+00
  5.33869622e+00  5.46078558e+00  5.56930945e+00  5.65341545e+00
  5.71310358e+00  5.74294764e+00  5.73480835e+00  5.68868571e+00
  5.59915351e+00  5.46892487e+00  5.29799977e+00  5.09180441e+00
  4.85305189e+00  4.59259460e+00  4.32128492e+00  4.04454905e+00
  3.77323937e+00  3.51549517e+00  3.27674266e+00  3.06240801e+00
  2.87791743e+00  2.72055781e+00  2.59575536e+00  2.50351007e+00
  2.44110884e+00  2.40855168e+00  2.40312549e+00  2.42483026e+00
  2.47366600e+00  2.54149342e+00  2.63102562e+00  2.73683639e+00
  2.85349956e+00  2.98101511e+00  3.11666994e+00  3.25232478e+00
  3.39069272e+00  3.52363446e+00  3.65386311e+00  3.77595247e+00
  3.89261563e+00  4.00113950e+00  4.10423718e+00  4.19919557e+00
  4.29144086e+00  4.37554686e+00  4.45965286e+00  4.53833267e+00
  4.61701247e+00  4.69297918e+00  4.76623280e+00  4.83948641e+00
  4.91274002e+00  4.98599364e+00  5.05924725e+00  5.13250086e+00
  5.20575448e+00  5.27900809e+00  5.35226171e+00  5.42551532e+00
  5.49876893e+00  5.57202255e+00  5.64256306e+00  5.71581668e+00
  5.78907029e+00  5.86232390e+00  5.93557752e+00  6.00883113e+00
  6.08208474e+00  6.15533836e+00  6.22587887e+00  6.29913249e+00
  6.37238610e+00  6.44563971e+00  6.51889333e+00  6.59214694e+00
  6.66540055e+00  6.73865417e+00  6.80919469e+00  6.88244830e+00
  6.95570191e+00  7.02895553e+00  7.10220914e+00  7.17546275e+00
  7.24871637e+00  7.32196998e+00  7.39251050e+00  7.46576411e+00
  7.53901772e+00  7.61227134e+00  7.68552495e+00  7.75877856e+00
  7.83203218e+00  7.90528579e+00  7.97582631e+00  8.04907992e+00
  8.12233353e+00  8.19558715e+00  8.26884076e+00  8.34209438e+00
  8.41534799e+00  8.48588851e+00  8.55914212e+00  8.63239573e+00
  8.70564935e+00  8.77890296e+00  8.85215657e+00  8.92541019e+00
  8.99866380e+00  9.06920432e+00  9.14245793e+00  9.21571154e+00
  9.28896516e+00  9.36221877e+00  9.43547238e+00  9.50872600e+00
  9.58197961e+00  9.65252013e+00  9.72577374e+00  9.79902735e+00
  9.87228097e+00  9.94553458e+00  1.00187882e+01  1.00893287e+01
  1.01598692e+01  1.02304097e+01  1.02982372e+01  1.03633515e+01
  1.04230396e+01  1.04745885e+01  1.05179980e+01  1.05451290e+01
  1.05586945e+01  1.05478421e+01  1.05152849e+01  1.04555968e+01
  1.03714908e+01  1.02575407e+01  1.01164597e+01  9.95367387e+00
  9.77189639e+00  9.57926651e+00  9.37849735e+00  9.17772819e+00
  8.97695903e+00  8.78432915e+00  8.60255167e+00  8.42891347e+00
  8.26612766e+00  8.11148115e+00  7.96768702e+00  7.83203218e+00
  7.70451663e+00  7.58785347e+00  7.48475579e+00  7.39522359e+00
  7.32739617e+00  7.28398662e+00  7.26770804e+00  7.28398662e+00
  7.34096166e+00  7.43592005e+00  7.57700108e+00  7.76420476e+00
  7.99481799e+00  8.26612766e+00  8.57542070e+00  8.91184470e+00
  9.26726038e+00  9.63081535e+00  9.98894413e+00  1.03280812e+01
  1.06346612e+01  1.08951185e+01  1.11013138e+01  1.12451079e+01
  1.13210747e+01  1.13292139e+01  1.12722389e+01  1.11555758e+01
  1.09873638e+01  1.07757422e+01  1.05288504e+01  1.02548276e+01
  9.96452626e+00  9.66065942e+00  9.35407948e+00  9.04207335e+00]","[-0.60086748 -0.51862954 -0.43904445 -0.36476503 -0.2904856  -0.21620618
 -0.14192676 -0.06764733  0.00663209  0.08091151  0.14723243  0.20559483
  0.25334589  0.28783277  0.30374978  0.30640262  0.29579127  0.27722142
  0.25069305  0.22416469  0.202942    0.18967781  0.18967781  0.20559483
  0.2321232   0.27456858  0.33027815  0.39394623  0.46822565  0.54781075
  0.63270152  0.72289796  0.81574724  0.90859652  1.00409863  1.09960075
  1.19510286  1.29060498  1.3861071   1.48426205  1.57976416  1.67791912
  1.77342123  1.86892335  1.9670783   2.06258041  2.16073537  2.25623748
  2.3517396   2.44989455  2.54539667  2.64355162  2.73905373  2.83720869
  2.9327108   3.02821292  3.12636787  3.22186998  3.32002494  3.41552705
  3.513682    3.60918412  3.70468624  3.80284119  3.8983433   3.99384542
  4.09200037  4.18484965  4.28035177  4.37054821  4.45809181  4.54032975
  4.61460917  4.67562441  4.72337547  4.747251    4.747251    4.71541696
  4.65174888  4.54828826  4.41034076  4.23790638  4.0362908   3.8107997
  3.56939157  3.3173721   3.06269979  2.81333316  2.56661936  2.32786407
  2.09176162  1.858312    1.62486238  1.38875993  1.14735181  0.90329084
  0.65392421  0.40986325  0.17110796 -0.05438315 -0.25865156 -0.43639161
 -0.58495046 -0.70167527 -0.78656604 -0.84492844 -0.87941531 -0.89798517
 -0.90859652 -0.91655503 -0.93247205 -0.95900041 -1.0014458  -1.05715536
 -1.12612911 -1.20306137 -1.28529931 -1.36753724 -1.43916383 -1.50017907
 -1.54262445 -1.56649998 -1.57180565 -1.55588863 -1.52140176 -1.46834503
 -1.39937128 -1.31713334 -1.21897839 -1.10755926 -0.98552878 -0.85023411
 -0.70963378 -0.56107493 -0.40986325 -0.2613044  -0.11805123  0.0145906
  0.13396825  0.23742887]",9.498048648888764,3.6061996790067723,3.685824999999999,
002,1,1,csm,9b.png,1,1,344,266,345,1,1,457,neu_feedback_onset,5,"[-1.40949294 -1.08195779 -0.78596306 -0.53121349 -0.32013528 -0.15272843
 -0.03141911  0.05349741  0.10929969  0.13841393  0.15782342  0.17238054
  0.19179003  0.22575664  0.27913274  0.35191832  0.45139196  0.57512747
  0.72069864  0.88567931  1.0652171   1.25688582  1.45098073  1.64264944
  1.82218723  1.97988934  2.10847722  2.19824611  2.24191746  2.23221272
  2.1642795   2.040544    1.8634324   1.63537089  1.36849039  1.07249566
  0.76194381  0.44653959  0.1432663  -0.14544987 -0.40505181 -0.63311332
 -0.82478204 -0.98491033 -1.11349821 -1.21539803 -1.29060981 -1.34883828
 -1.39250963 -1.42405006 -1.44588573 -1.46529522 -1.47985234 -1.48955709
 -1.50168802 -1.51139276 -1.51867132 -1.52837607 -1.53565463 -1.54293319
 -1.55263793 -1.55991649 -1.56962124 -1.57689979 -1.58417835 -1.5938831
 -1.60116166 -1.6108664  -1.61814496 -1.62784971 -1.63755445 -1.64968538
 -1.6642425  -1.67879962 -1.69820911 -1.72247097 -1.7540114  -1.787978
 -1.83164936 -1.88017308 -1.93597537 -1.99905621 -2.06698943 -2.14220121
 -2.22469154 -2.31446043 -2.41636026 -2.53039102 -2.66140508 -2.81425482
 -2.98651404 -3.18546132 -3.40867046 -3.65371528 -3.92059577 -4.1996072
 -4.48832337 -4.77703954 -5.05847716 -5.32778384 -5.57768103 -5.80089017
 -5.99741126 -6.1672443  -6.30796311 -6.42442005 -6.51661513 -6.59182691
 -6.65005538 -6.6985791  -6.73982427 -6.77136469 -6.80047893 -6.82231461
 -6.83687172 -6.8417241  -6.83201935 -6.8053313  -6.75680758 -6.67916961
 -6.56513886 -6.40986293 -6.21334184 -5.96829702 -5.67472848 -5.33991477
 -4.96385589 -4.55868277 -4.13652636 -3.70709138 -3.28493496 -2.8870404
 -2.52311246 -2.20285586 -1.93840156 -1.72974953 -1.57932598 -1.48470471
 -1.44103336 -1.43860717 -1.46772141 -1.51624514 -1.57447361 -1.63027589
 -1.67879962 -1.70791386 -1.7176186  -1.70791386 -1.67394725 -1.62057115
 -1.55263793 -1.4701476  -1.37795252 -1.28090506 -1.18143143 -1.08195779
 -0.98733652 -0.89756763 -0.81507729 -0.73986552 -0.6719323  -0.61127764
 -0.55790154 -0.50937782 -0.46085409 -0.41233036 -0.35652808 -0.28616868
 -0.19882597 -0.08964758  0.04864504  0.21605189  0.41742536  0.64791306
  0.9050888   1.18410023  1.47524259  1.76881113  2.05267493  2.31227687
  2.53548601  2.70774524  2.82420218  2.87272591  2.85089023  2.76112133
  2.60099304  2.38021008  2.10119866  1.77608969  1.40730937  1.00698863
  0.58240602  0.13841393 -0.31528291 -0.77383212 -1.23238134 -1.67879962
 -2.1082346  -2.51098153 -2.87976185 -3.207297   -3.48630842 -3.70951756
 -3.87692442 -3.9861028  -4.0394789  -4.0394789  -3.99095518 -3.90118628
 -3.7750246  -3.61974867 -3.44263707 -3.24854217 -3.03989014 -2.82153337
 -2.59832423 -2.37026272 -2.13977502 -1.90686113 -1.67394725 -1.44103336
 -1.20569329 -0.9727794  -0.73986552 -0.50452544 -0.27161156 -0.03869767
  0.1966424   0.42955629  0.66489636  0.89781025  1.13072413  1.36363802
  1.5965519   1.82946579  2.0575273   2.28558882  2.50637177  2.72230235
  2.92852819  3.1226231   3.30216088  3.46471537  3.60300799  3.71946493
  3.80923382  3.86988848  3.90385509  3.91113365  3.89415034  3.85533136
  3.80195526  3.73402205  3.65881027  3.57874612  3.49625579  3.41376545
  3.33127512  3.25121097]","[-3.53052775 -3.28596978 -2.99200617 -2.65357746 -2.27315396 -1.85567622
 -1.41349565 -0.9540231  -0.48960999 -0.02766716  0.41698369  0.83940199
  1.23217691  1.59283816  1.92138573  2.21534935  2.47966958  2.7168167
  2.93173127  3.12935387  3.31215478  3.48754484  3.65305376  3.81362213
  3.97419049  4.12981829  4.28544608  4.4386036   4.59176111  4.74738891
  4.90054643  5.05370394  5.20686146  5.36001897  5.51564677  5.66880428
  5.8219618   5.97511931  6.12827683  6.28143434  6.43706214  6.59021966
  6.74337717  6.89653469  7.0496922   7.20284972  7.35847752  7.51163503
  7.66479255  7.81795006  7.97110758  8.12673537  8.27989289  8.4330504
  8.58620792  8.73936543  8.89252295  9.04568046  9.20130826  9.35199549
  9.50515301  9.65831052  9.80652747  9.95474442 10.09802081 10.23388635
 10.36234104 10.47597403 10.56984477 10.64395324 10.69088861 10.70818059
 10.68841833 10.63654239 10.55008251 10.43150895 10.29070284 10.13507505
  9.96709584  9.79911663  9.63607798  9.48045018  9.34211436  9.21612996
  9.10249696  9.00368566  8.91475549  8.83570645  8.76159798  8.69243007
  8.62573244  8.56397538  8.49974803  8.43799097  8.37623391  8.31694713
  8.25519006  8.193433    8.13414622  8.07238916  8.0106321   7.94887503
  7.88958825  7.82783119  7.76607413  7.70678735  7.64503029  7.58327322
  7.52398644  7.46222938  7.40047232  7.34118554  7.27942848  7.21767141
  7.15838463  7.09662757  7.03487051  6.97558373  6.91382667  6.8520696
  6.79278282  6.73102576  6.6692687   6.60998192  6.54822485  6.48646779
  6.42471073  6.36542395  6.30366689  6.24190982  6.18262304  6.12086598
  6.05910892  5.99982214  5.93806508  5.87630801  5.81702123  5.75526417
  5.69350711  5.63422033]",2.8753086197038895,9.58685760303551,4.121694999999999,-0.22437499999999932
002,1,1,csm,49b.png,1,1,216,353,214,1,1,478,neu_feedback_onset,6,"[-0.98327918 -0.87648807 -0.76969695 -0.66557562 -0.5587845  -0.45199339
 -0.34787205 -0.24108094 -0.13428983 -0.03016849  0.07662262  0.18074396
  0.28219552  0.38364708  0.48242886  0.57587108  0.66397375  0.74139731
  0.80814175  0.86420709  0.90158398  0.92561198  0.93095154  0.9229422
  0.90158398  0.87221642  0.84284887  0.81615109  0.8028022   0.80013242
  0.81615109  0.84551864  0.88823509  0.93629109  0.98701687  1.02706354
  1.04842176  1.04842176  1.02172398  0.96298887  0.87755598  0.77076486
  0.64528531  0.51446619  0.38631685  0.27151641  0.18074396  0.11933907
  0.09531107  0.10865996  0.15938574  0.24214885  0.35160974  0.47975908
  0.61324797  0.74673686  0.86954665  0.9709982   1.05109154  1.10181732
  1.12317554  1.11783598  1.08312887  1.02439376  0.94963998  0.85886753
  0.75741598  0.64795508  0.53849419  0.42369374  0.31156307  0.19943241
  0.08730174 -0.02749871 -0.14229916 -0.26243916 -0.3905885  -0.52407739
 -0.67091517 -0.82843207 -1.00196763 -1.1861823  -1.38374586 -1.59465831
 -1.81358009 -2.03784143 -2.26477255 -2.49170367 -2.71329523 -2.92687745
 -3.12978057 -3.31399524 -3.48219125 -3.62902903 -3.74916903 -3.84528103
 -3.91202548 -3.94940237 -3.9574117  -3.93605348 -3.8853277  -3.81057392
 -3.71446192 -3.60233125 -3.47418191 -3.34069302 -3.20186457 -3.06303612
 -2.92687745 -2.79872812 -2.67591834 -2.56378767 -2.46233611 -2.37156366
 -2.2941401  -2.23006544 -2.17933966 -2.13929299 -2.11259521 -2.09390677
 -2.08322765 -2.07521832 -2.07254854 -2.06453921 -2.05119032 -2.0298321
 -1.99512499 -1.94439921 -1.87498498 -1.78154276 -1.66674231 -1.52791386
 -1.36772719 -1.1861823  -0.99128851 -0.7883854  -0.58548228 -0.38791872
 -0.20637383 -0.04618716  0.08730174  0.18875329  0.2608373   0.30355374
  0.32758174  0.33826085  0.34360041  0.35160974  0.37296797  0.41301463
  0.4770893   0.56519197  0.67465286  0.80013242  0.94163065  1.09113821
  1.24064577  1.38481377  1.52364222  1.65713111  1.78261067  1.90542045
  2.02823023  2.15637957  2.29520802  2.44471558  2.6102418   2.78911692
  2.98134092  3.18157426  3.38714716  3.59538983  3.79562317  3.98784717
  4.16939206  4.33758807  4.48976541  4.63126363  4.75674319  4.87421342
  4.97833475  5.07711653  5.16788898  5.24798232  5.32006632  5.38147121
  5.42952721  5.46423432  5.48025299  5.48025299  5.46423432  5.42685743
  5.37613165  5.31205698  5.23463343  5.15454009  5.0691072   4.98634409
  4.90625075  4.83683653  4.77543164  4.73004541  4.69800808  4.67931963
  4.67398008  4.68198941  4.70601741  4.73805475  4.78077119  4.82882719
  4.88489253  4.94629742  5.01037209  5.07978631  5.14653076  5.21861476
  5.28802898  5.36011298  5.42952721  5.50161121  5.57369521  5.64577921
  5.71786322  5.78994722  5.86203122  5.93411522  6.00619922  6.07828323
  6.15303701  6.22779079  6.30521434  6.38797746  6.47608013  6.57219213
  6.67631346  6.79378369  6.92193303  7.06610103  7.22094814  7.38380459
  7.54933082  7.71485705  7.86703438  8.00586283  8.1179935   8.20075662
  8.25148239  8.26750106  8.25148239  8.20876595  8.13935172  8.04857928
  7.94178816  7.82431794  7.69883838  7.56534949  7.42919082  7.29303215
  7.15153392  7.01270547]","[-2.99624432 -2.69438107 -2.36987807 -2.02525086 -1.67056154 -1.31084117
 -0.95363632 -0.60397805 -0.2643819   0.0601211   0.3670154   0.65881655
  0.93049347  1.18959276  1.43108336  1.65999633  1.8713006   2.06751172
  2.24611414  2.40710787  2.54546186  2.66117611  2.75676614  2.82971642
  2.88254249  2.91775987  2.94039962  2.9479462   2.94543067  2.93788409
  2.92530645  2.91021329  2.89008907  2.87248039  2.84984064  2.82971642
  2.80959221  2.78695246  2.76431272  2.7441885   2.72154876  2.70142454
  2.6787848   2.65866058  2.63602084  2.61589662  2.59325688  2.57061713
  2.55049292  2.52785317  2.50772896  2.48508921  2.464965    2.44232525
  2.41968551  2.39704576  2.37189049  2.3442197   2.31403337  2.28133152
  2.24359861  2.20083465  2.15555516  2.10524462  2.04990303  1.9920459
  1.92915773  1.86123849  1.78577268  1.70276029  1.60968579  1.50654917
  1.39083493  1.26254305  1.12167353  0.9707419   0.80974817  0.64623891
  0.48272965  0.32425144  0.1808664   0.05005899 -0.0606242  -0.15118318
 -0.22161794 -0.27192848 -0.30714586 -0.33230113 -0.34739429 -0.36248745
 -0.37758062 -0.39518931 -0.4228601  -0.45556196 -0.49581039 -0.5436054
 -0.59643147 -0.65177307 -0.71214572 -0.7750339  -0.8404376  -0.90332578
 -0.96872948 -1.03413319 -1.09953689 -1.1649406  -1.2303443  -1.29323248
 -1.35863618 -1.42403989 -1.48944359 -1.55484729 -1.61773547 -1.68313918
 -1.74854288 -1.81394659 -1.88186582 -1.94726952 -2.01770428 -2.08813904
 -2.16360485 -2.24158619 -2.32711411 -2.41767309 -2.51577864 -2.62394631
 -2.73714503 -2.8553748  -2.97863563 -3.10189646 -3.22012623 -3.32829389
 -3.42639945 -3.50438079 -3.56223791 -3.59997082 -3.61254846 -3.60500187
 -3.57230002 -3.51695843]",7.35767313165506,2.234354050375959,3.7456300000000007,0.046805000000000874
002,1,1,csm,27b.png,1,1,288,269,283,1,1,312,neu_feedback_onset,7,"[ -1.30326697  -1.07784522  -0.84989065  -0.62953455  -0.42184261
  -0.23188046  -0.06471377   0.0745918    0.18603626   0.26708678
   0.32280901   0.35320295   0.36839992   0.37093275   0.37093275
   0.37853124   0.39626104   0.43172064   0.4899757    0.56849338
   0.66980653   0.7913823    0.92562222   1.06999345   1.21689751
   1.36126874   1.50057432   1.62468292   1.73359455   1.82477638
   1.89062993   1.92862236   1.93875367   1.91089256   1.84250618
   1.73106172   1.56896069   1.35620309   1.09532174   0.78631665
   0.43931913   0.056862    -0.34332492  -0.75111033  -1.15636291
  -1.54135286  -1.90354735  -2.22774942  -2.51649188  -2.76724191
  -2.97746669  -3.15729752  -3.30926724  -3.44350716  -3.56001727
  -3.6689289   -3.77530771  -3.87915368  -3.98553248  -4.09444411
  -4.20588857  -4.32239869  -4.43890881  -4.56048458  -4.68206035
  -4.80616896  -4.93281039  -5.05691899  -5.18356042  -5.31020185
  -5.43937611  -5.56601754  -5.69265898  -5.81930041  -5.94847467
  -6.0751161   -6.20175753  -6.33093179  -6.45757322  -6.58421465
  -6.71085608  -6.83749751  -6.96160612  -7.08571472  -7.20982332
  -7.32886627  -7.44537638  -7.55682084  -7.66319965  -7.76451279
  -7.85822745  -7.94434362  -8.02286131  -8.09631334  -8.16469971
  -8.22802043  -8.28627549  -8.34453055  -8.40025278  -8.45344218
  -8.50663158  -8.55222249  -8.59528058  -8.63327301  -8.66113412
  -8.67886393  -8.68646241  -8.68392958  -8.66366695  -8.63327301
  -8.58514927  -8.52436138  -8.44584369  -8.35466186  -8.25081589
  -8.13430577  -8.00513151  -7.86835877  -7.7214547   -7.56695216
  -7.40738396  -7.23768444  -7.06545209  -6.88308843  -6.69565911
  -6.50316414  -6.30813633  -6.1105757   -5.91301507  -5.71798726
  -5.52295946  -5.33553014  -5.15063365  -4.96826999  -4.78843916
  -4.61114115  -4.43384315  -4.25654515  -4.07924714  -3.9070148
  -3.73478245  -3.57268142  -3.4207117   -3.2788733   -3.15223187
  -3.04078741  -2.94453992  -2.86095657  -2.7925702   -2.73431514
  -2.6861914   -2.64313331  -2.60514088  -2.57474694  -2.54941865
  -2.52915602  -2.51649188  -2.51142622  -2.51649188  -2.53168885
  -2.55701714  -2.59247674  -2.64060048  -2.69885554  -2.76724191
  -2.84829243  -2.93694143  -3.03825458  -3.14716621  -3.26620915
  -3.39031776  -3.52202484  -3.65626476  -3.79557034  -3.93487591
  -4.07418148  -4.21348706  -4.35785829  -4.50222952  -4.65419924
  -4.81630027  -4.98853262  -5.17342911  -5.37352257  -5.58628017
  -5.80663626  -6.03205801  -6.25747976  -6.47530302  -6.68046214
  -6.86789146  -7.03252532  -7.17436372  -7.28834101  -7.37952284
  -7.45044204  -7.50363144  -7.5441567   -7.5796163   -7.6150759
  -7.65560116  -7.70879056  -7.77211128  -7.85316179  -7.94940928
  -8.06338657  -8.190028    -8.32933357  -8.47117198  -8.61807604
  -8.75991444  -8.89162153  -9.0131973   -9.11704328  -9.20062662
  -9.26648017  -9.31713674  -9.34753068  -9.36779331  -9.37792463
  -9.38552311  -9.39058877  -9.39818725  -9.4108514   -9.43617968
  -9.46910646  -9.51216454  -9.56788677  -9.63120749  -9.70465952
  -9.78317721  -9.86929338  -9.95540955 -10.04405855 -10.13017473
 -10.21122524 -10.28974293 -10.36066213 -10.42651568 -10.48477073
 -10.53796014 -10.58608388 -10.62914197 -10.66966722 -10.70512683
 -10.74058643 -10.7735132  -10.80643997 -10.83936674 -10.86976069
 -10.90015463 -10.93054857 -10.96347534 -10.99386929 -11.02426323
 -11.05465718 -11.08505112 -11.11544506 -11.14583901 -11.17623295]","[-2.00750642 -1.80041521 -1.59588067 -1.39390283 -1.1893683  -0.98483376
 -0.77262919 -0.55531125 -0.32776659 -0.09766524  0.14010615  0.37532086
  0.60797889  0.83296688  1.04517145  1.23947926  1.41333361  1.5667345
  1.69712527  1.80706258  1.89910312  1.97580357  2.03972061  2.09085424
  2.13176114  2.17011137  2.20079155  2.23147173  2.25703854  2.28260536
  2.3056155   2.32862563  2.35419245  2.3746459   2.39765603  2.42066617
  2.4436763   2.46668644  2.48969657  2.51270671  2.53571684  2.55872698
  2.58173711  2.60219056  2.6252007   2.64821083  2.67122097  2.6942311
  2.71724124  2.74025137  2.76326151  2.78371496  2.8067251   2.82973523
  2.85274536  2.8757555   2.89876563  2.92177577  2.9447859   2.96779604
  2.98824949  3.01125963  3.03426976  3.0572799   3.08029003  3.10330016
  3.1263103   3.14932043  3.17233057  3.19278402  3.21579416  3.23880429
  3.26181443  3.28482456  3.3078347   3.33084483  3.35385496  3.37430842
  3.39731855  3.42032869  3.44333882  3.46634896  3.48935909  3.51236923
  3.53537936  3.5583895   3.57884295  3.60185308  3.62486322  3.64787335
  3.67088349  3.69389362  3.71690376  3.73991389  3.76292403  3.78337748
  3.80638761  3.82939775  3.85240788  3.87541802  3.89842815  3.92143829
  3.94444842  3.96490187  3.98791201  4.01092214  4.03393228  4.05694241
  4.07995255  4.10296268  4.12597282  4.14898295  4.16943641  4.19244654
  4.21545667  4.23846681  4.26147694  4.28448708  4.30749721  4.33050735
  4.35351748  4.37652762  4.39953775  4.42254789  4.44555802  4.46856816
  4.49413497  4.51970179  4.54782529  4.57850547  4.61429901  4.65264923
  4.69355614  4.74213309  4.7958234   4.85718376  4.92365749  4.99780125
  5.07705838  5.16398556]",0.33243375703335293,4.640718052558559,3.948155,0.1079299999999992
002,1,1,csp,58a.png,1,1,128,68,NaN,0,1,300,neg_feedback_onset,8,"[-1.35961762e+00 -1.34836065e+00 -1.30333274e+00 -1.22003111e+00
 -1.09620437e+00 -9.40858097e-01 -7.56243682e-01 -5.51366710e-01
 -3.35232761e-01 -1.16847416e-01  9.70351375e-02  3.04163505e-01
  5.00034897e-01  6.82397916e-01  8.58006750e-01  1.02235861e+00
  1.17995628e+00  1.32854837e+00  1.46588348e+00  1.58971022e+00
  1.69552580e+00  1.77657603e+00  1.83060952e+00  1.85087208e+00
  1.83736371e+00  1.78558161e+00  1.70002859e+00  1.58295604e+00
  1.43886674e+00  1.27226349e+00  1.08990047e+00  9.03034656e-01
  7.13917450e-01  5.33805826e-01  3.71705364e-01  2.34370251e-01
  1.28554672e-01  5.87614174e-02  3.39960691e-02  4.97558362e-02
  1.06040719e-01  2.00599321e-01  3.24426063e-01  4.66263967e-01
  6.17107452e-01  7.65699542e-01  9.03034656e-01  1.02235861e+00
  1.11466581e+00  1.17995628e+00  1.21823000e+00  1.22948697e+00
  1.21597860e+00  1.18220767e+00  1.13267698e+00  1.07188930e+00
  1.00209605e+00  9.27800004e-01  8.46749773e-01  7.65699542e-01
  6.82397916e-01  5.96844895e-01  5.11291873e-01  4.25738852e-01
  3.40185830e-01  2.54632809e-01  1.69079787e-01  8.35267657e-02
 -2.02625577e-03 -8.75792773e-02 -1.73132299e-01 -2.58685320e-01
 -3.44238342e-01 -4.29791363e-01 -5.15344385e-01 -6.00897406e-01
 -6.86450428e-01 -7.72003449e-01 -8.57556471e-01 -9.43109492e-01
 -1.02866251e+00 -1.11421554e+00 -1.19976856e+00 -1.28532158e+00
 -1.37087460e+00 -1.45642762e+00 -1.54198064e+00 -1.62753366e+00
 -1.71308669e+00 -1.79863971e+00 -1.88419273e+00 -1.96974575e+00
 -2.05529877e+00 -2.14085179e+00 -2.22640481e+00 -2.31195784e+00
 -2.39751086e+00 -2.48306388e+00 -2.56861690e+00 -2.65416992e+00
 -2.73972294e+00 -2.82527596e+00 -2.91082899e+00 -2.99638201e+00
 -3.08193503e+00 -3.16748805e+00 -3.25304107e+00 -3.33859409e+00
 -3.42414712e+00 -3.50970014e+00 -3.59525316e+00 -3.68080618e+00
 -3.76635920e+00 -3.85191222e+00 -3.93746524e+00 -4.02301827e+00
 -4.10857129e+00 -4.19412431e+00 -4.27967733e+00 -4.36523035e+00
 -4.45078337e+00 -4.53633639e+00 -4.62188942e+00 -4.70744244e+00
 -4.79299546e+00 -4.87854848e+00 -4.96635290e+00 -5.05190592e+00
 -5.13745894e+00 -5.22301196e+00 -5.30856498e+00 -5.39411800e+00
 -5.47967103e+00 -5.56522405e+00 -5.65077707e+00 -5.73633009e+00
 -5.82188311e+00 -5.90743613e+00 -5.99298916e+00 -6.07854218e+00
 -6.16409520e+00 -6.24964822e+00 -6.33520124e+00 -6.42075426e+00
 -6.50630728e+00 -6.59186031e+00 -6.67741333e+00 -6.76296635e+00
 -6.84851937e+00 -6.93407239e+00 -7.01962541e+00 -7.10517843e+00
 -7.19073146e+00 -7.27628448e+00 -7.36183750e+00 -7.44739052e+00
 -7.53294354e+00 -7.62074796e+00 -7.70855238e+00 -7.79860819e+00
 -7.89091539e+00 -7.98772539e+00 -8.08903818e+00 -8.20160795e+00
 -8.32318329e+00 -8.46051841e+00 -8.61811608e+00 -8.79372491e+00
 -8.99635049e+00 -9.22149002e+00 -9.47139490e+00 -9.74156233e+00
 -1.00274895e+01 -1.03224223e+01 -1.06196065e+01 -1.09100365e+01
 -1.11824553e+01 -1.14346116e+01 -1.16552483e+01 -1.18443655e+01
 -1.19997118e+01 -1.21235386e+01 -1.22158458e+01 -1.22811362e+01
 -1.23239127e+01 -1.23464267e+01 -1.23576837e+01 -1.23576837e+01
 -1.23509295e+01 -1.23396725e+01 -1.23239127e+01 -1.23059016e+01
 -1.22878904e+01 -1.22676279e+01 -1.22496167e+01 -1.22293541e+01
 -1.22090916e+01 -1.21888290e+01 -1.21685665e+01 -1.21483039e+01
 -1.21257900e+01 -1.21032760e+01 -1.20785107e+01 -1.20492425e+01
 -1.20154716e+01 -1.19726951e+01 -1.19186616e+01 -1.18488683e+01
 -1.17565611e+01 -1.16417400e+01 -1.14953993e+01 -1.13130363e+01
 -1.10946509e+01 -1.08379918e+01 -1.05453105e+01 -1.02188581e+01
 -9.86538907e+00 -9.49390885e+00 -9.11117165e+00 -8.72843445e+00
 -8.35470283e+00 -7.99447958e+00 -7.65677028e+00 -7.34382634e+00
 -7.06015053e+00 -6.80349146e+00 -6.57610054e+00 -6.37347496e+00
 -6.19786613e+00 -6.04702264e+00 -5.91644171e+00 -5.81062614e+00
 -5.72507311e+00 -5.66203405e+00 -5.61925753e+00 -5.59674358e+00
 -5.59449219e+00 -5.61250335e+00 -5.64627428e+00 -5.70030777e+00
 -5.77010102e+00 -5.85790544e+00 -5.96372102e+00 -6.08529636e+00
 -6.22038008e+00 -6.37347496e+00 -6.53782682e+00 -6.71118426e+00
 -6.89129588e+00 -7.06915611e+00 -7.23801076e+00 -7.39335703e+00
 -7.52618936e+00 -7.62975354e+00 -7.69729540e+00 -7.73106633e+00
 -7.72656354e+00 -7.68828982e+00 -7.62074796e+00 -7.52844075e+00]","[-1.38778450e+00 -1.04537217e+00 -7.28323714e-01 -4.46784685e-01
 -2.05827858e-01 -7.98962110e-03  1.41657250e-01  2.45649144e-01
  3.06522448e-01  3.31886324e-01  3.29349937e-01  3.06522448e-01
  2.73549408e-01  2.40576369e-01  2.15212492e-01  2.07603329e-01
  2.17748880e-01  2.58331082e-01  3.24277161e-01  4.23196280e-01
  5.50015662e-01  7.04735309e-01  8.87355220e-01  1.09026623e+00
  1.31093196e+00  1.54427962e+00  1.79030922e+00  2.04648438e+00
  2.30519592e+00  2.56898023e+00  2.83783732e+00  3.10415803e+00
  3.37301512e+00  3.64440860e+00  3.91326569e+00  4.18465917e+00
  4.45605265e+00  4.72490974e+00  4.99630321e+00  5.26769669e+00
  5.53655378e+00  5.80794726e+00  6.07934074e+00  6.35073422e+00
  6.62212770e+00  6.89605757e+00  7.16998743e+00  7.44645369e+00
  7.72545633e+00  8.00445897e+00  8.28853439e+00  8.57260980e+00
  8.85668522e+00  9.13822425e+00  9.41976328e+00  9.69115676e+00
  9.95494107e+00  1.02060435e+01  1.04393911e+01  1.06499113e+01
  1.08376040e+01  1.09948600e+01  1.11140702e+01  1.11926982e+01
  1.12231349e+01  1.12028438e+01  1.11267522e+01  1.09923236e+01
  1.08046309e+01  1.05662105e+01  1.02872079e+01  9.97523217e+00
  9.64296539e+00  9.30562583e+00  8.97589544e+00  8.66645615e+00
  8.38745350e+00  8.14649668e+00  7.94612205e+00  7.78632963e+00
  7.67219219e+00  7.59356417e+00  7.54790919e+00  7.52761809e+00
  7.52761809e+00  7.53776364e+00  7.55805474e+00  7.58595501e+00
  7.62146443e+00  7.66458302e+00  7.72038355e+00  7.79140241e+00
  7.88017597e+00  7.98924064e+00  8.11352364e+00  8.25048857e+00
  8.38998989e+00  8.52441844e+00  8.64109227e+00  8.73240223e+00
  8.78820275e+00  8.80342108e+00  8.78312998e+00  8.72479306e+00
  8.64109227e+00  8.53963676e+00  8.43057209e+00  8.32658020e+00
  8.23780663e+00  8.16932417e+00  8.12366919e+00  8.10591448e+00
  8.11352364e+00  8.14649668e+00  8.19976082e+00  8.27585245e+00
  8.36716240e+00  8.47622707e+00  8.60051007e+00  8.73747500e+00
  8.88712187e+00  9.04184152e+00  9.19909755e+00  9.35888998e+00
  9.51107323e+00  9.65564733e+00  9.78753949e+00  9.90167693e+00
  1.00005961e+01  1.00792241e+01  1.01400974e+01  1.01806796e+01
  1.02060435e+01  1.02136526e+01  1.02060435e+01  1.01832160e+01
  1.01477065e+01  1.00969788e+01  1.00335691e+01  9.96255024e+00]",0.6382705681846431,9.214949976094548,4.4416899999999995,
002,1,1,csp,64a.png,1,1,284,271,281,1,1,610,neg_feedback_onset,9,"[ 1.49841359e-01  1.37270775e-01  1.27214308e-01  1.14643725e-01
  1.04587257e-01  9.20166736e-02  8.19602066e-02  6.93896227e-02
  5.68190389e-02  4.67625718e-02  3.41919880e-02  1.91072874e-02
  4.02258683e-03 -1.35762305e-02 -3.87173982e-02 -7.14009161e-02
 -1.14140901e-01 -1.74479704e-01 -2.57445557e-01 -3.68066694e-01
 -5.11371350e-01 -6.97415991e-01 -9.26200616e-01 -1.20023934e+00
 -1.51701806e+00 -1.87402264e+00 -2.26371074e+00 -2.67099765e+00
 -3.08582692e+00 -3.49311383e+00 -3.87525958e+00 -4.22220770e+00
 -4.52138759e+00 -4.76274280e+00 -4.94375921e+00 -5.06192270e+00
 -5.12477562e+00 -5.13231797e+00 -5.09963445e+00 -5.03929565e+00
 -4.95884391e+00 -4.87839217e+00 -4.80799690e+00 -4.75771457e+00
 -4.74011575e+00 -4.75771457e+00 -4.81805337e+00 -4.91861804e+00
 -5.05689446e+00 -5.22785440e+00 -5.42144139e+00 -5.63262720e+00
 -5.84884124e+00 -6.06254117e+00 -6.26618463e+00 -6.44971515e+00
 -6.61564686e+00 -6.75643740e+00 -6.87962912e+00 -6.98270790e+00
 -7.07321611e+00 -7.15618196e+00 -7.23663370e+00 -7.31708543e+00
 -7.40005129e+00 -7.48553126e+00 -7.57352534e+00 -7.65900531e+00
 -7.73442882e+00 -7.79979585e+00 -7.84504996e+00 -7.86264877e+00
 -7.85007819e+00 -7.80230997e+00 -7.71431588e+00 -7.58609593e+00
 -7.41765011e+00 -7.21149253e+00 -6.96762320e+00 -6.69107036e+00
 -6.38686223e+00 -6.06254117e+00 -5.72564952e+00 -5.38121553e+00
 -5.03678153e+00 -4.70240400e+00 -4.38813940e+00 -4.09901597e+00
 -3.84006195e+00 -3.61630556e+00 -3.43528915e+00 -3.29198449e+00
 -3.18890571e+00 -3.12102455e+00 -3.08331280e+00 -3.06822810e+00
 -3.07074222e+00 -3.08331280e+00 -3.09336927e+00 -3.09336927e+00
 -3.08079868e+00 -3.04811517e+00 -2.99280460e+00 -2.91235286e+00
 -2.80675996e+00 -2.67854000e+00 -2.53020711e+00 -2.36427541e+00
 -2.18577312e+00 -1.99721436e+00 -1.80111325e+00 -1.60501214e+00
 -1.40891104e+00 -1.21783816e+00 -1.03430764e+00 -8.63347697e-01
 -7.12500691e-01 -5.81766620e-01 -4.78687832e-01 -4.10806680e-01
 -3.78123162e-01 -3.85665512e-01 -4.35947847e-01 -5.26456051e-01
 -6.54676006e-01 -8.20607712e-01 -1.01670882e+00 -1.23795110e+00
 -1.47930630e+00 -1.73323210e+00 -1.99470024e+00 -2.26371074e+00
 -2.53774946e+00 -2.81681642e+00 -3.10593985e+00 -3.40511975e+00
 -3.71938434e+00 -4.04873364e+00 -4.39568175e+00 -4.75771457e+00
 -5.13483208e+00 -5.52200606e+00 -5.91169416e+00 -6.29635403e+00
 -6.67347154e+00 -7.03299024e+00 -7.36988189e+00 -7.68414648e+00
 -7.96824168e+00 -8.21965335e+00 -8.44089563e+00 -8.63196850e+00
 -8.79287198e+00 -8.92360605e+00 -9.02668484e+00 -9.10462246e+00
 -9.16244714e+00 -9.20015889e+00 -9.22781418e+00 -9.25044123e+00
 -9.26804004e+00 -9.29066710e+00 -9.31832238e+00 -9.35352001e+00
 -9.39877412e+00 -9.44654234e+00 -9.49933879e+00 -9.55213524e+00
 -9.59738934e+00 -9.63258698e+00 -9.65269991e+00 -9.66024226e+00
 -9.65269991e+00 -9.63258698e+00 -9.59990346e+00 -9.56219171e+00
 -9.51945172e+00 -9.47671174e+00 -9.43899998e+00 -9.40883058e+00
 -9.38368942e+00 -9.36860472e+00 -9.35854825e+00 -9.35854825e+00
 -9.36357648e+00 -9.37363295e+00 -9.38871765e+00 -9.40883058e+00
 -9.43899998e+00 -9.47419762e+00 -9.51945172e+00 -9.57727641e+00
 -9.64515756e+00 -9.72812341e+00 -9.82114573e+00 -9.92422452e+00
 -1.00323315e+01 -1.01429527e+01 -1.02510597e+01 -1.03465961e+01
 -1.04270479e+01 -1.04848726e+01 -1.05175561e+01 -1.05250984e+01
 -1.04999573e+01 -1.04471608e+01 -1.03692232e+01 -1.02661444e+01
 -1.01429527e+01 -1.00021621e+01 -9.85131513e+00 -9.68789754e+00
 -9.51945172e+00 -9.34597766e+00 -9.16998949e+00 -8.98897308e+00
 -8.81047079e+00 -8.62945439e+00 -8.44843798e+00 -8.26490746e+00
 -8.08389105e+00 -7.90287464e+00 -7.72185823e+00 -7.53832771e+00
 -7.35731130e+00 -7.17629490e+00 -6.99276437e+00 -6.81174796e+00
 -6.63073156e+00 -6.44720103e+00 -6.26618463e+00 -6.08516822e+00
 -5.90415181e+00 -5.72062129e+00 -5.53960488e+00 -5.35858847e+00
 -5.17505795e+00 -4.99404154e+00 -4.81302514e+00 -4.63200873e+00
 -4.44847821e+00 -4.26746180e+00 -4.08644539e+00 -3.90291487e+00
 -3.72189846e+00 -3.54088205e+00 -3.35986565e+00 -3.17884924e+00
 -3.00034695e+00 -2.82435877e+00 -2.64837060e+00 -2.47992478e+00
 -2.31902130e+00 -2.16817430e+00 -2.02989788e+00 -1.90922027e+00
 -1.81116972e+00 -1.73826033e+00 -1.69300623e+00 -1.67792153e+00]","[-2.23022183 -2.15393418 -2.04903866 -1.91553527 -1.753424   -1.5579369
 -1.32907394 -1.06683514 -0.77122048 -0.44222998 -0.08939959  0.28250271
  0.66394097  1.05014721  1.42681749  1.78679985  2.12055833  2.42332495
  2.68794774  2.9168107   3.10514584  3.25772114  3.3769206   3.47228017
  3.54618383  3.60816755  3.65823132  3.70114312  3.74167094  3.78219875
  3.82272657  3.86087039  3.9037822   3.94431001  3.98722182  4.02774963
  4.07066144  4.11357324  4.15648505  4.19939685  4.24230866  4.28522046
  4.32813226  4.37342806  4.41633986  4.45925167  4.50216347  4.54507527
  4.58798708  4.63089888  4.67381069  4.71672249  4.7596343   4.8025461
  4.8454579   4.88836971  4.93128151  4.97419332  5.01710512  5.06001693
  5.10292873  5.14584053  5.18636835  5.22689617  5.26503999  5.30079983
  5.33179169  5.35563158  5.36993551  5.36993551  5.3508636   5.31271977
  5.24596808  5.15060851  5.0218731   4.85976184  4.66665872  4.44256374
  4.18986089  3.91808613  3.62723946  3.32447284  3.01693824  2.70225168
  2.3899491   2.0824145   1.78203187  1.48880121  1.21225847  0.95240366
  0.71162076  0.49706173  0.30395861  0.13707937 -0.00834396 -0.12754342
 -0.22767096 -0.31111058 -0.38024627 -0.43746201 -0.48514179 -0.5256696
 -0.55904545 -0.59003731 -0.61864518 -0.64486906 -0.66870895 -0.69254884
 -0.71638873 -0.74022862 -0.76168453 -0.78552442 -0.80698032 -0.82843622
 -0.85227611 -0.87373202 -0.89518792 -0.91902781 -0.94048371 -0.96193961
 -0.9857795  -1.00723541 -1.02869131 -1.0525312  -1.0739871  -1.095443
 -1.1192829  -1.1407388  -1.1621947  -1.18603459 -1.20749049 -1.2289464
 -1.25278629 -1.27424219 -1.29569809 -1.31953798 -1.34099389 -1.36244979
 -1.38628968 -1.40774558]",2.7922109069322685e-15,4.4779063807469,3.97754,0.08505499999999966
002,1,1,csm,42b.png,1,1,100,304,NaN,0,1,414,neu_feedback_onset,10,"[ 2.61272202e-02  1.93534965e-03 -1.98373339e-02 -4.16100174e-02
 -6.33827009e-02 -8.27361973e-02 -1.02089694e-01 -1.16604816e-01
 -1.28700751e-01 -1.35958313e-01 -1.35958313e-01 -1.26281564e-01
 -1.06928068e-01 -7.54786362e-02 -2.70948950e-02  3.58039684e-02
  1.15637141e-01  2.12404624e-01  3.23687228e-01  4.47065768e-01
  5.80121056e-01  7.18014718e-01  8.53489193e-01  9.76867733e-01
  1.08089278e+00  1.15588758e+00  1.18975619e+00  1.18007945e+00
  1.11959977e+00  1.00347879e+00  8.36554884e-01  6.21247236e-01
  3.62394221e-01  7.45109613e-02 -2.35144982e-01 -5.54477673e-01
 -8.71391178e-01 -1.17620875e+00 -1.45925363e+00 -1.71326827e+00
 -1.94067186e+00 -2.13178763e+00 -2.29387317e+00 -2.42450927e+00
 -2.52853431e+00 -2.60836748e+00 -2.67126635e+00 -2.71965009e+00
 -2.75593789e+00 -2.78254895e+00 -2.80674082e+00 -2.82609432e+00
 -2.84060944e+00 -2.85512456e+00 -2.86963969e+00 -2.88415481e+00
 -2.89625074e+00 -2.90834668e+00 -2.92286180e+00 -2.93495774e+00
 -2.94705367e+00 -2.95914961e+00 -2.97366473e+00 -2.98576066e+00
 -3.00027579e+00 -3.01237172e+00 -3.02688684e+00 -3.04382115e+00
 -3.06075546e+00 -3.08010896e+00 -3.10430083e+00 -3.13575026e+00
 -3.17445726e+00 -3.22284100e+00 -3.28332067e+00 -3.35831547e+00
 -3.45024458e+00 -3.55668881e+00 -3.67522898e+00 -3.80828426e+00
 -3.95101630e+00 -4.10100590e+00 -4.25099550e+00 -4.40098509e+00
 -4.54613632e+00 -4.68402998e+00 -4.81466608e+00 -4.93562543e+00
 -5.04932722e+00 -5.15819064e+00 -5.25979650e+00 -5.35414479e+00
 -5.44607390e+00 -5.52832626e+00 -5.60090187e+00 -5.66138155e+00
 -5.70492692e+00 -5.72911879e+00 -5.73395716e+00 -5.71460366e+00
 -5.67589667e+00 -5.61783618e+00 -5.54767976e+00 -5.47268496e+00
 -5.40010935e+00 -5.33721048e+00 -5.28882674e+00 -5.25979650e+00
 -5.25253894e+00 -5.26705406e+00 -5.30092268e+00 -5.34688723e+00
 -5.40010935e+00 -5.45091228e+00 -5.49203846e+00 -5.51381114e+00
 -5.51381114e+00 -5.48478089e+00 -5.42672040e+00 -5.33962967e+00
 -5.22592788e+00 -5.09045340e+00 -4.93804462e+00 -4.77112071e+00
 -4.59935843e+00 -4.42759615e+00 -4.25583387e+00 -4.09374834e+00
 -3.93650118e+00 -3.78893077e+00 -3.65103711e+00 -3.52523938e+00
 -3.40911840e+00 -3.30751254e+00 -3.22526018e+00 -3.16236132e+00
 -3.12607351e+00 -3.12365433e+00 -3.15752295e+00 -3.23251774e+00
 -3.34863872e+00 -3.50830507e+00 -3.70425922e+00 -3.92924362e+00
 -4.18083907e+00 -4.44211127e+00 -4.70822185e+00 -4.96707486e+00
 -5.20899357e+00 -5.42913959e+00 -5.62267456e+00 -5.78717928e+00
 -5.92507294e+00 -6.03393636e+00 -6.12102709e+00 -6.18876433e+00
 -6.23956726e+00 -6.28069344e+00 -6.31214287e+00 -6.33875393e+00
 -6.36536498e+00 -6.39197604e+00 -6.42342547e+00 -6.45729409e+00
 -6.50083946e+00 -6.55164239e+00 -6.60970288e+00 -6.67502093e+00
 -6.74517735e+00 -6.81775296e+00 -6.89274776e+00 -6.95806581e+00
 -7.01612630e+00 -7.05967167e+00 -7.08144435e+00 -7.07902516e+00
 -7.04757573e+00 -6.98467687e+00 -6.89274776e+00 -6.76695003e+00
 -6.60970288e+00 -6.43068303e+00 -6.22989051e+00 -6.01942123e+00
 -5.80653277e+00 -5.60090187e+00 -5.41220528e+00 -5.25011975e+00
 -5.11948365e+00 -5.02755454e+00 -4.97675161e+00 -4.96949405e+00
 -5.00336267e+00 -5.07109991e+00 -5.16786739e+00 -5.28398837e+00
 -5.41462447e+00 -5.54767976e+00 -5.67589667e+00 -5.79201765e+00
 -5.89362351e+00 -5.97587587e+00 -6.03635554e+00 -6.07748172e+00
 -6.10167359e+00 -6.10893115e+00 -6.10893115e+00 -6.10167359e+00
 -6.09683522e+00 -6.09925441e+00 -6.11618872e+00 -6.15005733e+00
 -6.20811782e+00 -6.29278937e+00 -6.39923360e+00 -6.52986970e+00
 -6.67502093e+00 -6.82984890e+00 -6.98467687e+00 -7.12982809e+00
 -7.25804501e+00 -7.35965086e+00 -7.43222647e+00 -7.47093347e+00
 -7.48302940e+00 -7.47093347e+00 -7.44432241e+00 -7.41045379e+00
 -7.37900436e+00 -7.36207005e+00 -7.36448924e+00 -7.39110029e+00
 -7.44674160e+00 -7.52899396e+00 -7.63301900e+00 -7.74913998e+00
 -7.87009933e+00 -7.98622031e+00 -8.08540698e+00 -8.16040178e+00
 -8.20394715e+00 -8.21120471e+00 -8.17975528e+00 -8.11201804e+00
 -8.01041218e+00 -7.87977608e+00 -7.72978648e+00 -7.56528176e+00
 -7.39351948e+00 -7.22175720e+00 -7.05725248e+00 -6.90242451e+00
 -6.76211166e+00 -6.63389475e+00 -6.52261214e+00 -6.42826385e+00
 -6.35084986e+00 -6.28795100e+00 -6.24198644e+00 -6.21053701e+00]","[-3.82633015 -3.44840169 -3.04962201 -2.63520391 -2.20514739 -1.76987806
 -1.33200233 -0.8941266  -0.46146368 -0.04183277  0.36476612  0.75572659
  1.13104865  1.49073228  1.8373839   2.1710035   2.4994103   2.81999789
  3.13797907  3.45596026  3.77133504  4.08410342  4.3994782   4.71224658
  5.02240855  5.33517693  5.6453389   5.95550088  6.26566285  6.57582483
  6.8833804   7.19354238  7.50109795  7.81125992  8.11881549  8.42897747
  8.73653304  9.04669502  9.35425059  9.66180616  9.96936173 10.2743109
 10.57926007 10.87899643 11.17612639 11.46283074 11.73910947 11.99974979
 12.23953888 12.45065753 12.63049935 12.77385152 12.87289484 12.93023571
 12.94326773 12.91199089 12.841618   12.73475547 12.59661611 12.42980631
 12.23693247 12.02320741 11.78863113 11.53581002 11.2673505  10.98585896
 10.69915461 10.40723746 10.12053311  9.84425438  9.58100766  9.33861217
  9.1170679   8.92158766  8.74435225  8.59057446  8.4524351   8.32732775
  8.21264601  8.10317708  7.99892095  7.89466482  7.7904087   7.68615257
  7.58189644  7.47503392  7.36556498  7.25609605  7.14662712  7.03455178
  6.92508285  6.81300752  6.70093218  6.58885684  6.47678151  6.36470617
  6.25263084  6.1405555   6.02848017  5.91640483  5.8043295   5.69225416
  5.58017883  5.46810349  5.35602815  5.24395282  5.13187748  5.01980215
  4.90772681  4.79565148  4.68357614  4.57150081  4.46203187  4.34995654
  4.2378812   4.12580587  4.01373053  3.9016552   3.78957986  3.67750453
  3.56542919  3.45335385  3.34127852  3.22920318  3.11973425  3.00765892
  2.89818998  2.78872105  2.68446492  2.5802088   2.48116548  2.38733497
  2.30132366  2.22313157  2.15536509  2.09802422  2.05371536  2.01983212
  1.9989809   1.98855528]",-0.2001272492391773,11.041245026656995,4.1336200000000005,
002,1,1,csp,1a.png,1,1,64,197,64,1,0,374,neg_feedback_onset,11,"[  0.31517772   0.31517772   0.31006742   0.29984682   0.28196077
   0.25896442   0.22574748   0.18742023   0.14142754   0.09032454
   0.03411125  -0.02210205  -0.08342564  -0.14474923  -0.20862797
  -0.27250672  -0.33638546  -0.4002642   -0.46414295  -0.52802169
  -0.59445558  -0.65833432  -0.72221307  -0.78864696  -0.8525257
  -0.91895959  -0.98283834  -1.05182738  -1.11826127  -1.18980546
  -1.26645996  -1.3456696   -1.43509984  -1.53475067  -1.64717726
  -1.77493475  -1.92568858  -2.09688361  -2.29363014  -2.51592816
  -2.76122254  -3.02951326  -3.31569002  -3.61464254  -3.92126051
  -4.22787847  -4.52938614  -4.81556291  -5.08129848  -5.32659285
  -5.54122542  -5.7251962   -5.87595004  -5.99348692  -6.07780686
  -6.12635471  -6.14424076  -6.13146501  -6.09569291  -6.03947962
  -5.96793543  -5.89128093  -5.81207129  -5.74308225  -5.68942411
  -5.65620716  -5.64854171  -5.67153806  -5.72775135  -5.81718159
  -5.93727363  -6.08802746  -6.26433279  -6.46107932  -6.6706016
  -6.88523417  -7.09986675  -7.30683388  -7.4984701   -7.66710999
  -7.80508807  -7.91495951  -7.98905885  -8.02994124  -8.04016184
  -8.02483094  -7.991614    -7.9456213   -7.89451831  -7.84852561
  -7.81275352  -7.79486747  -7.79486747  -7.81530867  -7.85874621
  -7.92518011  -8.0069449   -8.10404059  -8.21391202  -8.33144891
  -8.45154095  -8.57418813  -8.69172502  -8.80159646  -8.9012473
  -8.99067754  -9.06988718  -9.13376592  -9.18997921  -9.23597191
  -9.27940945  -9.322847    -9.36883969  -9.42249784  -9.48893173
  -9.56558622  -9.65501646  -9.7546673   -9.86198359  -9.97441018
 -10.08939191 -10.20437365 -10.31680024 -10.42411653 -10.53143281
 -10.6387491  -10.74862054 -10.86615743 -10.99902521 -11.14466874
 -11.30564318 -11.48961396 -11.68636048 -11.90099306 -12.12329108
 -12.35069941 -12.57810773 -12.79529546 -12.99715229 -13.17856792
 -13.3369872  -13.46474468 -13.56184037 -13.62316397 -13.65127061
 -13.64360516 -13.60272277 -13.52606828 -13.41364169 -13.26799816
 -13.08913768 -12.8796154  -12.63687618 -12.36603031 -12.06452264
 -11.74001863 -11.39507342 -11.02968701 -10.6489697  -10.25803179
  -9.86198359  -9.46338023  -9.06477688  -8.67128382  -8.28545622
  -7.90729406  -7.54190765  -7.18929699  -6.85457238  -6.53262351
  -6.23111585  -5.94749423  -5.68431381  -5.44412974  -5.22438686
  -5.02508518  -4.84366955  -4.67758482  -4.52683099  -4.38629775
  -4.24576452  -4.10778644  -3.95958775  -3.80116847  -3.62486314
  -3.43322691  -3.22114949  -2.99118601  -2.75100194  -2.50570757
  -2.26296834  -2.03300487  -1.82859289  -1.65739786  -1.52964038
  -1.45298588  -1.42998954  -1.46065133  -1.54497127  -1.68039421
  -1.85414439  -2.06366667  -2.29618529  -2.54403481  -2.79443948
  -3.04484416  -3.28758338  -3.51243655  -3.72451398  -3.91359506
  -4.08479009  -4.23298877  -4.36330141  -4.47061769  -4.56260308
  -4.63414728  -4.68780542  -4.72613267  -4.74401871  -4.74146356
  -4.72357752  -4.68525027  -4.63159213  -4.56260308  -4.47828314
  -4.38629775  -4.28409177  -4.18188578  -4.07712464  -3.9723635
  -3.87271266  -3.77561697  -3.68107643  -3.59164619  -3.50732625
  -3.42300631  -3.34379667  -3.26458703  -3.18537739  -3.1087229
  -3.03206841  -2.95541392  -2.87875942  -2.80210493  -2.72545044
  -2.64879595  -2.57214146  -2.49548697  -2.41883248  -2.33962283
  -2.26296834  -2.1837587   -2.10454906  -2.02278427  -1.93846433
  -1.85414439  -1.76471415  -1.67528391  -1.58585367  -1.49642343]","[-3.37105966 -3.02298663 -2.66938863 -2.31579064 -1.95943015 -1.60583216
 -1.24947167 -0.89311119 -0.53675071 -0.18039023  0.17873274  0.53509322
  0.8914537   1.24781418  1.60417467  1.96053515  2.31413315  2.67049363
  3.02409163  3.37768962  3.72576265  4.0710732   4.41085877  4.74511938
  5.06556757  5.3777283   5.67331412  5.94956256  6.20647361  6.43575981
  6.63742117  6.80593271  6.94129444  7.04074388  7.10704351  7.1429558
  7.14571829  7.12914338  7.09323108  7.04350637  6.98825668  6.93024451
  6.87499482  6.82250762  6.77554538  6.73134563  6.69267085  6.65952104
  6.62637123  6.5959839   6.56835906  6.54073421  6.51310937  6.48824701
  6.46062217  6.43575981  6.41089745  6.3832726   6.35841025  6.3307854
  6.30592304  6.2782982   6.25343584  6.22857348  6.20094864  6.17332379
  6.14846143  6.11807411  6.08768678  6.05453697  6.01586219  5.96889995
  5.91365026  5.83906319  5.74513872  5.62635189  5.47441525  5.28656631
  5.06280508  4.80036907  4.50478324  4.18157257  3.83902451  3.488189
  3.14564094  2.82243027  2.52960693  2.28098333  2.07932198  1.9329103
  1.84174832  1.80859851  1.83069838  1.90528546  2.02959726  2.19534632
  2.39700768  2.62076891  2.85834256  3.0986787   3.32520242  3.53515123
  3.71471272  3.85559942  3.96057382  4.02411096  4.05173581  4.04621084
  4.01582351  3.96609879  3.89979917  3.82521209  3.74786253  3.67051297
  3.59040092  3.51305136  3.44122676  3.37216466  3.31415248  3.26719025
  3.23404044  3.22022802  3.22851547  3.25614031  3.30586503  3.37216466
  3.4522767   3.53515123  3.61802576  3.69261284  3.75062501  3.78653731
  3.79758725  3.77548737  3.72576265  3.64288812  3.52686378  3.37768962
  3.20089062  2.99094181]",1.2473355681663633e-14,5.99597229780686,3.9136649999999995,-0.05649999999999977
002,1,1,csp,38a.png,1,1,328,279,327,1,1,730,neg_feedback_onset,12,"[-1.6672701  -1.52300178 -1.3676359  -1.20394685 -1.03470901 -0.85714801
 -0.67403822 -0.49092844 -0.30504426 -0.11638569  0.07227288  0.26093145
  0.44959001  0.63824858  0.82968154  1.01834011  1.20699868  1.39843164
  1.58709021  1.77852316  1.96718173  2.1558403   2.34727326  2.53593183
  2.72736479  2.91602335  3.10468192  3.29611488  3.48477345  3.67343202
  3.8593162   4.04520037  4.22553577  4.40032238  4.56956022  4.73324927
  4.89138954  5.04675542  5.19657252  5.34916401  5.50452989  5.66821894
  5.84577994  6.0372129   6.24251782  6.46169468  6.69196911  6.93056671
  7.16638992  7.39666435  7.61029243  7.80172539  7.96264005  8.09303642
  8.1873657   8.24562791  8.27337181  8.2761462   8.25949986  8.23175595
  8.20401205  8.17904253  8.16794497  8.16794497  8.18181692  8.20401205
  8.23453034  8.26782303  8.29556694  8.31498767  8.32331085  8.31498767
  8.29279255  8.25672547  8.20956083  8.15407301  8.09581081  8.0375486
  7.97651201  7.92102419  7.87108516  7.82669491  7.78507905  7.74901197
  7.71849367  7.68797537  7.66300586  7.63803634  7.61584122  7.59364609
  7.57422536  7.55203023  7.53260949  7.51041437  7.49099363  7.46879851
  7.44660338  7.42440826  7.39943874  7.37169483  7.34117654  7.30510946
  7.26071921  7.21078017  7.14696919  7.07206064  6.98328013  6.87785329
  6.75855449  6.62260934  6.47279224  6.30910319  6.1287678   5.93733484
  5.73202992  5.51007867  5.27148107  5.01623712  4.74157244  4.44471264
  4.13398088  3.80937716  3.47645028  3.13797461  2.80504773  2.48044401
  2.17248664  1.88395001  1.6176085   1.37346212  1.15151086  0.94898034
  0.76032177  0.57998638  0.39965098  0.21654119  0.02233385 -0.18851985
 -0.41879428 -0.67126383 -0.95147729 -1.25388588 -1.57848959 -1.92251404
 -2.28041044 -2.64385563 -3.00452642 -3.35132526 -3.67870336 -3.97278878
 -4.22525833 -4.43333763 -4.5914779  -4.69967914 -4.75516696 -4.76626452
 -4.73574622 -4.67470963 -4.58870351 -4.48882545 -4.38617299 -4.28352054
 -4.19196564 -4.11705709 -4.06156928 -4.03105098 -4.0255022  -4.04214854
 -4.07821562 -4.13370344 -4.2030632  -4.28074614 -4.36120348 -4.44166081
 -4.51379496 -4.57760595 -4.62477059 -4.65806328 -4.66916084 -4.66083767
 -4.63031937 -4.57483156 -4.49437423 -4.39172177 -4.26132541 -4.10873392
 -3.93394731 -3.73696557 -3.52333748 -3.29861183 -3.05723984 -2.81031907
 -2.55507512 -2.2942824  -2.03071528 -1.76437377 -1.49803226 -1.22891636
 -0.95980047 -0.69068457 -0.42156867 -0.15245277  0.11666313  0.38577903
  0.65489493  0.92401083  1.19312672  1.46501701  1.73413291  2.00324881
  2.2751391   2.54702939  2.82169407  3.09358436  3.36824904  3.64291372
  3.9175784   4.1866943   4.4558102   4.71382853  4.9635237   5.19934691
  5.41852377  5.61827991  5.79029213  5.93733484  6.05663364  6.14818853
  6.20645074  6.23974342  6.2480666   6.23142025  6.20090195  6.1565117
  6.10379828  6.04831047  5.99837143  5.95398118  5.92068849  5.89849337
  5.8873958   5.88462141  5.89017019  5.89849337  5.90959093  5.92068849
  5.93456045  5.95120679  5.97340192  6.00392021  6.05108486  6.11212145
  6.19812756  6.30355441  6.43395077  6.58654226  6.75300571  6.93611549
  7.12477406  7.31620702]","[-2.92623416e+00 -2.60387797e+00 -2.27628022e+00 -1.94082012e+00
 -1.60273924e+00 -1.26727914e+00 -9.37060610e-01 -6.14704422e-01
 -3.02831362e-01 -6.68299414e-03  2.76361463e-01  5.46302011e-01
  8.03138649e-01  1.05211294e+00  1.30108723e+00  1.55006152e+00
  1.80951894e+00  2.08208027e+00  2.37298708e+00  2.68486014e+00
  3.01769945e+00  3.36626346e+00  3.72531060e+00  4.08959930e+00
  4.44864643e+00  4.79721044e+00  5.12742897e+00  5.42881891e+00
  5.70138023e+00  5.93987140e+00  6.14953396e+00  6.32512635e+00
  6.47451093e+00  6.60292925e+00  6.71300209e+00  6.80997103e+00
  6.89383605e+00  6.97245951e+00  7.04584141e+00  7.11660252e+00
  7.18474286e+00  7.25288319e+00  7.31840274e+00  7.38654307e+00
  7.45206262e+00  7.51758217e+00  7.58310172e+00  7.65124205e+00
  7.71676160e+00  7.78228115e+00  7.84780071e+00  7.91332026e+00
  7.97883981e+00  8.04698014e+00  8.11249969e+00  8.17801924e+00
  8.24353879e+00  8.30905834e+00  8.37457789e+00  8.44271822e+00
  8.50823777e+00  8.57375732e+00  8.63927687e+00  8.70479642e+00
  8.77031597e+00  8.83845631e+00  8.90397586e+00  8.96949541e+00
  9.03501496e+00  9.10053451e+00  9.16867484e+00  9.23419439e+00
  9.29971394e+00  9.36523349e+00  9.43075304e+00  9.49627259e+00
  9.56441293e+00  9.62993248e+00  9.69545203e+00  9.76097158e+00
  9.82649113e+00  9.89201068e+00  9.96015101e+00  1.00256706e+01
  1.00911901e+01  1.01567097e+01  1.02222292e+01  1.02877488e+01
  1.03506475e+01  1.04135463e+01  1.04738243e+01  1.05314815e+01
  1.05812763e+01  1.06232089e+01  1.06520375e+01  1.06651414e+01
  1.06546582e+01  1.06205881e+01  1.05498270e+01  1.04476165e+01
  1.03060942e+01  1.01252603e+01  9.91297693e+00  9.66924421e+00
  9.40978679e+00  9.13722546e+00  8.86728491e+00  8.61044827e+00
  8.37719867e+00  8.17539846e+00  8.01028919e+00  7.88711244e+00
  7.80062663e+00  7.75607333e+00  7.74559021e+00  7.76393568e+00
  7.80848898e+00  7.87400853e+00  7.95263199e+00  8.04435936e+00
  8.14132829e+00  8.24615957e+00  8.35361163e+00  8.46106370e+00
  8.57113654e+00  8.68383017e+00  8.79390301e+00  8.90659664e+00
  9.01666948e+00  9.12936311e+00  9.24205674e+00  9.35212958e+00
  9.46220243e+00  9.57227527e+00  9.68234812e+00  9.78717940e+00
  9.88938990e+00  9.98373805e+00  1.00702239e+01  1.01383642e+01]",8.047258971339177,9.674092652506594,3.6043949999999993,-0.12935000000000008
002,1,1,csm,65b.png,1,1,356,185,359,1,1,589,neu_feedback_onset,13,"[ 1.01467878  0.75614252  0.52193908  0.30902687  0.12044748 -0.04379908
 -0.18371282 -0.30233534 -0.39662504 -0.46658191 -0.50612275 -0.51828916
 -0.49699794 -0.43920748 -0.34491779 -0.21412885 -0.04379908  0.16302992
  0.40027496  0.67097763  0.96297152  1.27625664  1.60474977  1.94540931
  2.28911045  2.6358532   2.97955434  3.32325549  3.66391503  3.99849136
  4.3330677   4.66156083  4.99309556  5.3276719   5.66528983  6.01507418
  6.37094174  6.74201731  7.1252593   7.5237093   7.93432571  8.36015013
  8.79509937  9.23917341  9.69237227 10.14557112 10.59572837 11.04588562
 11.48387646 11.91578409 12.33248371 12.73093371 13.1141757  13.47308485
 13.81070279 14.1179047  14.39469058 14.64106042 14.85397264 15.03038561
 15.17638256 15.29196348 15.38016996 15.44708523 15.50183409 15.55049974
 15.59612378 15.64783103 15.7117047  15.78774477 15.87899286 15.98849057
 16.1131963  16.25311004 16.40823179 16.57551996 16.75497454 16.94051233
 17.13821653 17.33592072 17.53970813 17.73741233 17.93207492 18.1145711
 18.27881767 18.41873141 18.52822912 18.60122759 18.63772683 18.63468522
 18.59210278 18.5069379  18.39135698 18.24231843 18.07198866 17.88340927
 17.68570507 17.47887607 17.27508866 17.07130126 16.87663866 16.68501767
 16.50556309 16.33827492 16.18011157 16.04019783 15.9154921  15.80903599
 15.72691271 15.66608065 15.62958141 15.617415   15.62653981 15.66303905
 15.7177879  15.78774477 15.87899286 15.98240737 16.09798828 16.22877721
 16.37173256 16.52685431 16.69414248 16.87055546 17.05001004 17.23250622
 17.40587759 17.56099935 17.68874668 17.77695317 17.8134524  17.79520278
 17.7130795  17.56404095 17.35417034 17.08955088 16.77930737 16.43560622
 16.07061386 15.69649668 15.32542111 14.96955355 14.62889401 14.30648409
 14.00536539 13.7224963  13.45179363 13.19021577 12.93776272 12.69139287
 12.45110623 12.222986   12.00399058 11.80324478 11.6237902  11.46866845
 11.33483791 11.2253402  11.13713371 11.06109364 10.99113677 10.9211799
 10.84513982 10.75693333 10.65351883 10.53489631 10.40410738 10.26419364
 10.1242799   9.98740776  9.86878524  9.76537074  9.68628906  9.63458181
  9.60720738  9.60112418  9.61329059  9.64066502  9.68020586  9.7227883
  9.77145395  9.8231612   9.88095166  9.95090853 10.03911502 10.14861272
 10.28548486 10.45277303 10.65656043 10.89076387 11.16146654 11.45954364
 11.77891196 12.11348829 12.46023104 12.81001539 13.15979974 13.50045928
 13.83503562 14.16048714 14.47681386 14.78097416 15.07905126 15.36800355
 15.65087264 15.93070012 16.20748599 16.48123027 16.75497454 17.02871882
 17.29942149 17.57012416 17.84082683 18.1115295  18.38223217 18.65293484
 18.92363751 19.19434019 19.46504286 19.73574553 20.0064482  20.27715087
 20.54785354 20.81855621 21.08621728 21.35387835 21.61849781 21.87703407
 22.12948712 22.36977377 22.59789399 22.81080621 23.0024272  23.16971537
 23.30962911 23.42216842 23.5073333  23.56512376 23.59553979 23.6046646
 23.59249819 23.56208216 23.51645811 23.44954285 23.36437796 23.25488025
 23.11192491 22.92942873 22.7013085  22.41843941 22.08386308 21.69149629
 21.24438064 20.75468255 20.22848522 19.67795507 19.11525851 18.55256194
 18.00203179 17.47279286]","[-3.31683127 -3.02185341 -2.70739587 -2.36789305 -2.01447618 -1.64436244
 -1.26590028 -0.87908969 -0.49227909 -0.10268569  0.27855928  0.65423864
  1.01878675  1.366638    1.6977924   2.01224993  2.30444498  2.57716036
  2.83317889  3.06971774  3.28955973  3.49827048  3.69585     3.88508108
  4.06596373  4.24406357  4.4193806   4.59191482  4.76166624  4.93141765
  5.10116906  5.27092047  5.44067188  5.60764048  5.77739189  5.94714331
  6.11411191  6.28386332  6.45361473  6.62058333  6.79033474  6.95730335
  7.12705476  7.29402336  7.46377477  7.63074337  7.79492916  7.96189777
  8.12886637  8.29305216  8.45723795  8.62142374  8.78560953  8.94979532
  9.11119831  9.26703567  9.41730741  9.55923072  9.68167436  9.78185552
  9.85699139  9.90151635  9.91264759  9.8876023   9.8319461   9.74567899
  9.63436659  9.50357452  9.36443402  9.2197279   9.07502178  8.93588127
  8.8050892   8.68264556  8.56855035  8.46280357  8.36540522  8.27078968
  8.18173976  8.09825546  8.01755397  7.93963528  7.87006503  7.80327759
  7.73927296  7.68083395  7.62517775  7.57230436  7.52499659  7.48047163
  7.44151229  7.41368419  7.39698733  7.39420452  7.41368419  7.45264353
  7.51943097  7.6112637   7.72814172  7.87284784  8.04259926  8.23461315
  8.4433239   8.6659487   8.89413912  9.12511236  9.35330278  9.56757915
  9.76794147  9.94882412 10.10466149 10.23545356 10.33841753 10.41633621
 10.46642679 10.49425489 10.50260332 10.49425489 10.4692096  10.43025026
 10.38294249 10.3300691  10.26884728 10.20484265 10.1352724  10.06570214
  9.99334908  9.92099602  9.84586015  9.77350709  9.69837122  9.62601816
  9.55088229  9.47574642  9.40061055  9.32825749  9.25312162  9.17520294
  9.10006707  9.01936557]",21.941440016546306,9.56820528232999,3.2877400000000003,-0.10560999999999998
002,1,1,csp,52a.png,1,1,176,179,NaN,0,1,321,neg_feedback_onset,14,"[ 1.48008146e+00  1.33610467e+00  1.19212787e+00  1.04553332e+00
  9.01556520e-01  7.54961964e-01  6.08367408e-01  4.61772852e-01
  3.12560536e-01  1.60730460e-01  6.28262383e-03 -1.56018492e-01
 -3.23555127e-01 -4.98945043e-01 -6.82188238e-01 -8.81137993e-01
 -1.08794103e+00 -1.30783286e+00 -1.54081350e+00 -1.78164741e+00
 -2.03033460e+00 -2.28425732e+00 -2.54603331e+00 -2.81042706e+00
 -3.08267409e+00 -3.36015665e+00 -3.64811024e+00 -3.94915263e+00
 -4.26851934e+00 -4.60621037e+00 -4.96222572e+00 -5.33656539e+00
 -5.72137610e+00 -6.11665785e+00 -6.50670408e+00 -6.88627927e+00
 -7.24229462e+00 -7.56951461e+00 -7.85746821e+00 -8.10091988e+00
 -8.30248740e+00 -8.46217075e+00 -8.58520547e+00 -8.67682707e+00
 -8.74488882e+00 -8.79724402e+00 -8.84174594e+00 -8.88101234e+00
 -8.91766098e+00 -8.95430962e+00 -8.98834050e+00 -9.01713586e+00
 -9.03807794e+00 -9.04593122e+00 -9.04069570e+00 -9.02237138e+00
 -8.98834050e+00 -8.94383858e+00 -8.89148338e+00 -8.82865714e+00
 -8.76321314e+00 -8.69515139e+00 -8.62447187e+00 -8.55379235e+00
 -8.48573059e+00 -8.41766883e+00 -8.35746035e+00 -8.30510516e+00
 -8.26583876e+00 -8.24751444e+00 -8.25013220e+00 -8.27892756e+00
 -8.33390051e+00 -8.41505107e+00 -8.51976147e+00 -8.63756067e+00
 -8.76583090e+00 -8.88886562e+00 -8.99881154e+00 -9.09043313e+00
 -9.15325937e+00 -9.18467249e+00 -9.18729025e+00 -9.16634817e+00
 -9.12708177e+00 -9.07996209e+00 -9.03546018e+00 -9.00404706e+00
 -8.99619378e+00 -9.01451810e+00 -9.06687330e+00 -9.14802385e+00
 -9.25535201e+00 -9.37838673e+00 -9.51451024e+00 -9.64801600e+00
 -9.77105072e+00 -9.87314335e+00 -9.94905839e+00 -9.99094255e+00
 -9.99879583e+00 -9.97000047e+00 -9.90717423e+00 -9.81031712e+00
 -9.68728240e+00 -9.53545232e+00 -9.36268017e+00 -9.17420145e+00
 -8.97263394e+00 -8.76059538e+00 -8.54855683e+00 -8.33390051e+00
 -8.12971524e+00 -7.93338325e+00 -7.75275781e+00 -7.59569221e+00
 -7.45956870e+00 -7.34962278e+00 -7.26847222e+00 -7.21349926e+00
 -7.18470391e+00 -7.17685063e+00 -7.18470391e+00 -7.20564598e+00
 -7.23182358e+00 -7.25800118e+00 -7.27894326e+00 -7.28679654e+00
 -7.28679654e+00 -7.27108998e+00 -7.24229462e+00 -7.20564598e+00
 -7.16114407e+00 -7.11402439e+00 -7.06690471e+00 -7.02763831e+00
 -6.99622519e+00 -6.97528311e+00 -6.96481207e+00 -6.96742983e+00
 -6.98051863e+00 -6.99884295e+00 -7.02240279e+00 -7.04596263e+00
 -7.06690471e+00 -7.07737575e+00 -7.07999351e+00 -7.06690471e+00
 -7.04072711e+00 -6.99622519e+00 -6.93601671e+00 -6.86010167e+00
 -6.76586232e+00 -6.66115192e+00 -6.54073496e+00 -6.41246473e+00
 -6.27634121e+00 -6.14021769e+00 -6.00409418e+00 -5.87320618e+00
 -5.75017146e+00 -5.64284331e+00 -5.54860395e+00 -5.47268891e+00
 -5.40986267e+00 -5.36536075e+00 -5.32871211e+00 -5.30253452e+00
 -5.27635692e+00 -5.25017932e+00 -5.21353068e+00 -5.16902876e+00
 -5.10882028e+00 -5.03290524e+00 -4.93604812e+00 -4.82348445e+00
 -4.69521421e+00 -4.54861966e+00 -4.39155406e+00 -4.22401742e+00
 -4.05124527e+00 -3.88109087e+00 -3.71878976e+00 -3.57219520e+00
 -3.45177824e+00 -3.36277441e+00 -3.31041921e+00 -3.30518369e+00
 -3.34706785e+00 -3.43868944e+00 -3.57481296e+00 -3.75282064e+00
 -3.95962367e+00 -4.18998654e+00 -4.43343822e+00 -4.67427213e+00
 -4.90463501e+00 -5.11405580e+00 -5.30253452e+00 -5.45960011e+00
 -5.58525259e+00 -5.68472747e+00 -5.75802474e+00 -5.80776218e+00
 -5.84441082e+00 -5.86797066e+00 -5.88629498e+00 -5.90461930e+00
 -5.92556138e+00 -5.95697450e+00 -5.99885866e+00 -6.05383162e+00
 -6.12451113e+00 -6.21351497e+00 -6.31822537e+00 -6.44126008e+00
 -6.57738360e+00 -6.72921368e+00 -6.89151479e+00 -7.06166919e+00
 -7.23967686e+00 -7.42292006e+00 -7.60616325e+00 -7.78940645e+00
 -7.97526740e+00 -8.15851060e+00 -8.34175379e+00 -8.52237923e+00
 -8.70300466e+00 -8.88101234e+00 -9.05640226e+00 -9.23179217e+00
 -9.40194657e+00 -9.57210096e+00 -9.73701984e+00 -9.89932095e+00
 -1.00563865e+01 -1.02108344e+01 -1.03652822e+01 -1.05144945e+01
 -1.06637069e+01 -1.08076836e+01 -1.09490427e+01 -1.10851662e+01
 -1.12134364e+01 -1.13312356e+01 -1.14385638e+01 -1.15301854e+01
 -1.16061004e+01 -1.16663089e+01 -1.17134286e+01 -1.17500772e+01
 -1.17762548e+01 -1.17998147e+01 -1.18259923e+01 -1.18600231e+01
 -1.19045251e+01 -1.19647335e+01 -1.20406486e+01 -1.21322702e+01]","[-0.96433593 -0.8738754  -0.75946942 -0.62377862 -0.47744539 -0.32579096
 -0.17413653 -0.03312452  0.09192387  0.19834803  0.28348736  0.34468125
  0.38459031  0.40853575  0.41917817  0.41917817  0.41917817  0.41651756
  0.41917817  0.42715998  0.4431236   0.46706904  0.49633568  0.53358414
  0.5761538   0.62138407  0.67193555  0.72514763  0.78102032  0.836893
  0.89276568  0.95129897  1.00717166  1.06570495  1.12157763  1.18011092
  1.23864421  1.29451689  1.35305018  1.41158347  1.47011676  1.52598945
  1.58452273  1.64305602  1.69892871  1.757462    1.81599529  1.87186797
  1.93040126  1.98893455  2.04480723  2.10334052  2.16187381  2.2204071
  2.27627978  2.33481307  2.39334636  2.44921905  2.50775234  2.56628562
  2.62215831  2.6806916   2.73922489  2.79775818  2.85363086  2.91216415
  2.97069744  3.02657012  3.08510341  3.1436367   3.19950938  3.25804267
  3.31657596  3.37244865  3.43098194  3.48951522  3.54804851  3.6039212
  3.66245449  3.72098778  3.77686046  3.83539375  3.89392704  3.94979972
  4.00833301  4.0668663   4.12273899  4.18127227  4.23980556  4.29833885
  4.35421154  4.41274483  4.47127811  4.5271508   4.58568409  4.64421738
  4.70009006  4.75862335  4.81715664  4.87302932  4.93156261  4.9900959
  5.04862919  5.10450188  5.16303516  5.22156845  5.27744114  5.33597443
  5.39450772  5.4503804   5.50891369  5.56744698  5.62331966  5.68185295
  5.74038624  5.79891953  5.85479221  5.9133255   5.97185879  6.02773148
  6.08626476  6.14479805  6.20067074  6.25920403  6.31773732  6.3762706
  6.43214329  6.49067658  6.54920987  6.60508255  6.66361584  6.72214913
  6.77802181  6.8365551   6.89508839  6.95096108  7.00949437  7.06802765
  7.12656094  7.18243363]",1.6919798895287386e-14,6.6058427244737565,3.8200599999999993,
002,2,1,csp,53a.png,1,1,92,68,87,1,0,NaN,neg_feedback_onset,1,"[-1.4193796  -1.27066556 -1.1195529  -0.96844024 -0.81732758 -0.66381631
 -0.51270366 -0.35919239 -0.20568112 -0.05216985  0.09894281  0.25005547
  0.40116812  0.54988217  0.6961976   0.83531719  0.96724093  1.09196884
  1.20230507  1.295851    1.37260663  1.43257197  1.47094979  1.4901387
  1.49493593  1.48294286  1.46135534  1.43257197  1.40139     1.36780941
  1.33422882  1.30304684  1.27666209  1.25267595  1.23108843  1.20950091
  1.19271061  1.17592032  1.15913002  1.14473834  1.12794805  1.11355636
  1.09916468  1.08237439  1.06798271  1.05119241  1.0320035   1.01281459
  0.99362568  0.97203816  0.94805203  0.92406589  0.90247837  0.88328946
  0.87129639  0.86889778  0.88089085  0.90967421  0.95524787  1.01761182
  1.09676607  1.18311616  1.27666209  1.36541079  1.44936227  1.52132068
  1.5788874   1.62685968  1.66523749  1.7012167   1.73959451  1.78756679
  1.8427349   1.90989608  1.9842531   2.06100874  2.13296714  2.1953311
  2.24090476  2.26489089  2.26249228  2.23850614  2.19053387  2.12337269
  2.04421844  1.96026697  1.87391688  1.79476263  1.72280422  1.66044027
  1.61246799  1.57409018  1.54530681  1.51892206  1.49493593  1.46615256
  1.42537613  1.37260663  1.30064823  1.20950091  1.1015633   0.97683539
  0.8377158   0.69140037  0.54268633  0.39876951  0.25964992  0.1325234
  0.01738995 -0.08814905 -0.18169498 -0.27044368 -0.35679377 -0.44554248
 -0.54148702 -0.64222879 -0.75256502 -0.86769847 -0.98523054 -1.10036399
 -1.2083016  -1.30424615 -1.38100178 -1.43856851 -1.46975048 -1.47454771
 -1.46015603 -1.42657544 -1.37860317 -1.32823228 -1.28026001 -1.24188219
 -1.22029467 -1.21789606 -1.23468635 -1.27066556 -1.32103644 -1.37380594
 -1.42657544 -1.46975048 -1.49373662 -1.49133801 -1.46255464 -1.40498792
 -1.32583367 -1.22749051 -1.12195151 -1.01641251 -0.9252652  -0.8557054
 -0.81492897 -0.80773313 -0.83411788 -0.89408322 -0.9780347  -1.08357369
 -1.19390992 -1.30424615 -1.40498792 -1.48893939 -1.55370196 -1.59927562
 -1.62326175 -1.63765344 -1.64005205 -1.64245066 -1.64484928 -1.65204512
 -1.66403819 -1.68562571 -1.71440907 -1.74798966 -1.78396887 -1.8247453
 -1.86312311 -1.90389955 -1.94467598 -1.98545241 -2.02622884 -2.06460666
 -2.10298447 -2.14136229 -2.17974011 -2.21571931 -2.25409713 -2.29247495
 -2.33085277 -2.36683197 -2.40520979 -2.44358761 -2.48196542 -2.51794463
 -2.55632245 -2.59470026 -2.63307808 -2.66905728 -2.7074351  -2.74581292
 -2.78179212 -2.82016994 -2.85854776 -2.89692558 -2.93530339 -2.97607983
 -3.01685626 -3.0600313  -3.10560496 -3.15837446 -3.2183398  -3.28789959
 -3.36945246 -3.47019423 -3.58772629 -3.7292445  -3.89474884 -4.08423931
 -4.29291869 -4.52078699 -4.75824973 -4.99811109 -5.23317522 -5.45144906
 -5.64813538 -5.81363972 -5.94316485 -6.03910939 -6.10387196 -6.13505394
 -6.14464839 -6.13745255 -6.11826364 -6.08948028 -6.05350108 -6.01272465
 -5.96475237 -5.90718565 -5.84002447 -5.7584716  -5.66492567 -5.55458945
 -5.42986154 -5.29314056 -5.14442652 -4.98851664 -4.8230123  -4.65510935
 -4.48240917 -4.30731037 -4.12981297 -3.95231556 -3.77241954 -3.59492214
 -3.41502611 -3.23513009 -3.05523407 -2.87773667 -2.69784065 -2.52034324
 -2.34284584 -2.16534843]","[-2.01206405 -1.85764812 -1.66891754 -1.45077441 -1.20566976 -0.94095674
 -0.66398849 -0.38702024 -0.11495408  0.14485685  0.38015731  0.59339835
  0.77477579  0.92919172  1.05419509  1.15713904  1.23557253  1.29929974
  1.34832067  1.38508636  1.41694997  1.44636252  1.46842194  1.49293241
  1.51254078  1.5346002   1.55420857  1.57381694  1.59342531  1.61303368
  1.63264206  1.65225043  1.6718588   1.69146717  1.71107554  1.73313496
  1.75274333  1.77235171  1.79196008  1.81156845  1.83117682  1.85078519
  1.87039356  1.89000194  1.90961031  1.92921868  1.94882705  1.96843542
  1.99049484  2.01010321  2.02971159  2.04931996  2.06892833  2.0885367
  2.10814507  2.12775344  2.14736182  2.16697019  2.18657856  2.20618693
  2.2257953   2.24785472  2.26746309  2.28707147  2.30667984  2.32628821
  2.34589658  2.36550495  2.38511332  2.4047217   2.42433007  2.44393844
  2.46354681  2.48315518  2.50276355  2.52482297  2.54443134  2.56403972
  2.58364809  2.60325646  2.62286483  2.6424732   2.66208158  2.68168995
  2.70129832  2.72090669  2.74051506  2.76012343  2.78218285  2.80179122
  2.8213996   2.84100797  2.86061634  2.88022471  2.89983308  2.91944146
  2.93904983  2.9586582   2.97826657  2.99787494  3.01748331  3.03954273
  3.0591511   3.07875948  3.09836785  3.11797622  3.13758459  3.15719296
  3.17680134  3.19640971  3.21601808  3.23562645  3.25523482  3.27484319
  3.29690261  3.31651098  3.33611936  3.35572773  3.3753361   3.39494447
  3.41455284  3.43416122  3.45376959  3.47337796  3.49298633  3.5125947
  3.53220307  3.55181145  3.57387086  3.59347924  3.61308761  3.63269598
  3.65230435  3.67191272  3.69152109  3.71112947  3.73073784  3.75034621
  3.76995458  3.78956295]",1.720585501580058,3.592428787470792,4.169075000000001,0.008824999999998973
002,2,1,csp,60a.png,1,1,188,270,NaN,0,1,308,neg_feedback_onset,2,"[-0.1457018  -0.13148699 -0.11490304 -0.10068823 -0.08410429 -0.06988948
 -0.05330554 -0.03909073 -0.02250678 -0.00829197  0.00829197  0.02250678
  0.03909073  0.05330554  0.06988948  0.08410429  0.10068823  0.11490304
  0.13148699  0.1457018   0.16228574  0.17650055  0.1930845   0.2072993
  0.22388325  0.23809806  0.254682    0.26889681  0.28548076  0.29969557
  0.31627951  0.33049432  0.34707826  0.36129307  0.37787702  0.39209183
  0.40867577  0.42289058  0.43947453  0.45368934  0.47027328  0.48448809
  0.50107203  0.51528684  0.53187079  0.5460856   0.56266954  0.57688435
  0.5934683   0.6076831   0.62426705  0.63848186  0.65269667  0.66928061
  0.68349542  0.70007937  0.71429418  0.73087812  0.74509293  0.76167687
  0.77589168  0.79247563  0.80669044  0.82327438  0.83748919  0.85407314
  0.86828794  0.88487189  0.8990867   0.91567064  0.92988545  0.9464694
  0.96068421  0.97726815  0.99148296  1.0080669   1.02228171  1.03886566
  1.05308047  1.06966441  1.08387922  1.10046317  1.11467798  1.13126192
  1.14547673  1.16206067  1.17627548  1.19285943  1.20707424  1.22365818
  1.23787299  1.25445694  1.26867174  1.28525569  1.2994705   1.31605444
  1.33026925  1.3468532   1.36106801  1.37765195  1.39186676  1.4084507
  1.42266551  1.43924946  1.45346427  1.47004821  1.48426302  1.50084697
  1.51506178  1.53164572  1.54586053  1.56244447  1.57665928  1.59324323
  1.60745804  1.62404198  1.63825679  1.65484073  1.67142468  1.68800862
  1.70459257  1.72354565  1.747237    1.77329748  1.80409623  1.84200239
  1.89175423  1.9509826   2.02442578  2.11208377  2.21395657  2.32767505
  2.45560833  2.59064902  2.72805885  2.86546867  2.99814023  3.12370438
  3.23979199  3.34640306  3.44353759  3.53356472  3.62122271  3.7088807
  3.80127696  3.8984115   4.00502257  4.12347931  4.2514126   4.39119156
  4.54518533  4.70865563  4.88160248  5.06402587  5.24881839  5.43124178
  5.60655777  5.76765894  5.90506876  6.01404897  6.08986129  6.12539831
  6.12539831  6.08512302  6.0093107   5.9074379   5.78187375  5.64446392
  5.49994669  5.3577986   5.22275791  5.10193203  4.99295182  4.9029247
  4.82948151  4.77025314  4.72523958  4.68970256  4.66364207  4.64468899
  4.62810505  4.61625937  4.60678283  4.59967543  4.59256802  4.58546062
  4.57835321  4.57124581  4.5641384   4.557031    4.55229273  4.54518533
  4.53807792  4.53097052  4.52623225  4.51912484  4.51201744  4.50491003
  4.50017176  4.49306436  4.48595695  4.47884955  4.47411128  4.46700387
  4.45989647  4.45278906  4.44805079  4.44094339  4.43383598  4.42672858
  4.42199031  4.41488291  4.41014464  4.40303723  4.39829896  4.39592983
  4.39592983  4.39829896  4.40540637  4.41962118  4.44331252  4.48121868
  4.53097052  4.59967543  4.68970256  4.79868276  4.92898518  5.07824068
  5.24171099  5.41465784  5.59471209  5.76765894  5.92876011  6.06853907
  6.18225755  6.26517727  6.31019083  6.32203651  6.30071429  6.25096246
  6.17751928  6.09223042  5.99746503  5.90506876  5.81741077  5.73922932
  5.67052441  5.61366517  5.56628247  5.52600718  5.49047015  5.45493313
  5.41939611  5.38385908  5.34358379  5.29857023  5.25118753  5.2014357
  5.14694559  5.09245549]","[-1.25572682 -1.16916761 -1.08508152 -0.99604919 -0.8995975  -0.79078021
 -0.66959731 -0.53110258 -0.375296   -0.20712382 -0.02411292  0.16879046
  0.36416696  0.55954346  0.74997372  0.9305115   1.09868368  1.24954402
  1.38309251  1.49932917  1.59825398  1.67986695  1.74664119  1.79857672
  1.84309288  1.88018969  1.90986713  1.93459833  1.95685642  1.97664138
  1.99395322  2.01126506  2.0285769   2.04588875  2.06320059  2.08051243
  2.09782427  2.11266299  2.12997484  2.14728668  2.16459852  2.17943724
  2.19674908  2.21406093  2.23137277  2.24621149  2.26352333  2.28083517
  2.29814701  2.31298574  2.33029758  2.34760942  2.36492126  2.37975998
  2.39707183  2.41438367  2.43169551  2.44653423  2.46384607  2.48115791
  2.49846976  2.51330848  2.53062032  2.54793216  2.565244    2.58008273
  2.59739457  2.61470641  2.63201825  2.64685697  2.66416882  2.67900754
  2.69631938  2.7111581   2.7235237   2.7358893   2.74330866  2.74578178
  2.74083554  2.72599682  2.6987925   2.65427633  2.58997521  2.503416
  2.38965246  2.25363085  2.09040491  1.90492089  1.69965191  1.47707108
  1.24954402  1.01459759  0.78212429  0.5521241   0.32954328  0.11438181
 -0.09583341 -0.30110239 -0.50637138 -0.7165866  -0.93174806 -1.15680201
 -1.39422155 -1.64153358 -1.89626497 -2.15346948 -2.41314711 -2.66293226
 -2.9003518  -3.11304014 -3.29852417 -3.44691138 -3.55820179 -3.62497604
 -3.64970724 -3.62744916 -3.56562116 -3.46422322 -3.32820161 -3.16497567
 -2.97949165 -2.77916891 -2.5714268  -2.3636847  -2.16088884 -1.97045858
 -1.79486704 -1.63906046 -1.50551197 -1.39174843 -1.29776986 -1.22357626
 -1.16422137 -1.1197052  -1.0826084  -1.05540408 -1.03561911 -1.01830727
 -1.00594167 -0.99357607]",5.454222390694056,2.1623108835840474,4.220949999999999,
002,2,1,csm,26b.png,1,1,256,271,254,1,1,497,neu_feedback_onset,3,"[ 0.22636035  0.23386401  0.24136767  0.24637011  0.25137254  0.25637498
  0.25387376  0.24887132  0.23636523  0.21385425  0.17883718  0.1288128
  0.06378109 -0.02376158 -0.12631158 -0.24887132 -0.38393717 -0.52650667
 -0.66907617 -0.8016408  -0.91669689 -1.00423957 -1.05926639 -1.07427371
 -1.05676517 -1.00674079 -0.92920299 -0.83665787 -0.74161154 -0.65156764
 -0.57903228 -0.52900789 -0.50899814 -0.51650179 -0.5565213  -0.61905179
 -0.70159203 -0.79413714 -0.88668226 -0.97672615 -1.05176273 -1.10678956
 -1.14180663 -1.14931029 -1.13180175 -1.08928102 -1.0217481  -0.93420543
 -0.82665299 -0.70659446 -0.57152862 -0.42895912 -0.28138718 -0.12631158
  0.03126524  0.19134328  0.35142132  0.51149936  0.67407861  0.83665787
  0.99923713  1.16181639  1.32439564  1.48447368  1.64705294  1.8096322
  1.97221145  2.13228949  2.29486875  2.45244557  2.60752117  2.75759433
  2.90016383  3.03272846  3.14528333  3.23782844  3.30035892  3.32787234
  3.31286502  3.25283576  3.14278211  2.98520529  2.78260652  2.54248946
  2.27485899  1.99222121  1.7070822   1.42694564  1.1643176   0.92920299
  0.724103    0.55151887  0.41145058  0.30389815  0.22385913  0.16633109
  0.1288128   0.1038006   0.09379573  0.09379573  0.10129938  0.12130914
  0.15382499  0.20384938  0.27388352  0.36892985  0.4914896   0.64406398
  0.82915421  1.03925664  1.27437126  1.52449319  1.77961756  2.03224072
  2.26485412  2.4699541   2.6375358   2.76009555  2.83012969  2.85013944
  2.82012481  2.74758945  2.6375358   2.50246995  2.35239679  2.20232363
  2.05975413  1.93219194  1.83464439  1.76961269  1.74209927  1.75460537
  1.80713098  1.90217731  2.0297395   2.18731632  2.36740411  2.56249922
  2.76259677  2.95769187  3.14278211  3.3103638   3.45793574  3.57799427
  3.67804305  3.75307963  3.81060767  3.8531284   3.88564425  3.90815523
  3.92066132  3.92316254  3.9181601   3.89815035  3.86063206  3.80810645
  3.73306987  3.64052476  3.53297232  3.41041258  3.28034917  3.15028576
  3.02272358  2.90266505  2.79511262  2.7025675   2.6250297   2.559998
  2.50997361  2.4699541   2.43993947  2.41992972  2.40992484  2.41242606
  2.42493215  2.44744313  2.48746264  2.53748702  2.59751629  2.67005165
  2.74758945  2.82762847  2.90766749  2.98520529  3.05523943  3.11776991
  3.17029552  3.21531747  3.24783332  3.27284551  3.29035405  3.30286014
  3.30786258  3.3103638   3.3103638   3.30536136  3.30286014  3.29785771
  3.29285527  3.28535161  3.28034917  3.27284551  3.26784307  3.26033942
  3.25283576  3.24783332  3.24032966  3.23532722  3.22782356  3.22282113
  3.21531747  3.21031503  3.20281137  3.19530771  3.19030527  3.18280162
  3.17779918  3.17029552  3.16529308  3.15778942  3.15028576  3.14528333
  3.13777967  3.13277723  3.12527357  3.12027113  3.11276747  3.10776504
  3.10026138  3.09275772  3.08775528  3.08025162  3.07524918  3.06774553
  3.06274309  3.05523943  3.04773577  3.04273333  3.03522967  3.03022724
  3.02272358  3.01772114  3.01021748  3.00521504  2.99771138  2.99020773
  2.98520529  2.97770163  2.97269919  2.96519553  2.95769187  2.95268944
  2.94518578  2.9351809   2.92517602  2.91266993  2.89266017  2.86764798
  2.83263091  2.78260652]","[-2.40573198 -2.24543081 -2.04869755 -1.82524743 -1.57750926 -1.31519825
 -1.04317202 -0.76385937 -0.48211792 -0.19551885  0.09108021  0.38010808
  0.66913595  0.95816382  1.24719169  1.53379076  1.82281863  2.1118465
  2.40087437  2.68747343  2.97650131  3.26067156  3.54241302  3.82172567
  4.0937519   4.3536341   4.60137228  4.82968     5.03369968  5.20614488
  5.34215799  5.4320238   5.4757423   5.47088469  5.41502216  5.31058352
  5.16728399  4.99240998  4.79324792  4.57951302  4.36092052  4.14718562
  3.93830834  3.74400389  3.56184346  3.39182707  3.2315259   3.08336875
  2.94249803  2.80648491  2.67532941  2.54660271  2.42030482  2.29400692
  2.16770903  2.04141114  1.91754205  1.79124416  1.66737507  1.54107718
  1.41720809  1.29091019  1.1646123   1.0358856   0.9047301   0.77357459
  0.63513267  0.49183314  0.34124719  0.17851721  0.00607201 -0.17851721
 -0.38010808 -0.59384298 -0.82457951 -1.06988888 -1.32977109 -1.60179732
 -1.88596758 -2.17742425 -2.47616734 -2.77491044 -3.06636711 -3.34325096
 -3.59341794 -3.80958164 -3.97959803 -4.0937519  -4.14475682 -4.13261279
 -4.0524622  -3.91644909 -3.72943105 -3.50598093 -3.25824276 -3.00321817
 -2.75062238 -2.51988585 -2.31343737 -2.14342097 -2.01469427 -1.92239966
 -1.87139474 -1.8543931  -1.86896594 -1.91025563 -1.97097577 -2.04626875
 -2.13370575 -2.23085798 -2.33043901 -2.43244884 -2.53688749 -2.64375493
 -2.75305119 -2.86234744 -2.97650131 -3.09065517 -3.20723784 -3.32139171
 -3.43068796 -3.5326978  -3.61770599 -3.68085494 -3.71971583 -3.72457344
 -3.69785658 -3.63713644 -3.54241302 -3.42340154 -3.28253082 -3.13194487
 -2.97650131 -2.82591536 -2.68504463 -2.56117554 -2.4567369  -2.3717287
 -2.30857976 -2.26243245]",3.1203336626605442,3.6889914384601297,3.99805,0.06334000000000017
002,2,1,csm,56b.png,1,1,352,88,352,1,1,522,neu_feedback_onset,4,"[ 0.43281027  0.26517249  0.09245478 -0.075183   -0.23774085 -0.38251894
 -0.50443732 -0.59333614 -0.63905554 -0.63905554 -0.58825621 -0.48411759
 -0.33425957 -0.1437621   0.07721498  0.31343185  0.54964872  0.77570573
  0.97636307  1.13892092  1.25829934  1.33449833  1.36751789  1.35989799
  1.3217985   1.26337927  1.19480018  1.12876106  1.06780186  1.02462243
  0.9966828   0.9890629   0.99922277  1.0271624   1.07034183  1.12368112
  1.18972025  1.26083931  1.34211823  1.43101705  1.52245584  1.61389463
  1.70533342  1.79169228  1.86789127  1.92885046  1.97456986  1.99996952
  2.00758942  1.99996952  1.97964979  1.94917019  1.91615063  1.88567103
  1.86281134  1.85265147  1.86027137  1.888211    1.93393039  2.00250949
  2.09140831  2.20316683  2.33016515  2.48002316  2.64766094  2.83307849
  3.0362758   3.25725287  3.49346975  3.74746638  4.01162289  4.28593925
  4.56025562  4.82695209  5.07840876  5.29938584  5.48226341  5.60926173
  5.67530086  5.67276089  5.59910187  5.45432378  5.24604654  4.98189004
  4.67709408  4.34689845  4.00654295  3.67126739  3.35631156  3.07183533
  2.82799856  2.62734121  2.47494323  2.37080461  2.31238538  2.29460562
  2.31238538  2.35556481  2.42160394  2.49526296  2.56892199  2.62988118
  2.67052064  2.68068051  2.65782081  2.59686162  2.50288286  2.38096448
  2.24380629  2.10410814  1.97456986  1.8729712   1.81455198  1.80693208
  1.86027137  1.97456986  2.14728757  2.36826464  2.62734121  2.90673751
  3.18867378  3.45791022  3.70428696  3.91002423  4.07512205  4.1919605
  4.26561952  4.29609912  4.28847922  4.25291969  4.19450046  4.11576151
  4.02686268  3.93034396  3.82620534  3.71698679  3.60776823  3.49600971
  3.38425119  3.27249267  3.16073415  3.04897563  2.93467714  2.82291862
  2.7111601   2.60194155  2.49018303  2.38350444  2.27936582  2.17776717
  2.08632838  1.99996952  1.9263105   1.86281134  1.81455198  1.78153241
  1.76375265  1.75613275  1.75613275  1.76121268  1.76121268  1.75105282
  1.72565315  1.68247372  1.6164346   1.52753578  1.42339715  1.3065587
  1.18464032  1.0652619   0.95858331  0.86714452  0.79856543  0.755386
  0.72998633  0.7249064   0.72998633  0.7401462   0.75284603  0.76046593
  0.7630059   0.75792597  0.74268617  0.72744637  0.7096666   0.69696677
  0.69442681  0.7096666   0.74522613  0.80364536  0.89254418  1.0119226
  1.16178062  1.34211823  1.55039547  1.78153241  2.03552905  2.30222552
  2.58162182  2.86609805  3.15311425  3.44013045  3.72714665  4.00908292
  4.28847922  4.56533555  4.83711196  5.10888836  5.37812479  5.64482126
  5.90389783  6.1553545   6.39919127  6.63032821  6.85130529  7.06466246
  7.27293971  7.48375692  7.69965406  7.930791    8.18478763  8.46926387
  8.78675966  9.14743489  9.54874957  9.98816376 10.46313747 10.96097088
 11.46642418 11.96425759 12.42907144 12.83546606 13.16566169 13.39425866
 13.50855715 13.49839728 13.3612391  13.10470249 12.74402727 12.29445322
 11.78645995 11.24544711 10.69427441 10.1583415   9.65796813  9.20585411
  8.80707939  8.46164397  8.1720878   7.930791    7.72759369  7.55995591
  7.41517782  7.29071947  7.18150092  7.08244223  6.98846347  6.89956465
  6.81574576  6.73192687]","[-3.40267466e+00 -2.97259504e+00 -2.52089130e+00 -2.05957684e+00
 -1.60066506e+00 -1.15616936e+00 -7.30895094e-01 -3.36855661e-01
  2.11435793e-02  3.45505308e-01  6.29021485e-01  8.78900149e-01
  1.09514130e+00  1.28255030e+00  1.44593250e+00  1.59009327e+00
  1.71503260e+00  1.82795854e+00  1.92887108e+00  2.02017290e+00
  2.09946132e+00  2.17394438e+00  2.23881673e+00  2.29648104e+00
  2.34933998e+00  2.39739357e+00  2.44304448e+00  2.48389003e+00
  2.52473559e+00  2.56317846e+00  2.59921865e+00  2.63525884e+00
  2.67129903e+00  2.70733922e+00  2.74337942e+00  2.77941961e+00
  2.81545980e+00  2.84909731e+00  2.88513751e+00  2.92117770e+00
  2.95721789e+00  2.99325808e+00  3.02929827e+00  3.06533847e+00
  3.10137866e+00  3.13741885e+00  3.17345904e+00  3.20949923e+00
  3.24553943e+00  3.28157962e+00  3.31521713e+00  3.34164660e+00
  3.36327072e+00  3.37528412e+00  3.37528412e+00  3.35846536e+00
  3.32242517e+00  3.26476086e+00  3.18787512e+00  3.08696258e+00
  2.96923129e+00  2.83708392e+00  2.69292315e+00  2.54395702e+00
  2.39499089e+00  2.24842745e+00  2.10907204e+00  1.97932735e+00
  1.85679069e+00  1.74626744e+00  1.64535490e+00  1.55165040e+00
  1.46755662e+00  1.38586552e+00  1.31138245e+00  1.23930207e+00
  1.16962437e+00  1.10234934e+00  1.03747699e+00  9.70201969e-01
  9.05329624e-01  8.40457278e-01  7.75584932e-01  7.10712587e-01
  6.45840241e-01  5.80967895e-01  5.18498229e-01  4.53625884e-01
  3.88753538e-01  3.23881192e-01  2.59008847e-01  1.94136501e-01
  1.29264155e-01  6.43918097e-02  1.92214357e-03 -6.29502021e-02
 -1.27822548e-01 -1.92694893e-01 -2.57567239e-01 -3.22439585e-01
 -3.87311930e-01 -4.52184276e-01 -5.17056622e-01 -5.79526288e-01
 -6.44398633e-01 -7.09270979e-01 -7.74143325e-01 -8.39015670e-01
 -9.03888016e-01 -9.68760362e-01 -1.03363271e+00 -1.09610237e+00
 -1.16097472e+00 -1.22584706e+00 -1.29071941e+00 -1.35559176e+00
 -1.42046410e+00 -1.48293377e+00 -1.54780611e+00 -1.61027578e+00
 -1.67274545e+00 -1.73281243e+00 -1.79047674e+00 -1.84573837e+00
 -1.89619464e+00 -1.94184555e+00 -1.98269110e+00 -2.01632861e+00
 -2.04275808e+00 -2.06197952e+00 -2.07639560e+00 -2.08600631e+00
 -2.09081167e+00 -2.09561703e+00 -2.09801971e+00 -2.10282507e+00
 -2.10763043e+00 -2.11483847e+00 -2.12204651e+00 -2.13405990e+00]",9.993307188612828,2.798220575585893,3.93706,0.21212999999999926
002,2,1,csm,25b.png,1,1,136,270,133,1,1,348,neu_feedback_onset,5,"[-0.23298231 -0.1957845  -0.15114712 -0.09907018 -0.04203353  0.01748297
  0.07947933  0.13651598  0.18611306  0.22331088  0.24314971  0.24066986
  0.21835117  0.17371379  0.10675773  0.01996283 -0.07923134 -0.18338522
 -0.28505925 -0.37681386 -0.44872963 -0.49088716 -0.50080657 -0.47352818
 -0.40409226 -0.29745852 -0.15114712  0.02988224  0.23819     0.4663366
  0.70936232  0.95734775  1.20037347  1.43347977  1.64674724  1.83521616
  1.99144698  2.11791955  2.20471445  2.25927125  2.28158993  2.27415037
  2.24439212  2.19727489  2.14023824  2.07824188  2.01872538  1.96912829
  1.93193048  1.90961179  1.90961179  1.93193048  1.97904771  2.05096349
  2.14519795  2.2617511   2.39566323  2.53949478  2.68828604  2.83211758
  2.96354986  3.07266345  3.15201879  3.19417631  3.19913602  3.16441806
  3.09002243  2.98586855  2.85691613  2.71556443  2.57421274  2.44526032
  2.34110644  2.27167052  2.23943241  2.25431154  2.31382804  2.41302221
  2.5494142   2.70812487  2.88171467  3.05778432  3.22393456  3.37272582
