sub,run,cat_cond,trial_type,picture,old,response_old,target_pos,response_pos,dot_resp_loc,cat_corr,TN_corr,TN_rt,feedback_type,trial,SP_timeseries,FB_timeseries,SP_peak_response,FB_peak_response,preStim_bl,anticipation
021,1,1,csp,15a.png,1,1,56,332,55,1,1,406,pos_feedback_onset,1,"[-4.93542391e-01 -3.64329099e-01 -2.49084812e-01 -1.49555655e-01
 -6.92338787e-02 -8.11948388e-03  3.72797808e-02  6.52177899e-02
  8.09329200e-02  8.61712967e-02  8.79174222e-02  8.61712967e-02
  8.61712967e-02  8.61712967e-02  9.14096734e-02  9.83941756e-02
  1.10617055e-01  1.22839934e-01  1.38555064e-01  1.56016319e-01
  1.73477575e-01  1.92684956e-01  2.10146212e-01  2.27607467e-01
  2.43322598e-01  2.57291602e-01  2.71260607e-01  2.81737360e-01
  2.92214113e-01  3.00944741e-01  3.07929243e-01  3.14913746e-01
  3.20152122e-01  3.27136625e-01  3.34121127e-01  3.42851755e-01
  3.53328508e-01  3.63805262e-01  3.77774266e-01  3.91743271e-01
  4.07458401e-01  4.21427405e-01  4.35396410e-01  4.45873163e-01
  4.54603791e-01  4.61588293e-01  4.65080544e-01  4.66826670e-01
  4.68572796e-01  4.70318921e-01  4.73811172e-01  4.79049549e-01
  4.87780177e-01  5.01749181e-01  5.19210437e-01  5.40163944e-01
  5.64609702e-01  5.92547711e-01  6.23977971e-01  6.55408231e-01
  6.90330742e-01  7.26999379e-01  7.67160267e-01  8.10813406e-01
  8.59704922e-01  9.12088689e-01  9.71456958e-01  1.03431748e+00
  1.10241638e+00  1.17226140e+00  1.24210642e+00  1.31020532e+00
  1.37306584e+00  1.42544961e+00  1.46386437e+00  1.48656400e+00
  1.49005625e+00  1.47259500e+00  1.43418023e+00  1.37481196e+00
  1.29972856e+00  1.21242229e+00  1.11463925e+00  1.01511010e+00
  9.15580940e-01  8.21290160e-01  7.37476133e-01  6.64138859e-01
  6.04770590e-01  5.57625199e-01  5.22702688e-01  4.94764679e-01
  4.73811172e-01  4.54603791e-01  4.35396410e-01  4.14442903e-01
  3.86504894e-01  3.55074634e-01  3.16659871e-01  2.74752858e-01
  2.29353593e-01  1.82208203e-01  1.36808938e-01  9.66480501e-02
  6.17255387e-02  3.72797808e-02  2.15646507e-02  1.98185252e-02
  2.85491530e-02  5.12487854e-02  8.26790455e-02  1.26332185e-01
  1.75223701e-01  2.29353593e-01  2.85229611e-01  3.37613378e-01
  3.81266517e-01  4.12696777e-01  4.28411908e-01  4.24919656e-01
  3.98727773e-01  3.48090132e-01  2.73006732e-01  1.76969826e-01
  5.82332876e-02 -7.79645065e-02 -2.29877431e-01 -3.92267108e-01
 -5.63387414e-01 -7.43238347e-01 -9.24835406e-01 -1.10992472e+00
 -1.29676015e+00 -1.48359559e+00 -1.67043102e+00 -1.85377421e+00
 -2.03362514e+00 -2.20823770e+00 -2.37586575e+00 -2.53650930e+00
 -2.68492998e+00 -2.81938164e+00 -2.93462593e+00 -3.02891671e+00
 -3.09526948e+00 -3.12844587e+00 -3.12320749e+00 -3.07606210e+00
 -2.98351745e+00 -2.84208128e+00 -2.65699197e+00 -2.43348789e+00
 -2.18029969e+00 -1.90965022e+00 -1.63900076e+00 -1.38232030e+00
 -1.15881623e+00 -9.80711424e-01 -8.58482634e-01 -7.95622114e-01
 -7.93875988e-01 -8.44513630e-01 -9.33566034e-01 -1.04531807e+00
 -1.15707011e+00 -1.24961476e+00 -1.30374465e+00 -1.30199853e+00
 -1.23389963e+00 -1.09770184e+00 -8.91659020e-01 -6.26247934e-01
 -3.10199207e-01  4.07720320e-02  4.14442903e-01  7.95098276e-01
  1.17400752e+00  1.54244002e+00  1.89864963e+00  2.24089024e+00
  2.57265410e+00  2.89394121e+00  3.21173606e+00  3.52603866e+00
  3.83859514e+00  4.15289774e+00  4.46196196e+00  4.76753394e+00
  5.06437528e+00  5.34550150e+00  5.60916646e+00  5.85013179e+00
  6.06315911e+00  6.24824842e+00  6.40365359e+00  6.53112076e+00
  6.63239604e+00  6.70922557e+00  6.76684771e+00  6.81050085e+00
  6.84542336e+00  6.87161524e+00  6.89780713e+00  6.92225289e+00
  6.94669864e+00  6.97463665e+00  7.00606691e+00  7.03924330e+00
  7.07416581e+00  7.11258057e+00  7.15099534e+00  7.19115622e+00
  7.23131711e+00  7.27322412e+00  7.31338501e+00  7.35529203e+00
  7.39719904e+00  7.43910605e+00  7.47926694e+00  7.52117396e+00
  7.56308097e+00  7.60498798e+00  7.64514887e+00  7.68705588e+00
  7.72721677e+00  7.76737766e+00  7.80753855e+00  7.84595331e+00
  7.88611420e+00  7.92452896e+00  7.96294372e+00  8.00135849e+00
  8.03977325e+00  8.07993414e+00  8.12009502e+00  8.16200204e+00
  8.20740130e+00  8.25454669e+00  8.30693046e+00  8.36455260e+00
  8.42741312e+00  8.49551202e+00  8.57234155e+00  8.65440945e+00
  8.74171573e+00  8.83600651e+00  8.93378954e+00  9.03331869e+00
  9.13284785e+00  9.22888476e+00  9.31968329e+00  9.39825894e+00
  9.46461171e+00  9.51001097e+00  9.53271061e+00  9.52921836e+00
  9.49604197e+00  9.43143532e+00  9.33365229e+00  9.20269287e+00]","[-1.74236984 -1.48109766 -1.22333248 -0.97608833 -0.74287222 -0.52894466
 -0.33605916 -0.16596921 -0.01867482  0.10757751  0.2180483   0.31624455
  0.40742679  0.50036254  0.6003123   0.7142901   0.84229593  0.99309733
  1.16318728  1.35256577  1.55947931  1.77866739  2.00486948  2.23107158
  2.45376666  2.66243371  2.85531921  3.02716266  3.17445705  3.29720237
  3.39189162  3.46378531  3.50937643  3.53392549  3.53918601  3.52866498
  3.50411591  3.46904582  3.42520821  3.37435657  3.31999793  3.26213228
  3.20251312  3.14114046  3.0780143   3.01664164  2.95351547  2.8903893
  2.82550963  2.76238347  2.6975038   2.63262413  2.56423745  2.49585077
  2.42220358  2.34329587  2.25912765  2.16794541  2.06624214  1.95577135
  1.83477954  1.7050202   1.57000034  1.43322698  1.30346764  1.18773634
  1.09304709  1.02992093  1.00186485  1.01589289  1.07200504  1.17020129
  1.30697465  1.47355759  1.65942908  1.85406809  2.04520009  2.22230405
  2.37485895  2.49760427  2.58703301  2.63963815  2.65717319  2.64489866
  2.60807506  2.55020941  2.48182273  2.40992904  2.33978886  2.2801697
  2.23457858  2.20827602  2.2030155   2.22055055  2.26088115  2.31874681
  2.3941475   2.48006923  2.57125147  2.66418721  2.75186244  2.83252365
  2.90266384  2.96052949  3.00612061  3.04645121  3.0797678   3.11483789
  3.1551685   3.20602013  3.2708998   3.35156101  3.44975727  3.56198157
  3.6882339   3.81974674  3.95301309  4.08101893  4.19324322  4.28617896
  4.35631915  4.39840326  4.41067779  4.39840326  4.35807265  4.29669999
  4.21779229  4.12310304  4.01789276  3.90216146  3.77941614  3.6496568
  3.51288344  3.37084956  3.22706219  3.08152131  2.93598042  2.79394655
  2.65717319  2.52566035]",8.91115706406179,3.582654461720922,5.726965,0.06936000000000053
021,1,1,csm,9b.png,1,1,108,128,108,1,1,463,neu_feedback_onset,2,"[ -0.42706633  -0.31325096  -0.19253768  -0.06837545   0.05061335
   0.16270425   0.25927488   0.33342732   0.38171263   0.40068186
   0.38861053   0.34377417   0.26789725   0.16787768   0.0471644
  -0.08734468  -0.22875166  -0.36843417  -0.4994943   -0.6184831
  -0.71850267  -0.80127749  -0.86163413  -0.90302154  -0.92888867
  -0.93923552  -0.93923552  -0.9340621   -0.92543972  -0.91854182
  -0.91509287  -0.91681734  -0.9271642   -0.94440895  -0.96682713
  -0.99441874  -1.02373482  -1.0530509   -1.07719355  -1.09788726
  -1.10995859  -1.11340754  -1.10995859  -1.09788726  -1.08064251
  -1.0599488   -1.0392551   -1.02028587  -1.00649006  -1.00131664
  -1.00821454  -1.02890824  -1.0668467   -1.12202991  -1.19618236
  -1.28930403  -1.40139493  -1.52900611  -1.67213756  -1.82906483
  -1.99461446  -2.16878648  -2.34813192  -2.52920184  -2.71544518
  -2.89996404  -3.08620739  -3.27245073  -3.45869407  -3.63976399
  -3.81738495  -3.98810802  -4.1502087   -4.30023806  -4.4381961
  -4.56235832  -4.67272475  -4.77101985  -4.85724362  -4.93484501
  -5.00382402  -5.06762961  -5.12626178  -5.18316947  -5.2366282
  -5.29181141  -5.34527015  -5.40217784  -5.46081     -5.52461559
  -5.59359461  -5.66947153  -5.75397082  -5.85226592  -5.96435682
  -6.091968    -6.23682393  -6.40064909  -6.58516796  -6.79038053
  -7.01628681  -7.26116231  -7.52500705  -7.80609654  -8.10270631
  -8.41483635  -8.7407622   -9.07531043  -9.41848103  -9.76682506
 -10.11689356 -10.46523759 -10.80495925 -11.13433405 -11.44818857
 -11.74652281 -12.02243887 -12.27938571 -12.51391436 -12.72774931
 -12.9174416  -13.08299124 -13.22094927 -13.32786675 -13.39339681
 -13.41236604 -13.37615206 -13.27440801 -13.10196047 -12.85363601
 -12.52771016 -12.12935635 -11.66202352 -11.13605852 -10.57043059
  -9.97548658  -9.37364467  -8.77697618  -8.20617483  -7.67331193
  -7.18873435  -6.76278893  -6.39720014  -6.09541695  -5.85571487
  -5.67464495  -5.54703377  -5.46253448  -5.41769812  -5.40045336
  -5.40735127  -5.42976945  -5.46081     -5.49874846  -5.53496245
  -5.57117643  -5.60049251  -5.61946174  -5.62808412  -5.62118621
  -5.59531908  -5.55048272  -5.48667713  -5.39872889  -5.29181141
  -5.16420024  -5.02106878  -4.86241704  -4.69514293  -4.51924644
  -4.339901    -4.15883108  -3.98121012  -3.80531363  -3.63631504
  -3.47421435  -3.31901157  -3.17243116  -3.03274865  -2.90168852
  -2.77407734  -2.65163959  -2.53092631  -2.41193751  -2.29122423
  -2.16878648  -2.04462425  -1.91873755  -1.79112637  -1.66696414
  -1.54280191  -1.42553758  -1.31517116  -1.21342711  -1.12375439
  -1.04787747  -0.98579636  -0.93923552  -0.90647049  -0.88750126
  -0.88232783  -0.88750126  -0.90129706  -0.92371524  -0.94958238
  -0.97889846  -1.00821454  -1.0392551   -1.06857118  -1.09788726
  -1.12547887  -1.151346    -1.1789376   -1.20652921  -1.23756977
  -1.27378375  -1.31689563  -1.3686299   -1.42898653  -1.5014145
  -1.58418932  -1.67558652  -1.77905504  -1.88942146  -2.00841027
  -2.13257249  -2.26018367  -2.3912438   -2.52575288  -2.66026197
  -2.79477105  -2.9310046   -3.06551368  -3.20002276  -3.33280737
  -3.4638675   -3.59147868  -3.71219195  -3.82600733  -3.92947585
  -4.0174241   -4.08812759  -4.13468843  -4.15365766  -4.14158633
  -4.09330102  -4.00535277  -3.87774159  -3.71046748  -3.50697938
  -3.2741752   -3.02067732  -2.76028154  -2.50850813  -2.2791529
  -2.09118509  -1.96012496  -1.89631937  -1.90839069  -2.00323684]","[-5.48313249e-01 -4.85371420e-01 -4.22429591e-01 -3.63084437e-01
 -3.03739284e-01 -2.47990807e-01 -1.94040668e-01 -1.41888866e-01
 -8.97370650e-02 -3.75852637e-02  1.63648756e-02  7.03150149e-02
  1.26063492e-01  1.81811969e-01  2.39358785e-01  3.00502276e-01
  3.65242443e-01  4.33579286e-01  5.09109481e-01  5.91833028e-01
  6.81749927e-01  7.82456853e-01  8.90357132e-01  1.00545076e+00
  1.12414107e+00  1.24642805e+00  1.36511836e+00  1.47841365e+00
  1.58451559e+00  1.67982750e+00  1.76075271e+00  1.82729122e+00
  1.88124136e+00  1.92080479e+00  1.94957820e+00  1.96935992e+00
  1.98194828e+00  1.98734330e+00  1.99093997e+00  1.99273831e+00
  1.99273831e+00  1.99273831e+00  1.99093997e+00  1.99093997e+00
  1.99093997e+00  1.99093997e+00  1.99273831e+00  1.99273831e+00
  1.99273831e+00  1.99453665e+00  1.99453665e+00  1.99633499e+00
  1.99633499e+00  1.99813333e+00  1.99993166e+00  2.00352834e+00
  2.00712502e+00  2.01431837e+00  2.02510839e+00  2.03949510e+00
  2.06107515e+00  2.08984856e+00  2.13121034e+00  2.18695881e+00
  2.25709399e+00  2.34341422e+00  2.44771782e+00  2.56820646e+00
  2.70128347e+00  2.84335217e+00  2.98362254e+00  3.11669955e+00
  3.22819650e+00  3.30732337e+00  3.34329013e+00  3.32530675e+00
  3.24617988e+00  3.10051450e+00  2.89010896e+00  2.62035826e+00
  2.29665743e+00  1.93159482e+00  1.53596047e+00  1.12414107e+00
  7.08724996e-01  2.98703938e-01 -9.69304169e-02 -4.70984716e-01
 -8.21660621e-01 -1.14536146e+00 -1.44568390e+00 -1.72262795e+00
 -1.97799194e+00 -2.21717089e+00 -2.44016480e+00 -2.65236868e+00
 -2.85378253e+00 -3.04440636e+00 -3.22244182e+00 -3.38788891e+00
 -3.53355429e+00 -3.65404293e+00 -3.74395983e+00 -3.79431330e+00
 -3.79970831e+00 -3.75115318e+00 -3.64325291e+00 -3.47780581e+00
 -3.25301356e+00 -2.97427118e+00 -2.65236868e+00 -2.29449942e+00
 -1.91505011e+00 -1.53020578e+00 -1.15075647e+00 -7.89290538e-01
 -4.58396350e-01 -1.65267260e-01  8.11050427e-02  2.80720558e-01
  4.28184272e-01  5.25294523e-01  5.75647986e-01  5.82841338e-01
  5.54067930e-01  4.94722777e-01  4.11999230e-01  3.14888980e-01
  2.08787039e-01  1.02685098e-01 -1.61850418e-03 -9.87287549e-02
 -1.88645654e-01 -2.69570863e-01 -3.39706044e-01 -4.04446211e-01
 -4.63791364e-01 -5.15943165e-01 -5.64498291e-01 -6.09456740e-01]",-0.2741826677914002,1.6219659790421666,5.798865000000001,
021,1,1,csm,17b.png,1,1,28,22,28,1,1,590,neu_feedback_onset,3,"[-0.51204572 -0.38511409 -0.27228598 -0.17356138 -0.09070323 -0.02194859
  0.03446546  0.08030189  0.11556067  0.1437677   0.16139709  0.17197473
  0.17197473  0.16492297  0.14729358  0.12084949  0.08735364  0.05209486
  0.01683607 -0.0131339  -0.03076329 -0.03076329 -0.00960802  0.0362284
  0.10674598  0.20018176  0.31124694  0.43288975  0.5562955   0.67088656
  0.76784822  0.83660285  0.87186164  0.87186164  0.83307697  0.7625594
  0.6638348   0.54395493  0.40997154  0.27069933  0.12966419 -0.00784508
 -0.14006553 -0.26523422 -0.38863997 -0.50675691 -0.62487384 -0.74475371
 -0.86463359 -0.98451346 -1.10791921 -1.22956202 -1.35296778 -1.47461059
 -1.59449046 -1.7126074  -1.83072433 -1.94707832 -2.06166938 -2.1744975
 -2.28908855 -2.40191667 -2.51474478 -2.62580996 -2.73863808 -2.84970325
 -2.95900549 -3.06830773 -3.17408409 -3.27633457 -3.37329623 -3.4614432
 -3.53901252 -3.60247834 -3.6500777  -3.67475885 -3.67828473 -3.65536652
 -3.6095301  -3.53901252 -3.45086556 -3.35037802 -3.2463646  -3.14764
 -3.06654479 -3.01189367 -2.99426428 -3.02247131 -3.0982777  -3.22344639
 -3.39797738 -3.61481892 -3.8651563  -4.14017483 -4.42929688 -4.71665599
 -4.9952004  -5.2508266  -5.47648283 -5.66511734 -5.81496718 -5.92250648
 -5.98949817 -6.02299402 -6.0265199  -6.0088905  -5.9771576  -5.94189881
 -5.90664002 -5.87843299 -5.8608036  -5.85551478 -5.8608036  -5.87490712
 -5.89429945 -5.91721766 -5.93837293 -5.95423938 -5.96129114 -5.95776526
 -5.94013587 -5.90840296 -5.85904066 -5.79557485 -5.71800552 -5.62985855
 -5.53289689 -5.43240935 -5.33368475 -5.24024896 -5.15915375 -5.093925
 -5.0445627  -5.01459273 -5.00401509 -5.00754097 -5.02869624 -5.06042915
 -5.10097676 -5.14857612 -5.2014643  -5.25611542 -5.31252947 -5.37070647
 -5.42535759 -5.47824577 -5.52760807 -5.57344449 -5.61222916 -5.645725
 -5.67216909 -5.69156143 -5.70213906 -5.70566494 -5.703902   -5.69332437
 -5.67922085 -5.65806558 -5.63514737 -5.60870328 -5.58049625 -5.55052628
 -5.51879337 -5.48882341 -5.45532756 -5.42359465 -5.39186174 -5.3583659
 -5.32663299 -5.29313714 -5.26140423 -5.22790839 -5.19617548 -5.16267963
 -5.12918379 -5.09745088 -5.06395503 -5.03222212 -4.99872628 -4.96699337
 -4.93349752 -4.90176461 -4.86826877 -4.83653586 -4.80304001 -4.7713071
 -4.73781126 -4.70607835 -4.6725825  -4.6408496  -4.60735375 -4.57562084
 -4.54212499 -4.51039209 -4.47689624 -4.44516333 -4.41166748 -4.37993458
 -4.34643873 -4.31294288 -4.28120998 -4.24771413 -4.21598122 -4.18248537
 -4.15075247 -4.11725662 -4.08552371 -4.05202787 -4.02029496 -3.98679911
 -3.9550662  -3.92157036 -3.88983745 -3.8563416  -3.82460869 -3.79111285
 -3.75937994 -3.72588409 -3.69415118 -3.66065534 -3.62892243 -3.59542658
 -3.56193074 -3.53019783 -3.49670198 -3.46496907 -3.43147323 -3.39974032
 -3.36624447 -3.33451156 -3.30101572 -3.26928281 -3.23578696 -3.20405406
 -3.17055821 -3.1388253  -3.10532945 -3.07359655 -3.0401007  -3.00836779
 -2.97487194 -2.94313904 -2.90964319 -2.87791028 -2.84441444 -2.81091859
 -2.77918568 -2.74568983 -2.71395693 -2.68046108 -2.64872817 -2.61523232
 -2.58349942 -2.55000357 -2.51827066 -2.48477482 -2.45304191 -2.41954606
 -2.38781315 -2.35431731]","[-1.98607557 -1.8157175  -1.61166223 -1.37578182 -1.11369248 -0.83101041
 -0.53522387 -0.23943733  0.04324474  0.30533408  0.53559828  0.72654909
  0.87257029  0.97366189  1.03356803  1.05603283  1.0466725   1.01671943
  0.97366189  0.92498816  0.88193062  0.85197756  0.83887309  0.84823342
  0.88567476  0.95119709  1.04854456  1.1758451   1.33122663  1.5128171
  1.71687238  1.94152038  2.17927285  2.42638566  2.67537053  2.92248333
  3.16210787  3.39237208  3.60953181  3.80984295  3.99704962  4.16927976
  4.32840543  4.47442663  4.60921544  4.73277184  4.84509584  4.94431538
  5.02855838  5.09969691  5.15585891  5.19704438  5.22512538  5.24010192
  5.24384605  5.23822985  5.22512538  5.20827678  5.18581198  5.16147511
  5.13526618  5.10905725  5.08097625  5.05289524  5.02294218  4.99486118
  4.96678018  4.93682711  4.90874611  4.88066511  4.85071204  4.82263104
  4.79455004  4.76459697  4.73651597  4.70843497  4.6784819   4.6504009
  4.6223199   4.59236684  4.56428583  4.53620483  4.50625177  4.47817077
  4.45008977  4.42200877  4.39392776  4.36771883  4.34338196  4.32091716
  4.30032443  4.2853479   4.27785963  4.27785963  4.28909203  4.30968476
  4.34525403  4.3920557   4.4538339   4.52497243  4.60359924  4.68784224
  4.77021317  4.84696791  4.91249024  4.96303604  4.99486118  5.00609358
  4.99860531  4.96865224  4.92559471  4.86756064  4.80578244  4.74213217
  4.68597017  4.64104057  4.61295957  4.60359924  4.61295957  4.64104057
  4.68222604  4.73089977  4.78144557  4.82450311  4.85445617  4.86194444
  4.84696791  4.80203831  4.7290277   4.62419197  4.49501937  4.33963783
  4.16740769  3.98394516  3.79112229  3.59829941  3.40734861  3.22763021
  3.0591442   2.9075068 ]",0.07721674192948545,4.680073160366872,5.672345,-0.2021000000000015
021,1,1,csp,13a.png,1,1,352,345,352,1,1,337,pos_feedback_onset,4,"[ 5.58186583e-01  5.19564118e-01  4.75424157e-01  4.25766702e-01
  3.72430916e-01  3.15416801e-01  2.54724355e-01  1.90353579e-01
  1.24143639e-01  5.42553681e-02 -1.56329027e-02 -8.55211734e-02
 -1.59087774e-01 -2.30815210e-01 -3.02542646e-01 -3.72430916e-01
 -4.40480022e-01 -5.04850798e-01 -5.63704078e-01 -6.15200699e-01
 -6.57501494e-01 -6.90606465e-01 -7.10837280e-01 -7.18193940e-01
 -7.10837280e-01 -6.92445630e-01 -6.63018989e-01 -6.24396524e-01
 -5.78417399e-01 -5.26920778e-01 -4.71745827e-01 -4.14731712e-01
 -3.57717596e-01 -3.00703481e-01 -2.41850200e-01 -1.86675249e-01
 -1.31500299e-01 -8.00036783e-02 -3.03462228e-02  1.19545726e-02
  5.05770380e-02  8.00036783e-02  1.00234494e-01  1.14947814e-01
  1.20465309e-01  1.20465309e-01  1.16786979e-01  1.13108649e-01
  1.11269484e-01  1.13108649e-01  1.22304474e-01  1.37017794e-01
  1.57248609e-01  1.82996919e-01  2.10584395e-01  2.40011035e-01
  2.65759345e-01  2.87829325e-01  3.02542646e-01  3.08060141e-01
  3.04381811e-01  2.89668491e-01  2.67598510e-01  2.36332705e-01
  1.99549405e-01  1.55409444e-01  1.07591154e-01  5.60945331e-02
  2.75874753e-03 -5.24162030e-02 -1.09430319e-01 -1.66444434e-01
 -2.23458550e-01 -2.80472665e-01 -3.37486781e-01 -3.94500897e-01
 -4.53354177e-01 -5.10368293e-01 -5.67382408e-01 -6.24396524e-01
 -6.79571475e-01 -7.34746425e-01 -7.88082211e-01 -8.37739666e-01
 -8.81879627e-01 -9.18662927e-01 -9.46250402e-01 -9.59124557e-01
 -9.55446227e-01 -9.31537082e-01 -8.81879627e-01 -8.06473861e-01
 -7.03480620e-01 -5.72899903e-01 -4.20249207e-01 -2.47367695e-01
 -6.52903582e-02  1.18626144e-01  2.95185986e-01  4.55193342e-01
  5.87613224e-01  6.88767300e-01  7.53138075e-01  7.77047221e-01
  7.60494735e-01  7.08998115e-01  6.24396524e-01  5.14046623e-01
  3.83465906e-01  2.41850200e-01  9.47169985e-02 -5.24162030e-02
 -1.90353579e-01 -3.17255966e-01 -4.31284197e-01 -5.28759943e-01
 -6.11522369e-01 -6.79571475e-01 -7.36585590e-01 -7.84403881e-01
 -8.26704676e-01 -8.65327141e-01 -9.03949607e-01 -9.40732907e-01
 -9.75677043e-01 -1.01062118e+00 -1.04004782e+00 -1.06211780e+00
 -1.07315279e+00 -1.07131362e+00 -1.05292197e+00 -1.01797784e+00
 -9.64642053e-01 -8.96592947e-01 -8.13830521e-01 -7.21872270e-01
 -6.24396524e-01 -5.28759943e-01 -4.34962527e-01 -3.50360936e-01
 -2.74955170e-01 -2.10584395e-01 -1.57248609e-01 -1.11269484e-01
 -7.44861833e-02 -4.13812129e-02 -1.01154076e-02  1.93112327e-02
  5.05770380e-02  8.18428433e-02  1.13108649e-01  1.44374454e-01
  1.75640259e-01  2.08745230e-01  2.41850200e-01  2.80472665e-01
  3.24612626e-01  3.77948411e-01  4.44158352e-01  5.26920778e-01
  6.29914019e-01  7.56816405e-01  9.11306267e-01  1.09154444e+00
  1.29937009e+00  1.53294404e+00  1.78858798e+00  2.06262357e+00
  2.34953331e+00  2.64563888e+00  2.94726194e+00  3.25440250e+00
  3.56338222e+00  3.87604028e+00  4.19053750e+00  4.50871304e+00
  4.83056692e+00  5.15425997e+00  5.48163134e+00  5.80532438e+00
  6.12349993e+00  6.42880132e+00  6.71755023e+00  6.98055083e+00
  7.21412479e+00  7.41643294e+00  7.58379696e+00  7.71621684e+00
  7.81737091e+00  7.88909835e+00  7.93875580e+00  7.96634328e+00
  7.97921744e+00  7.98289577e+00  7.97737827e+00  7.96634328e+00
  7.95162996e+00  7.93507747e+00  7.91668582e+00  7.89829417e+00
  7.87806336e+00  7.85967171e+00  7.83944089e+00  7.82104924e+00
  7.80081843e+00  7.78242678e+00  7.76219596e+00  7.74380431e+00
  7.72357350e+00  7.70334268e+00  7.68495103e+00  7.66472022e+00
  7.64632857e+00  7.62609775e+00  7.60586694e+00  7.58747529e+00
  7.56724447e+00  7.54885282e+00  7.52862201e+00  7.51023036e+00
  7.48999954e+00  7.46976872e+00  7.45137707e+00  7.43114626e+00
  7.41275461e+00  7.39252379e+00  7.37229298e+00  7.35390133e+00
  7.33367051e+00  7.31527886e+00  7.29504805e+00  7.27665640e+00
  7.25642558e+00  7.23619477e+00  7.21780312e+00  7.19757230e+00
  7.17918065e+00  7.15894984e+00  7.13871902e+00  7.12032737e+00
  7.10009656e+00  7.08170491e+00  7.06147409e+00  7.04124328e+00
  7.02285163e+00  7.00262081e+00  6.98422916e+00  6.96399834e+00
  6.94560669e+00  6.92537588e+00  6.90514506e+00  6.88675341e+00
  6.86652260e+00  6.84813095e+00  6.82790013e+00  6.80766932e+00
  6.78927767e+00  6.76904685e+00  6.75065520e+00  6.73042439e+00]","[-0.43024962 -0.42666346 -0.41949114 -0.40873266 -0.39080186 -0.36569873
 -0.33342329 -0.29218244 -0.24376927 -0.1863907  -0.12004673 -0.04473735
  0.03774434  0.13098452  0.23677626  0.35332648  0.48601442  0.63304701
  0.79980348  0.98449075  1.18710883  1.41124387  1.65151663  1.90434096
  2.16971685  2.43688581  2.70405478  2.96405143  3.20791035  3.43025231
  3.62749115  3.7960407   3.9323148   4.03631346  4.10803668  4.15465676
  4.17438065  4.17258757  4.15465676  4.1241744   4.08472663  4.03631346
  3.98431413  3.93052172  3.87314315  3.8139715   3.75479985  3.6956282
  3.63645655  3.5772849   3.51632017  3.45714852  3.39797687  3.33880522
  3.27963357  3.22046192  3.16308335  3.10749786  3.05370545  3.00170612
  2.95508603  2.9120521   2.87619049  2.84750121  2.82598424  2.81343268
  2.80805344  2.80984652  2.81881192  2.83136349  2.84750121  2.86363893
  2.87977665  2.8941213   2.90667286  2.91563826  2.92281058  2.9299829
  2.93536214  2.94074138  2.94791371  2.95687911  2.97122375  2.98736147
  3.0124646   3.04294696  3.08239473  3.13260098  3.19356571  3.267082
  3.35135678  3.44818312  3.55218178  3.66335276  3.77452374  3.88569472
  3.98790029  4.07755431  4.15286368  4.20844917  4.24431078  4.26224158
  4.2604485   4.24431078  4.2156215   4.17975989  4.14031212  4.09907127
  4.06141659  4.02555498  3.99507262  3.96996949  3.95024561  3.93410788
  3.92514248  3.9233494   3.92693556  3.93769404  3.95741793  3.98610721
  4.02196882  4.06858891  4.12238132  4.18334605  4.24610386  4.30886167
  4.36803332  4.41823957  4.45589426  4.47741122  4.4792043   4.4612735
  4.42361881  4.36444716  4.28913779  4.20127685  4.10086435  3.99507262
  3.8874878   3.78169606]",7.153938112097097,4.138698349200597,5.437250000000001,-0.0418099999999999
021,1,1,csm,62b.png,1,1,268,218,267,1,0,430,neu_feedback_onset,5,"[ 0.25592387  0.15882539  0.0703964  -0.01283087 -0.08565474 -0.1480752
 -0.19835834 -0.23303637 -0.24864149 -0.24517368 -0.21916516 -0.17408372
 -0.11166326 -0.03710549  0.04612178  0.12588126  0.19870512  0.25765778
  0.29406971  0.30620702  0.29233581  0.25592387  0.20043902  0.12761516
  0.04785568 -0.03537159 -0.11513107 -0.18795493 -0.25037539 -0.30239244
 -0.34573998 -0.38388581 -0.41856384 -0.45844358 -0.50699283 -0.56941328
 -0.64917276 -0.74800515 -0.86937826 -1.01329209 -1.17454494 -1.3531368
 -1.54386598 -1.74326466 -1.94439724 -2.14379593 -2.3345251  -2.51485087
 -2.68130542 -2.82868706 -2.95699577 -3.06449767 -3.14772495 -3.2049437
 -3.23442003 -3.23615393 -3.2084115  -3.14599105 -3.05409426 -2.92751945
 -2.7714683  -2.58594083 -2.37613874 -2.14552983 -1.8975819  -1.64269837
 -1.38434703 -1.1311974  -0.88845118 -0.66651177 -0.47058089 -0.30932804
 -0.18795493 -0.10819546 -0.07698523 -0.09259034 -0.1532769  -0.25557709
 -0.39255532 -0.55554207 -0.73933564 -0.93006481 -1.12079399 -1.30458756
 -1.47277601 -1.62189155 -1.74846636 -1.85250046 -1.93399383 -1.99641429
 -2.03976183 -2.06923816 -2.08831108 -2.09871449 -2.10565009 -2.10911789
 -2.1143196  -2.12125521 -2.12992471 -2.14206203 -2.15766714 -2.17500616
 -2.19407907 -2.21141809 -2.2287571  -2.24262832 -2.25129783 -2.25649953
 -2.25303173 -2.24436222 -2.2287571  -2.20448248 -2.17327225 -2.13686032
 -2.09177888 -2.04149573 -1.98601088 -1.92532433 -1.86463777 -1.80048341
 -1.73632905 -1.6739086  -1.61495594 -1.55773719 -1.50745404 -1.4623726
 -1.42422677 -1.39648434 -1.37914533 -1.37220972 -1.37567752 -1.38954873
 -1.41035555 -1.43809798 -1.46757431 -1.50051844 -1.52999476 -1.55773719
 -1.58027791 -1.59935083 -1.61148814 -1.61668984 -1.61668984 -1.61148814
 -1.60108473 -1.58374571 -1.56293889 -1.54039817 -1.51612355 -1.49358283
 -1.47450991 -1.4623726  -1.4571709  -1.4641065  -1.47971162 -1.50572014
 -1.53693037 -1.5716084  -1.60628643 -1.63749666 -1.66003738 -1.6756425
 -1.6808442  -1.6756425  -1.66350519 -1.64616617 -1.62709325 -1.61148814
 -1.59935083 -1.59414912 -1.59588302 -1.60802034 -1.62535935 -1.64963397
 -1.6791103  -1.70685273 -1.73459515 -1.75713587 -1.77274099 -1.78141049
 -1.78141049 -1.77100708 -1.75366807 -1.73112735 -1.70685273 -1.68431201
 -1.66870689 -1.66350519 -1.6739086  -1.69991712 -1.74499856 -1.80568512
 -1.88197679 -1.96867187 -2.06056865 -2.15419934 -2.24436222 -2.32585559
 -2.39694556 -2.45416431 -2.49924575 -2.53045598 -2.5495289  -2.55819841
 -2.55819841 -2.5512628  -2.53739159 -2.51831867 -2.49577795 -2.46803552
 -2.4368253  -2.40214726 -2.36400143 -2.32238779 -2.27904025 -2.23222491
 -2.18367566 -2.13339252 -2.08137547 -2.02935842 -1.97560747 -1.92185652
 -1.86810557 -1.81435462 -1.75886977 -1.70511882 -1.64963397 -1.59588302
 -1.54039817 -1.48491332 -1.43116237 -1.37567752 -1.32192657 -1.26644172
 -1.21269077 -1.15720592 -1.10172107 -1.04797012 -0.99248527 -0.93700042
 -0.88324947 -0.82603072 -0.77054587 -0.71332711 -0.65437446 -0.591954
 -0.52779964 -0.45844358 -0.38561971 -0.30759414 -0.22436687 -0.13940569
 -0.05444451  0.02704886  0.10160663  0.16576099  0.21084243  0.23338315
  0.22991535  0.20043902]","[-0.22450501 -0.20686218 -0.1945122  -0.18569078 -0.18216222 -0.18216222
 -0.18569078 -0.18921935 -0.19098363 -0.18569078 -0.16804795 -0.13805514
 -0.08865522 -0.01984818  0.07013025  0.18128008  0.30654417  0.4476868
  0.59412229  0.74232206  0.88699326  1.02284305  1.14634286  1.25219984
  1.34041399  1.41274959  1.46744236  1.50802087  1.5362494   1.55389223
  1.56447793  1.56800649  1.56977078  1.56800649  1.56271364  1.55918508
  1.55389223  1.5468351   1.54154225  1.5362494   1.52919227  1.52389942
  1.51860657  1.51154944  1.50625659  1.49919946  1.49390661  1.48861376
  1.48155663  1.47626378  1.47097093  1.4639138   1.45862095  1.45156382
  1.44627097  1.43921384  1.4321567   1.42333529  1.41451387  1.40392818
  1.3915782   1.37569965  1.35805682  1.33512114  1.30689261  1.27160695
  1.23102844  1.17986424  1.1216429   1.05107158  0.97167885  0.8834647
  0.78290057  0.67527931  0.55883663  0.43886539  0.3136013   0.18657292
  0.05778027 -0.07101239 -0.20156933 -0.33565484 -0.47326891 -0.61441155
 -0.76084703 -0.9090468  -1.05724657 -1.20191778 -1.33953185 -1.46479594
 -1.57418148 -1.66415991 -1.73473123 -1.78413116 -1.81588825 -1.82823823
 -1.82823823 -1.81588825 -1.79471685 -1.76648833 -1.73296695 -1.69062416
 -1.64122424 -1.58123861 -1.5106673  -1.427746   -1.334239   -1.2301463
 -1.11899648 -1.00431808 -0.88787541 -0.7749613  -0.66910432 -0.56854019
 -0.47856176 -0.39211189 -0.31095487 -0.22626929 -0.13805514 -0.03749101
  0.07718738  0.2095086   0.36123694  0.52884382  0.71056497  0.90110753
  1.09341437  1.27866408  1.45509238  1.61211357  1.74972764  1.86617032
  1.96320588  2.04612718  2.12022706  2.19432695  2.27901253  2.37957666
  2.50307647  2.6548048 ]",-0.12606798334707425,1.4260237199444563,5.76734,0.10848499999999905
021,1,1,csm,66b.png,1,1,300,291,298,1,0,511,neu_feedback_onset,6,"[ 0.23702137  0.37867769  0.49503823  0.58778939  0.65861755  0.70752271
  0.73450486  0.73450486  0.70752271  0.64512647  0.54562978  0.40060069
  0.21003922 -0.02605464 -0.30599451 -0.62303483 -0.97043009 -1.33637557
 -1.70738021 -2.07332569 -2.42072095 -2.74113404 -3.02950583 -3.27909077
 -3.48988886 -3.66358648 -3.80187003 -3.90979865 -3.99580427 -4.06157328
 -4.11216482 -4.15432444 -4.1914249  -4.22346621 -4.25382114 -4.28417606
 -4.31621737 -4.3465723  -4.37861361 -4.41065492 -4.44269623 -4.47473754
 -4.50846523 -4.54050654 -4.57423423 -4.60627554 -4.63831685 -4.67035816
 -4.70239947 -4.73444078 -4.76310932 -4.79177786 -4.81707363 -4.84068302
 -4.85923325 -4.87272433 -4.88115625 -4.88284264 -4.8760971  -4.86260602
 -4.8423694  -4.81201448 -4.7766004  -4.73106801 -4.68047647 -4.62482578
 -4.56242954 -4.49666054 -4.42751876 -4.3566906  -4.28417606 -4.20828875
 -4.13240144 -4.05651412 -3.98062681 -3.9047395  -3.8271658  -3.75127849
 -3.67539118 -3.59950387 -3.52193017 -3.44435647 -3.36678277 -3.28583631
 -3.20657623 -3.12394337 -3.04299691 -2.96205044 -2.88110397 -2.80353028
 -2.72932935 -2.65850119 -2.59441857 -2.53539511 -2.48817634 -2.45276226
 -2.43589841 -2.43927118 -2.47131249 -2.53370872 -2.63489181 -2.77317535
 -2.94855936 -3.16104384 -3.39882408 -3.65515456 -3.91654419 -4.1695019
 -4.40053661 -4.59784362 -4.74793186 -4.84574217 -4.88790179 -4.87103794
 -4.80189617 -4.68722201 -4.53882015 -4.36680891 -4.18467936 -4.00592258
 -3.8389705  -3.69056864 -3.56746256 -3.46796586 -3.39207855 -3.33305508
 -3.28752269 -3.24873584 -3.21163538 -3.17116215 -3.12394337 -3.06829268
 -3.00589644 -2.9333819  -2.8558082  -2.77148897 -2.68211058 -2.59273219
 -2.50166741 -2.41397541 -2.32796979 -2.25039609 -2.1829407  -2.13066277
 -2.0952487  -2.08513039 -2.10199423 -2.14921301 -2.22847309 -2.34146086
 -2.48648995 -2.66018758 -2.85412182 -3.06660629 -3.28752269 -3.51181186
 -3.73104187 -3.94352635 -4.14083336 -4.3246493  -4.48822861 -4.63494408
 -4.75973655 -4.86597879 -4.9536708  -5.02112618 -5.07340411 -5.10881819
 -5.13242758 -5.14423227 -5.14929142 -5.14760504 -5.14254588 -5.13917311
 -5.13411396 -5.13242758 -5.13242758 -5.13074119 -5.12736842 -5.1189365
 -5.10207265 -5.07003134 -5.02281257 -4.95704357 -4.86766518 -4.75805017
 -4.62651216 -4.47305115 -4.30272629 -4.11891036 -3.92160335 -3.71923718
 -3.51349824 -3.30944569 -3.11382507 -2.93000913 -2.76474343 -2.6247735
 -2.51347211 -2.43421202 -2.39036602 -2.38362048 -2.41060264 -2.47299887
 -2.56237726 -2.67536504 -2.80353028 -2.94350021 -3.08684291 -3.22849923
 -3.36341    -3.49157524 -3.6062494  -3.70911887 -3.79681088 -3.86932542
 -3.9266625  -3.96376297 -3.98568597 -3.98737235 -3.9705085  -3.93509442
 -3.88113011 -3.81198834 -3.72429633 -3.62311325 -3.50675271 -3.38027385
 -3.24367669 -3.10202037 -2.96036406 -2.82545328 -2.70066081 -2.59779134
 -2.52021764 -2.47805803 -2.47468526 -2.51178572 -2.5910458  -2.70571996
 -2.85074905 -3.0109556  -3.17453492 -3.32630954 -3.44941563 -3.53036209
 -3.55734425 -3.52530294 -3.42917901 -3.27234523 -3.06323352 -2.8119622
 -2.53202234 -2.23690501 -1.9401013  -1.65510228 -1.39202627 -1.15593241
 -0.95019347 -0.77480946]","[-2.99633417 -2.8053251  -2.58344588 -2.33069651 -2.05093575 -1.74995177
 -1.42967393 -1.09589041 -0.75245997 -0.39745321 -0.03472892  0.33764229
  0.7235192   1.12290179  1.53771947  1.97183099  2.42137758  2.88828864
  3.36870538  3.85491028  4.34690334  4.83310824  5.3115956   5.77657727
  6.22419448  6.65058846  7.05575921  7.4435655   7.81400733  8.17094347
  8.52016207  8.86359251  9.20123481  9.53694771  9.86494308 10.17943276
 10.47269921 10.73702489 10.95890411 11.13061933 11.24059425 11.28304071
 11.25602933 11.1595601  10.9974918  10.77947135 10.51707505 10.22187922
  9.90931893  9.59482925  9.28419834  8.99093189  8.71888867  8.46999807
  8.24618947  8.04360409  7.86224194  7.69631488  7.54196411  7.39918966
  7.26413274  7.13679336  7.01524214  6.90333784  6.79915107  6.70847
  6.63129462  6.5714837   6.52903724  6.50588462  6.50395524  6.51939031
  6.55411924  6.60428323  6.66602354  6.73934015  6.8203743   6.9071966
  6.99787768  7.08855875  7.17923982  7.26799151  7.35288443  7.43005981
  7.49951765  7.55739919  7.59984565  7.62685703  7.63457457  7.62299826
  7.59212811  7.54196411  7.47057689  7.37989581  7.27377966  7.15222844
  7.01717152  6.87246768  6.71811692  6.55797801  6.39205094  6.2222651
  6.04669111  5.86918773  5.68782558  5.50646344  5.32317191  5.14180976
  4.962377    4.78873239  4.62473471  4.47038395  4.32953888  4.2021995
  4.0902952   3.99575535  3.9147212   3.84719275  3.79316998  3.74686475
  3.71020644  3.67933629  3.65232491  3.62917229  3.60987845  3.5905846
  3.57322014  3.55585568  3.54042061  3.52498553  3.50955045  3.49411538
  3.48060969  3.46903338  3.45745707  3.44973953  3.44588076  3.44588076
  3.45552769  3.47482153]",-0.7163048820123924,8.8805710978198,5.9298449999999985,
021,1,1,csp,54a.png,1,1,52,333,NaN,0,1,555,neg_feedback_onset,7,"[ 1.56395491e-01  1.41931168e-01  1.02154280e-01  4.61050291e-02
 -1.53683430e-02 -7.68417151e-02 -1.27466845e-01 -1.61819612e-01
 -1.76283935e-01 -1.69051773e-01 -1.43739208e-01 -1.02154280e-01
 -5.15291501e-02  4.52010089e-03  5.69532712e-02  9.85381994e-02
  1.23850764e-01  1.29274885e-01  1.07578401e-01  5.69532712e-02
 -2.44085448e-02 -1.38315087e-01 -2.82958316e-01 -4.60146270e-01
 -6.64454831e-01 -8.94075956e-01 -1.14358552e+00 -1.40755942e+00
 -1.67876547e+00 -1.94997152e+00 -2.21394542e+00 -2.46345498e+00
 -2.69126807e+00 -2.89196055e+00 -3.05830026e+00 -3.19028721e+00
 -3.28611335e+00 -3.34397064e+00 -3.36566712e+00 -3.35301084e+00
 -3.31142591e+00 -3.24091234e+00 -3.15051032e+00 -3.04564398e+00
 -2.92812136e+00 -2.80698265e+00 -2.68765199e+00 -2.57736153e+00
 -2.47791931e+00 -2.39836553e+00 -2.33689216e+00 -2.29892331e+00
 -2.27903487e+00 -2.28084291e+00 -2.29530723e+00 -2.32242784e+00
 -2.35678060e+00 -2.39474945e+00 -2.43452634e+00 -2.47249519e+00
 -2.50684795e+00 -2.53758464e+00 -2.56651328e+00 -2.59001781e+00
 -2.61352233e+00 -2.63341078e+00 -2.65149118e+00 -2.66776354e+00
 -2.68403591e+00 -2.69850023e+00 -2.70934847e+00 -2.71477259e+00
 -2.71658063e+00 -2.70934847e+00 -2.69126807e+00 -2.66053138e+00
 -2.61171429e+00 -2.54481680e+00 -2.45803086e+00 -2.35316452e+00
 -2.23202582e+00 -2.10003887e+00 -1.96624389e+00 -1.83787302e+00
 -1.72577452e+00 -1.64079662e+00 -1.58655541e+00 -1.57028305e+00
 -1.59017149e+00 -1.64260466e+00 -1.72215844e+00 -1.81617654e+00
 -1.91381072e+00 -2.00059665e+00 -2.06568611e+00 -2.09823083e+00
 -2.09099867e+00 -2.04037354e+00 -1.94816348e+00 -1.81436850e+00
 -1.64802878e+00 -1.45818455e+00 -1.25568403e+00 -1.05318351e+00
 -8.59723189e-01 -6.86151315e-01 -5.41508086e-01 -4.29409584e-01
 -3.55279930e-01 -3.17311082e-01 -3.15503042e-01 -3.48047768e-01
 -4.05905060e-01 -4.89074916e-01 -5.90325176e-01 -7.06039759e-01
 -8.30794543e-01 -9.59165409e-01 -1.08934431e+00 -1.21409910e+00
 -1.32981368e+00 -1.43106394e+00 -1.51423380e+00 -1.57570717e+00
 -1.61367602e+00 -1.62452426e+00 -1.61005994e+00 -1.57209109e+00
 -1.51242576e+00 -1.43829610e+00 -1.35693429e+00 -1.27376443e+00
 -1.19782674e+00 -1.13635336e+00 -1.09657648e+00 -1.08392019e+00
 -1.10561668e+00 -1.16166593e+00 -1.25025991e+00 -1.37320665e+00
 -1.52508204e+00 -1.69684587e+00 -1.88488207e+00 -2.07834239e+00
 -2.26999467e+00 -2.45260674e+00 -2.61894645e+00 -2.76178164e+00
 -2.87749623e+00 -2.96428216e+00 -3.01852337e+00 -3.04021986e+00
 -3.02937162e+00 -2.98417061e+00 -2.90461683e+00 -2.79071029e+00
 -2.64606706e+00 -2.46887911e+00 -2.26276250e+00 -2.03133334e+00
 -1.78001573e+00 -1.51604184e+00 -1.24845187e+00 -9.86286014e-01
 -7.38584485e-01 -5.18003562e-01 -3.29967365e-01 -1.79900015e-01
 -7.32256344e-02 -6.32814124e-03  2.44085448e-02  2.44085448e-02
  4.52010089e-03 -2.44085448e-02 -5.33371905e-02 -7.32256344e-02
 -7.68417151e-02 -5.69532712e-02 -1.17522623e-02  6.05693519e-02
  1.54587450e-01  2.72110073e-01  4.09521141e-01  5.59588490e-01
  7.20504082e-01  8.86843794e-01  1.05137547e+00  1.21229106e+00
  1.36055037e+00  1.49434535e+00  1.60825190e+00  1.69684587e+00
  1.75651121e+00  1.79086397e+00  1.79628809e+00  1.78182377e+00
  1.74927904e+00  1.70950216e+00  1.66972527e+00  1.64079662e+00
  1.62994838e+00  1.64260466e+00  1.68057351e+00  1.74385492e+00
  1.82883282e+00  1.93008308e+00  2.04037354e+00  2.15247204e+00
  2.25733838e+00  2.35135648e+00  2.43091026e+00  2.49599971e+00
  2.54843288e+00  2.59182585e+00  2.63521882e+00  2.68222787e+00
  2.74008516e+00  2.81240677e+00  2.90461683e+00  3.01852337e+00
  3.15412640e+00  3.31142591e+00  3.49042191e+00  3.68749830e+00
  3.90265511e+00  4.13227623e+00  4.37455364e+00  4.62587125e+00
  4.88622906e+00  5.15020295e+00  5.41417684e+00  5.66911053e+00
  5.91138794e+00  6.13196887e+00  6.32000506e+00  6.47007241e+00
  6.57313071e+00  6.62375584e+00  6.61652368e+00  6.55143423e+00
  6.43029552e+00  6.25853169e+00  6.04337489e+00  5.79748140e+00
  5.52808339e+00  5.25326125e+00  4.98205520e+00  4.72892955e+00
  4.50292451e+00  4.31669635e+00  4.17205312e+00  4.07622698e+00
  4.03102597e+00  4.03464205e+00  4.08707522e+00  4.18109332e+00
  4.31308027e+00  4.47399586e+00  4.65479990e+00  4.84826021e+00]","[-0.98762503 -0.82583716 -0.66764458 -0.51664258 -0.37462879 -0.2451985
 -0.12475642 -0.01869549  0.0729843   0.15208059  0.21499809  0.2653321
  0.3030826   0.33004724  0.34982131  0.3660001   0.38217889  0.4037506
  0.43610817  0.48464453  0.55295497  0.64283711  0.75788626  0.89810241
  1.06168791  1.25044042  1.45716936  1.68187473  1.92096124  2.16903596
  2.42250361  2.67956655  2.93662949  3.1882995   3.4309813   3.66287724
  3.87859439  4.07273982  4.24171826  4.37833912  4.48080477  4.54192463
  4.5616987   4.5365317   4.47001891  4.36216034  4.2183489   4.04937047
  3.8624156   3.66827016  3.47951766  3.30334865  3.14875136  3.02291635
  2.92764128  2.86472377  2.83056856  2.82337799  2.83775913  2.8701167
  2.91685542  2.97258235  3.03549985  3.10381028  3.17391836  3.24582408
  3.31952744  3.3932308   3.46693416  3.54063752  3.61434088  3.68984188
  3.76354524  3.8372486   3.9127496   3.98645296  4.06015632  4.13565733
  4.20936069  4.28306405  4.35856505  4.43226841  4.50597177  4.58147277
  4.65517613  4.72887949  4.8043805   4.87808386  4.95178722  5.02728822
  5.10099158  5.17469494  5.25019594  5.3238993   5.39760266  5.47130602
  5.54680703  5.62051039  5.69421375  5.76971475  5.84341811  5.91712147
  5.98902719  6.0609329   6.12924334  6.19575612  6.25687598  6.30900763
  6.35215106  6.3791157   6.38990156  6.3791157   6.34316284  6.28024534
  6.1903632   6.07351641  5.93330026  5.77331004  5.60073631  5.41917438
  5.23401716  5.04885993  4.86370271  4.68034313  4.49698356  4.31362398
  4.12846675  3.93971425  3.7491641   3.55861395  3.37165908  3.19009714
  3.02291635  2.86831906  2.7316982   2.61305376  2.51058812  2.42250361
  2.34340732  2.26790632]",4.8617301138161215,5.504472535611281,5.530850000000001,
021,1,1,csp,33a.png,1,1,36,276,35,1,1,298,pos_feedback_onset,8,"[ 0.31748397  0.25184046  0.1773262   0.10103779  0.02829768 -0.03911999
 -0.09589276 -0.14024648 -0.17218117 -0.18814851 -0.19169681 -0.18105191
 -0.15798797 -0.12427914 -0.07815127 -0.02492679  0.03539427  0.09926364
  0.16313301  0.21990577  0.26958195  0.30506493  0.32280642  0.31748397
  0.28909759  0.23409897  0.15071396  0.04426502 -0.08702201 -0.23959883
 -0.40814299 -0.58910619 -0.77539184 -0.96345164 -1.14618899 -1.31828145
 -1.47440657 -1.6127902  -1.73165818 -1.82923638 -1.90907309 -1.9747166
 -2.03148937 -2.08826214 -2.15213151 -2.23196821 -2.33309471 -2.46083344
 -2.61873271 -2.80856666 -3.02678699 -3.26629711 -3.52000043 -3.78080034
 -4.03450365 -4.27401377 -4.48868581 -4.66964901 -4.81335508 -4.91448158
 -4.9730285  -4.99254414 -4.9730285  -4.92157818 -4.84528977 -4.75125987
 -4.64481092 -4.53481368 -4.43013889 -4.33433484 -4.25449813 -4.19417707
 -4.15869408 -4.14627504 -4.15869408 -4.19417707 -4.25094984 -4.32368995
 -4.4123974  -4.51174975 -4.61997284 -4.73351838 -4.85238636 -4.9730285
 -5.09544478 -5.21963522 -5.34382565 -5.46801608 -5.59220652 -5.71639695
 -5.83881324 -5.95945537 -6.07832336 -6.1918689  -6.30186614 -6.40299263
 -6.49524839 -6.57508509 -6.64250276 -6.69395308 -6.72943606 -6.75072585
 -6.7560483  -6.7489517  -6.73121021 -6.70814627 -6.67975989 -6.6513735
 -6.62476127 -6.60347148 -6.58750414 -6.57863339 -6.57863339 -6.58750414
 -6.60169733 -6.62298712 -6.6478252  -6.67266329 -6.69217893 -6.70637212
 -6.70814627 -6.69927553 -6.67621159 -6.64250276 -6.59637488 -6.54315041
 -6.48282934 -6.41895998 -6.35331646 -6.28412465 -6.21493284 -6.14396687
 -6.07122676 -5.99848665 -5.92397239 -5.84945813 -5.77849217 -5.71284865
 -5.65252759 -5.60462556 -5.56914258 -5.54607864 -5.5407562  -5.54962694
 -5.57446503 -5.60994801 -5.65430173 -5.70220376 -5.74833163 -5.78736291
 -5.81042685 -5.81397515 -5.79091121 -5.73768674 -5.65075344 -5.52833715
 -5.36866374 -5.17528149 -4.94819041 -4.69271295 -4.41062325 -4.10901791
 -3.79321938 -3.46677595 -3.13501008 -2.80501836 -2.47680078 -2.15390566
 -1.83988127 -1.53295349 -1.23844475 -0.95635505 -0.69200684 -0.44717427
 -0.22540564 -0.03202339  0.13119832  0.26248535  0.3618377   0.42748121
  0.46651249  0.47893154  0.47183494  0.4452227   0.40796557  0.36006355
  0.30506493  0.24651801  0.18442279  0.12232758  0.05668406 -0.00895945
 -0.07460297 -0.14024648 -0.20589    -0.27153351 -0.33717703 -0.40282054
 -0.46846406 -0.53410757 -0.60152524 -0.66716875 -0.73281227 -0.79845578
 -0.8640993  -0.92974281 -0.99538633 -1.06280399 -1.1284475  -1.19409102
 -1.25973453 -1.32537805 -1.39102156 -1.45666508 -1.52408274 -1.58972626
 -1.65536977 -1.72101329 -1.7866568  -1.85230032 -1.91794383 -1.98358735
 -2.04923086 -2.11487438 -2.18051789 -2.24438726 -2.30648247 -2.36502939
 -2.42002801 -2.46970419 -2.50873547 -2.53712185 -2.54954089 -2.5424443
 -2.51228376 -2.45551099 -2.36857769 -2.253258   -2.11132608 -1.94278192
 -1.75649627 -1.55779157 -1.35553858 -1.15683389 -0.97232239 -0.80910067
 -0.67071705 -0.56604225 -0.49507629 -0.45781916 -0.45604501 -0.48620555
 -0.54652662 -0.63168577 -0.74168301 -0.87119589 -1.02199856 -1.19409102
 -1.38569912 -1.60037115]","[-2.39842708 -2.22246163 -2.0034026  -1.75381894 -1.47909737 -1.19180683
 -0.8937429  -0.59567897 -0.29761504 -0.00673337  0.27517047  0.54630091
  0.79947569  1.03828595  1.25554942  1.4566528   1.63620938  1.79960587
  1.94863784  2.08689641  2.21438158  2.33827563  2.45678297  2.57349475
  2.6866154   2.79434935  2.89310548  2.97929264  3.05111527  3.10318668
  3.1337113   3.1444847   3.1337113   3.10318668  3.05829753  2.99904386
  2.93081236  2.85360303  2.77280256  2.6866154   2.59863268  2.50885438
  2.41907609  2.3292978   2.23772394  2.14794565  2.05637179  1.96479793
  1.87501964  1.78344578  1.69187192  1.60209363  1.51051977  1.42074148
  1.33275875  1.24477603  1.15858886  1.07419727  0.99519237  0.92157417
  0.8569338   0.79947569  0.75279098  0.7204708   0.70071957  0.69712844
  0.70790184  0.73124419  0.76895108  0.81743135  0.87488946  0.93952983
  1.00776133  1.07599284  1.1460199   1.21604697  1.28427847  1.34891884
  1.41355922  1.47640402  1.53745326  1.5985025   1.65775617  1.71341871
  1.76728569  1.81756153  1.86424624  1.90733982  1.94504671  1.98095802
  2.01507378  2.05278066  2.09407867  2.14615008  2.20899489  2.28979535
  2.39034704  2.51064995  2.65249965  2.81410058  2.9918616   3.18039601
  3.37252156  3.56285154  3.74061256  3.89862235  4.02969866  4.12486365
  4.18052619  4.19668628  4.17334393  4.11229469  4.0225164   3.90939575
  3.78370614  3.65262983  3.52514466  3.40663731  3.30788119  3.22708072
  3.16782705  3.1283246   3.10857338  3.10139111  3.10498225  3.11216451
  3.11934677  3.12473347  3.1229379   3.11755121  3.10498225  3.09061772
  3.07625319  3.0654798   3.06368423  3.06907093  3.08702659  3.11575564
  3.15346252  3.19835167]",-0.6805192224614156,3.19112451800279,5.636504999999999,0.2656199999999984
021,1,1,csp,5a.png,1,1,228,154,228,1,1,384,pos_feedback_onset,9,"[ 7.48868933e-01  6.94707728e-01  6.31519655e-01  5.59304715e-01
  4.79868280e-01  3.93210351e-01  3.01136302e-01  2.05451506e-01
  1.06155963e-01  6.86041935e-03 -9.24351239e-02 -1.88119920e-01
 -2.78388596e-01 -3.61435777e-01 -4.35456092e-01 -4.95033417e-01
 -5.41973129e-01 -5.70859105e-01 -5.83496720e-01 -5.79885973e-01
 -5.60026864e-01 -5.25724767e-01 -4.82395803e-01 -4.33650718e-01
 -3.81294886e-01 -3.30744428e-01 -2.87415463e-01 -2.51307993e-01
 -2.26032764e-01 -2.11589776e-01 -2.06173655e-01 -2.11589776e-01
 -2.22422017e-01 -2.38670379e-01 -2.60334861e-01 -2.87415463e-01
 -3.16301440e-01 -3.48798163e-01 -3.86711007e-01 -4.28234597e-01
 -4.73368935e-01 -5.23919394e-01 -5.76275226e-01 -6.32241805e-01
 -6.88208383e-01 -7.45980336e-01 -8.03752288e-01 -8.59718867e-01
 -9.13880073e-01 -9.66235905e-01 -1.01859174e+00 -1.06733682e+00
 -1.11788728e+00 -1.16482699e+00 -1.21357208e+00 -1.26051179e+00
 -1.30925687e+00 -1.35619658e+00 -1.40313629e+00 -1.44827063e+00
 -1.49521034e+00 -1.54034468e+00 -1.58547902e+00 -1.62700261e+00
 -1.66672083e+00 -1.70463367e+00 -1.73713039e+00 -1.76421100e+00
 -1.78587548e+00 -1.80212384e+00 -1.81295608e+00 -1.81837220e+00
 -1.82017758e+00 -1.82017758e+00 -1.82198295e+00 -1.82739907e+00
 -1.83642594e+00 -1.85086893e+00 -1.87072803e+00 -1.89600326e+00
 -1.92308387e+00 -1.94835910e+00 -1.97002358e+00 -1.98085582e+00
 -1.98266119e+00 -1.97182895e+00 -1.94835910e+00 -1.91586237e+00
 -1.87794953e+00 -1.83823131e+00 -1.80573459e+00 -1.78407011e+00
 -1.77865399e+00 -1.79851309e+00 -1.84184206e+00 -1.91405700e+00
 -2.01154717e+00 -2.13431257e+00 -2.27513170e+00 -2.43219920e+00
 -2.60009893e+00 -2.76980404e+00 -2.93589841e+00 -3.09657665e+00
 -3.24642265e+00 -3.37821492e+00 -3.49195345e+00 -3.58583287e+00
 -3.65804781e+00 -3.70859827e+00 -3.73928962e+00 -3.74831649e+00
 -3.74109500e+00 -3.71581977e+00 -3.67429618e+00 -3.61832960e+00
 -3.54792003e+00 -3.46126210e+00 -3.36016118e+00 -3.24461728e+00
 -3.11643576e+00 -2.97381125e+00 -2.82215988e+00 -2.65967626e+00
 -2.49358190e+00 -2.32568216e+00 -2.15778242e+00 -1.99529881e+00
 -1.84003669e+00 -1.69560680e+00 -1.56200916e+00 -1.44285451e+00
 -1.33814285e+00 -1.24787417e+00 -1.17024311e+00 -1.10524967e+00
 -1.05289383e+00 -1.00956487e+00 -9.73457399e-01 -9.44571422e-01
 -9.22906940e-01 -9.04853205e-01 -8.90410217e-01 -8.81383349e-01
 -8.74161855e-01 -8.68745735e-01 -8.66940361e-01 -8.66940361e-01
 -8.66940361e-01 -8.70551108e-01 -8.72356482e-01 -8.75967229e-01
 -8.81383349e-01 -8.84994096e-01 -8.88604843e-01 -8.92215590e-01
 -8.92215590e-01 -8.92215590e-01 -8.88604843e-01 -8.79577976e-01
 -8.65134988e-01 -8.41665132e-01 -8.10973782e-01 -7.69450192e-01
 -7.17094360e-01 -6.53906287e-01 -5.83496720e-01 -5.05865659e-01
 -4.28234597e-01 -3.54214283e-01 -2.87415463e-01 -2.33254258e-01
 -1.93536041e-01 -1.71871559e-01 -1.68260811e-01 -1.79093053e-01
 -2.02562908e-01 -2.36865005e-01 -2.76583222e-01 -3.18106813e-01
 -3.59630404e-01 -3.99348621e-01 -4.35456092e-01 -4.67952815e-01
 -4.96838791e-01 -5.25724767e-01 -5.52805370e-01 -5.79885973e-01
 -6.06966575e-01 -6.34047178e-01 -6.62933154e-01 -6.90013757e-01
 -7.18899733e-01 -7.45980336e-01 -7.71255565e-01 -7.96530794e-01
 -8.20000650e-01 -8.41665132e-01 -8.63329614e-01 -8.84994096e-01
 -9.04853205e-01 -9.24712314e-01 -9.44571422e-01 -9.64430531e-01
 -9.80678893e-01 -9.98732628e-01 -1.01498099e+00 -1.02942398e+00
 -1.04206159e+00 -1.05650458e+00 -1.06914219e+00 -1.08358518e+00
 -1.09983354e+00 -1.11969265e+00 -1.14135714e+00 -1.16663236e+00
 -1.19551834e+00 -1.22801506e+00 -1.26412253e+00 -1.30384075e+00
 -1.34716972e+00 -1.39410943e+00 -1.44104914e+00 -1.49340497e+00
 -1.54576080e+00 -1.60172738e+00 -1.66130471e+00 -1.72268741e+00
 -1.78948623e+00 -1.85989579e+00 -1.93752685e+00 -2.02057404e+00
 -2.11084271e+00 -2.21013826e+00 -2.32026604e+00 -2.44122607e+00
 -2.57662908e+00 -2.72466971e+00 -2.89076407e+00 -3.07491217e+00
 -3.27891938e+00 -3.50278569e+00 -3.74651112e+00 -4.01190102e+00
 -4.29534466e+00 -4.59503667e+00 -4.91278241e+00 -5.24136039e+00
 -5.58077061e+00 -5.92920769e+00 -6.28306090e+00 -6.63871948e+00
 -6.99437807e+00 -7.34642590e+00 -7.69305762e+00 -8.02885709e+00
 -8.34660283e+00 -8.64087871e+00 -8.90446324e+00 -9.12652419e+00]","[-2.4590093  -2.1724182  -1.87428653 -1.56846113 -1.26648259 -0.96835092
 -0.68560668 -0.41824989 -0.1701274   0.05876079  0.26841468  0.46460456
  0.65117728  0.83197972  1.01470559  1.2070486   1.4109322   1.63597353
  1.88409602  2.15529968  2.45343135  2.77656762  3.12086162  3.48246649
  3.85753537  4.23645112  4.61536686  4.99043574  5.35396405  5.70210491
  6.03293489  6.34453058  6.63496854  6.90424876  7.15237125  7.38125944
  7.58706647  7.76979234  7.93136047  8.06792401  8.18140639  8.26796075
  8.32758709  8.36220883  8.36990255  8.35066825  8.30642935  8.23526244
  8.1371675   8.01022111  7.85634669  7.6716974   7.46012008  7.2254616
  6.96964539  6.69844173  6.42146779  6.14449384  5.87136676  5.60978026
  5.3635812   5.12892272  4.91157511  4.70576808  4.51342506  4.32877577
  4.14989676  3.97871147  3.80944962  3.6421112   3.47477277  3.30935778
  3.14586621  2.98045122  2.81695965  2.65346809  2.48997652  2.32840839
  2.16684026  2.00527212  1.84755085  1.691753    1.53787859  1.38785104
  1.24167035  1.10125994  0.96661983  0.83967344  0.71849734  0.60501496
  0.50114973  0.40882508  0.32804102  0.26264439  0.21071177  0.1741666
  0.1549323   0.15300887  0.16647288  0.1934009   0.23571637  0.28957241
  0.35304561  0.42805938  0.51076688  0.60309153  0.70503333  0.81466885
  0.93776838  1.07048506  1.21281889  1.36861674  1.53595516  1.71483417
  1.90333032  2.10144363  2.30917409  2.52459827  2.74194588  2.96314035
  3.18048795  3.39206527  3.59210201  3.77482788  3.94024287  4.0825767
  4.20182937  4.29800088  4.3691678   4.42302384  4.45956902  4.48457361
  4.50188448  4.51534849  4.52688907  4.53650622  4.54419994  4.5480468
  4.54419994  4.53265936]",2.4036328483134638e-15,6.778744942580801,5.53902,-0.1581899999999994
021,1,1,csp,22a.png,1,1,68,74,67,1,1,423,pos_feedback_onset,10,"[ 0.22611765  0.23534318  0.22980786  0.21320191  0.18368023  0.14862323
  0.10618581  0.06005818  0.01393054 -0.03035198 -0.06909919 -0.10231109
 -0.12998767 -0.15028382 -0.16135445 -0.16504467 -0.16319956 -0.15766424
 -0.14843872 -0.13921319 -0.13552298 -0.13736809 -0.15028382 -0.1761153
 -0.21670761 -0.27390588 -0.34586498 -0.43443003 -0.53591082 -0.64846224
 -0.7720843  -0.90124166 -1.03777945 -1.17800745 -1.32192566 -1.46584387
 -1.61345229 -1.7573705  -1.89944361 -2.0359814  -2.16698387 -2.28876082
 -2.40315734 -2.51017345 -2.61165424 -2.70759971 -2.80354519 -2.90133576
 -3.00281655 -3.10983266 -3.21869387 -3.32755508 -3.43088097 -3.52682645
 -3.60616597 -3.66705445 -3.70580166 -3.7205625  -3.71133697 -3.68181529
 -3.63568766 -3.5821796  -3.52129113 -3.46409287 -3.41242992 -3.36814739
 -3.3349355  -3.31279424 -3.29803339 -3.29249808 -3.28880787 -3.29065297
 -3.29065297 -3.29065297 -3.29065297 -3.28880787 -3.28696276 -3.28696276
 -3.28880787 -3.29618829 -3.30541382 -3.32017466 -3.34047082 -3.36445718
 -3.39397887 -3.42350055 -3.45302224 -3.48254392 -3.50837539 -3.53051666
 -3.5471226  -3.55819324 -3.56557366 -3.56926387 -3.57110897 -3.57295408
 -3.57295408 -3.57664429 -3.5803345  -3.58402471 -3.58402471 -3.5821796
 -3.56926387 -3.54343239 -3.49730476 -3.42534566 -3.32017466 -3.17441134
 -2.98067529 -2.73343119 -2.42898882 -2.05996777 -1.62636803 -1.13003472
 -0.57281293  0.03976202  0.69661949  1.39222417  2.10812501  2.83509649
  3.55653264  4.25582753  4.92191053  5.53817569  6.09724258  6.58988569
  7.0142599   7.37036521  7.66004674  7.89068489  8.0696601   8.20250768
  8.30214337  8.37225737  8.42392031  8.46082242  8.488499    8.50879516
  8.5254011   8.54016194  8.55307768  8.56599342  8.58075426  8.59736021
  8.61581126  8.63979763  8.67116442  8.70991163  8.76157458  8.82430815
  8.90180258  8.99590294  9.10660926  9.23207642  9.37230442  9.52360305
  9.6822821   9.84280626 10.00333041 10.15647415 10.29854726 10.42401441
 10.53287562 10.61775047 10.67863894 10.71738615 10.73214699 10.72476657
 10.6989351  10.65649768 10.60114452 10.53472073 10.46276162 10.3834221
 10.30039236 10.21551752 10.12695247 10.04023252  9.95166747  9.86310242
  9.77269226  9.68412721  9.59556215  9.505152    9.41658694  9.32617679
  9.23761173  9.14904668  9.05863652  8.97007147  8.88150642  8.79109626
  8.70253121  8.61212105  8.523556    8.43499095  8.34458079  8.25601574
  8.16745068  8.07704052  7.98847547  7.89806531  7.80950026  7.72093521
  7.63052505  7.54196     7.45339495  7.36298479  7.27441974  7.18400958
  7.09544453  7.00687947  6.91646932  6.82790426  6.73933921  6.64892905
  6.560364    6.46995384  6.38138879  6.29282374  6.20241358  6.11384853
  6.02528348  5.93671842  5.84815337  5.76143343  5.67471348  5.59168374
  5.51049911  5.43300469  5.36104558  5.2964669   5.23742353  5.18576058
  5.14332316  5.10642106  5.07874448  5.05475811  5.03815216  5.02523643
  5.01785601  5.01970111  5.03261685  5.05844832  5.10457595  5.17284485
  5.26510011  5.38318685  5.52710506  5.68947432  5.86844953  6.05665027
  6.2430059   6.42198111  6.58619548  6.73195879  6.85189063  6.94968121
  7.02902074  7.09359942]","[-0.71256476 -0.65041185 -0.58094684 -0.50782578 -0.42922064 -0.34878747
 -0.26652627 -0.18426508 -0.10200388 -0.02339874  0.05155035  0.12467141
  0.1923084   0.25811735  0.32575434  0.39521934  0.47199646  0.55791371
  0.65662714  0.77179282  0.90158271  1.04782483  1.2105192   1.38783777
  1.57612451  1.77172335  1.96915022  2.16657709  2.35851988  2.53766649
  2.70401691  2.85208706  2.98004892  3.08973051  3.17747579  3.24511277
  3.29629751  3.33103002  3.35296634  3.3639345   3.36759055  3.36576252
  3.35845042  3.34931029  3.33834213  3.32554594  3.31092173  3.29812554
  3.28350133  3.26887712  3.2542529   3.24145672  3.22683251  3.21220829
  3.19941211  3.18478789  3.17199171  3.15919552  3.14822736  3.13908723
  3.13177512  3.12629104  3.12629104  3.12811907  3.13543118  3.14822736
  3.1646796   3.18478789  3.20855224  3.23414461  3.25790896  3.27801725
  3.28715738  3.28532936  3.26887712  3.23231658  3.17564776  3.09521459
  2.99101708  2.86671127  2.72229717  2.55960281  2.38411226  2.19582552
  2.00022668  1.79731573  1.59074872  1.38052567  1.17030261  0.9564235
  0.74437242  0.53049331  0.3166142   0.10456312 -0.10931599 -0.3231951
 -0.53524618 -0.74912529 -0.96117637 -1.17139943 -1.38162248 -1.58818949
 -1.79292846 -1.99218336 -2.18412615 -2.36692881 -2.54059133 -2.70145767
 -2.84587177 -2.97566165 -3.08717128 -3.18222866 -3.25900577 -3.31933065
 -3.36685934 -3.40159185 -3.42901224 -3.44729251 -3.46191672 -3.47654093
 -3.49299317 -3.51127344 -3.53686581 -3.56794226 -3.60998687 -3.65934359
 -3.71966847 -3.78913348 -3.86773862 -3.95365587 -4.04871325 -4.14742669
 -4.2516242  -4.35764974 -4.46733134 -4.5751849  -4.68121045 -4.78175191
 -4.87863732 -4.96455456]",9.891148015266422,2.83810265466018,5.419744999999999,
021,1,1,csp,34a.png,1,1,304,286,303,1,1,561,neg_feedback_onset,11,"[nan nan nan nan nan nan nan nan nan nan nan nan nan nan nan nan nan nan
 nan nan nan nan nan nan nan nan nan nan nan nan nan nan nan nan nan nan
 nan nan nan nan nan nan nan nan nan nan nan nan nan nan nan nan nan nan
 nan nan nan nan nan nan nan nan nan nan nan nan nan nan nan nan nan nan
 nan nan nan nan nan nan nan nan nan nan nan nan nan nan nan nan nan nan
 nan nan nan nan nan nan nan nan nan nan nan nan nan nan nan nan nan nan
 nan nan nan nan nan nan nan nan nan nan nan nan nan nan nan nan nan nan
 nan nan nan nan nan nan nan nan nan nan nan nan nan nan nan nan nan nan
 nan nan nan nan nan nan nan nan nan nan nan nan nan nan nan nan nan nan
 nan nan nan nan nan nan nan nan nan nan nan nan nan nan nan nan nan nan
 nan nan nan nan nan nan nan nan nan nan nan nan nan nan nan nan nan nan
 nan nan nan nan nan nan nan nan nan nan nan nan nan nan nan nan nan nan
 nan nan nan nan nan nan nan nan nan nan nan nan nan nan nan nan nan nan
 nan nan nan nan nan nan nan nan nan nan nan nan nan nan nan nan nan nan
 nan nan nan nan nan nan nan nan]","[-1.12499828 -1.12893666 -1.11515233 -1.07970691 -1.02260039 -0.93989441
 -0.83552734 -0.70949918 -0.56377911 -0.39836715 -0.21720166 -0.01634428
  0.19829744  0.43263105  0.68468738  0.95446642  1.24393736  1.551131
  1.87407817  2.21277886  2.56329469  2.92365647  3.28992582  3.65816436
  4.02443371  4.38873387  4.74712646  5.10158067  5.44815812  5.788828
  6.1255595   6.45638342  6.78326897  7.10424695  7.41734817  7.72257263
  8.01204357  8.28576098  8.5397865   8.76427417  8.96119317  9.12069757
  9.24278735  9.32549333  9.36487713  9.36487713  9.32746252  9.25854087
  9.16008137  9.04192996  8.91196342  8.77608931  8.64218438  8.51221784
  8.39406644  8.28576098  8.18927067  8.10262631  8.02385871  7.95296786
  7.88995378  7.82890889  7.76983319  7.71469587  7.65955855  7.60442123
  7.5492839   7.49611577  7.44294764  7.38781032  7.33464219  7.28147406
  7.22830593  7.1731686   7.12000047  7.06683234  7.01169502  6.95852689
  6.90535876  6.85219063  6.7970533   6.74585436  6.69268623  6.64148729
  6.59028835  6.54302779  6.49773642  6.45638342  6.42290719  6.39533853
  6.37564663  6.36383149  6.3618623   6.36580068  6.37367744  6.3815542
  6.38352339  6.37761582  6.35792392  6.31854012  6.25946442  6.18069682
  6.0861757   5.97787024  5.86562641  5.75535177  5.65295388  5.56630952
  5.49738787  5.45012731  5.42255865  5.40877432  5.40483594  5.40286675
  5.3930208   5.36545214  5.31622238  5.23942397  5.12914933  4.98539846
  4.81210973  4.61125235  4.38873387  4.15243106  3.9082515   3.66604112
  3.42973831  3.20918903  3.00833164  2.83110454  2.68144609  2.56329469
  2.47861952  2.42545139  2.40575949  2.41954382  2.46680438  2.54360279
  2.65387743  2.79565912]",,7.796811093629088,5.021724999999999,0.09280000000000221
021,1,1,csm,3b.png,1,1,160,151,161,1,0,402,neu_feedback_onset,12,"[ -0.48165125  -0.27545588  -0.07630991   0.10697487   0.26382434
   0.38542675   0.46473266   0.50174209   0.49469267   0.44534677
   0.35899144   0.24443845   0.10873722  -0.03401343  -0.17676407
  -0.30717824  -0.41644417  -0.49751244  -0.54685834  -0.56271952
  -0.54685834  -0.5027995   -0.43759241  -0.36181121  -0.28250529
  -0.21201115  -0.15914054  -0.12918052  -0.12918052  -0.16090289
  -0.22258527  -0.3124653   -0.42525594  -0.55390775  -0.69137134
  -0.82883493  -0.96101145  -1.0808515   -1.18130566  -1.26061157
  -1.31876924  -1.35225396  -1.36459044  -1.35754102  -1.33463043
  -1.29938335  -1.25532451  -1.20950332  -1.16720683  -1.1301974
  -1.1037621   -1.09318797  -1.09671268  -1.11786093  -1.15663271
  -1.21126567  -1.27999746  -1.35930338  -1.44565871  -1.53025168
  -1.6095576   -1.67476468  -1.72058588  -1.73997177  -1.72939765
  -1.6853388   -1.60603289  -1.49676696  -1.35754102  -1.19364213
  -1.01564441  -0.82707257  -0.64026308  -0.46050301  -0.29484177
  -0.15385347  -0.04106284   0.03648072   0.07701485   0.0752525
   0.03119366  -0.05339932  -0.17852643  -0.33890061  -0.52747245
  -0.73719254  -0.96101145  -1.19011743  -1.4192234   -1.64304232
  -1.85452475  -2.05367072  -2.23871785  -2.40966616  -2.56827799
  -2.71631569  -2.85377928  -2.9824311   -3.10227115  -3.21506178
  -3.31727829  -3.40892068  -3.48998895  -3.56224545  -3.62216547
  -3.67327373  -3.71733257  -3.75610435  -3.79311378  -3.83188556
  -3.8759444   -3.92352795  -3.97816091  -4.03984329  -4.10505038
  -4.17378217  -4.24251396  -4.30772105  -4.36764107  -4.42403639
  -4.47161994  -4.51215407  -4.5491635   -4.58088586  -4.60908352
  -4.63551883  -4.66019178  -4.68486473  -4.70777533  -4.72716122
  -4.74478475  -4.75712123  -4.76240829  -4.75888358  -4.74654711
  -4.72363651  -4.68838944  -4.64080589  -4.58264822  -4.51215407
  -4.43284816  -4.34473047  -4.24956338  -4.15263393  -4.05217977
  -3.95348796  -3.85655851  -3.76491612  -3.68032315  -3.60101723
  -3.53052308  -3.465316    -3.40539597  -3.35076301  -3.30141711
  -3.25559591  -3.21682413  -3.18686412  -3.16571588  -3.15866646
  -3.16571588  -3.18862647  -3.23092296  -3.29260534  -3.36838655
  -3.45826658  -3.5604831   -3.66798667  -3.7772526   -3.88828088
  -3.99578445  -4.10152567  -4.20550454  -4.3094834   -4.41698697
  -4.53330232  -4.66195413  -4.80999184  -4.98094015  -5.18361082
  -5.41976621  -5.69469338  -6.01015468  -6.36791247  -6.76444205
  -7.1997434   -7.66148006  -8.14436496  -8.63429928  -9.11365947
  -9.56658436  -9.97721277 -10.32439644 -10.5957989  -10.77555897
 -10.85486489 -10.83195429 -10.70506483 -10.48477062 -10.17812108
  -9.8009774   -9.37096311  -8.90570174  -8.42457919  -7.93993194
  -7.47290822  -7.03055745  -6.62874082  -6.27450773  -5.96962055
  -5.72112868  -5.52903213  -5.38804384  -5.2946391   -5.24529319
  -5.23295672  -5.25058025  -5.29111439  -5.35103441  -5.42505327
  -5.50612154  -5.59423922  -5.68764396  -5.78281106  -5.87974051
  -5.97666996  -6.07536177  -6.17405357  -6.27098302  -6.36967483
  -6.46836663  -6.56529608  -6.66222554  -6.75915499  -6.85255973
  -6.94243977  -7.02703274  -7.10281395  -7.16625868  -7.21384223
  -7.23851518  -7.23499047  -7.19621869  -7.11691278  -6.99178567
  -6.81907501  -6.59701845  -6.32737834  -6.01191704  -5.6594463
  -5.27349085  -4.8646248   -4.43813522  -4.00459622  -3.56929486
  -3.14104293  -2.72688982  -2.33388495  -1.96731539  -1.63246819]","[-6.05104663 -5.41991562 -4.76378933 -4.08891657 -3.40154617 -2.705844
 -2.00597596 -1.30610791 -0.61248869  0.06654995  0.72892507  1.36213901
  1.95786003  2.51192223  3.01391092  3.45966021  3.85333599  4.19077236
  4.48030111  4.73025398  4.94479687  5.1364274   5.30931147  5.47386378
  5.63008433  5.78422193  5.93419366  6.08416538  6.23413711  6.38827471
  6.5465782   6.71946227  6.90900986  7.12146981  7.36309092  7.6338732
  7.93381664  8.2650042   8.62118705  9.00236518  9.40020684  9.81262908
 10.23546602 10.66663473 11.10196932 11.53938684 11.97680437 12.4142219
 12.84539061 13.27031049 13.68481568 14.07640851 14.44300606 14.77002773
 15.04705884 15.25951878 15.39490992 15.44073461 15.3886611  15.23035761
 14.96790709 14.60755837 14.15764319 13.63690804 13.06618231 12.46837836
 11.86849146 11.29568279 10.77494764 10.32503247  9.96468374  9.71264793
  9.57309091  9.55017856  9.64599383  9.85012201 10.1521484  10.53332653
 10.972827   11.4498204  11.93931144 12.42047072 12.87455178 13.28697402
 13.64940568 13.95559795 14.20971671 14.41801077 14.59089484 14.73878363
 14.87625771 15.0095659  15.14912293 15.29284583 15.44073461 15.58237457
 15.70943395 15.80733216 15.85732273 15.85107391 15.77192217 15.61778456
 15.38241227 15.06788824 14.68671011 14.24720964 13.76605036 13.25781285
 12.73916064 12.22884019 11.73310032 11.26652162 10.8291041  10.4291795
 10.06049901  9.72514557  9.41687036  9.1315075   8.86280816  8.61077234
  8.36706829  8.12961306  7.89840665  7.66928319  7.4443256   7.22145096
  7.00065925  6.78403343  6.57365643  6.37369413  6.18414653  6.01542834
  5.86753956  5.75089488  5.6696602   5.63216727  5.63841609  5.69465549
  5.79880252  5.94460836]",-0.0926932752043778,13.461003706592814,5.67423,-0.4306650000000003
021,1,1,csm,46b.png,1,1,212,228,211,1,1,485,neu_feedback_onset,13,"[ 0.25382696  0.19711678  0.13845107  0.07587431  0.01134204 -0.05514576
 -0.11772252 -0.1744327  -0.22332079 -0.25460917 -0.26829783 -0.26047574
 -0.22527632 -0.16856613 -0.08838967  0.00938651  0.11889583  0.23427172
  0.34573657  0.45133484  0.54519997  0.62342091  0.68795319  0.73879681
  0.78181832  0.82288432  0.86786136  0.92261602  0.99497039  1.08296895
  1.1944338   1.32545388  1.47211814  1.6344266   1.80651268  1.9825098
  2.16046244  2.33645956  2.50463459  2.66889857  2.82534046  2.97591577
  3.12258004  3.26142221  3.39635334  3.5254179   3.6505714   3.76790282
  3.87936766  3.98496593  4.08078659  4.17074067  4.25482819  4.33304913
  4.4054035   4.47580235  4.54424568  4.61073348  4.67722128  4.74175356
  4.80237479  4.85517392  4.90015097  4.93143934  4.94317249  4.93339487
  4.90015097  4.83757421  4.74762013  4.63224424  4.49340206  4.3389157
  4.17465172  4.00647669  3.84025719  3.68185978  3.53519551  3.40026439
  3.28097745  3.17537918  3.08346957  3.00720415  2.94462739  2.89573931
  2.86445093  2.84685122  2.84685122  2.86053988  2.88987273  2.92702768
  2.97200472  3.01698177  3.06000329  3.09520271  3.11866899  3.13040213
  3.12649109  3.10693585  3.07564747  3.03262596  2.97982682  2.92311664
  2.8624954   2.80187417  2.74320847  2.69040933  2.64152124  2.60045525
  2.56916687  2.54570059  2.5300564   2.52614535  2.53201192  2.54570059
  2.57112239  2.60241077  2.64543229  2.69432038  2.75298608  2.81947389
  2.89378378  2.9778713   3.06782538  3.16755708  3.2770664   3.39244229
  3.51368475  3.64079379  3.77181387  3.90478947  4.03580955  4.16291858
  4.28611656  4.40149246  4.50904625  4.60877795  4.70068756  4.78868612
  4.87277364  4.95881667  5.04877076  5.14850246  5.26192283  5.38903186
  5.5337406   5.69409354  5.86813513  6.04999883  6.23186252  6.40394859
  6.55647943  6.67772189  6.75789836  6.78918674  6.76767598  6.69141056
  6.55843496  6.37657126  6.14973053  5.88964589  5.60218393  5.30298882
  4.99792715  4.69873204  4.40931455  4.13749677  3.88914528  3.66230455
  3.46284114  3.28684402  3.13822423  3.01307072  2.91138349  2.83120703
  2.77449684  2.73538637  2.71583114  2.71387561  2.7295198   2.75689713
  2.79991865  2.85076226  2.91138349  2.9778713   3.0443591   3.11280242
  3.17537918  3.23208936  3.28097745  3.32008792  3.34550973  3.35919839
  3.35919839  3.34746525  3.32595449  3.29466611  3.25360012  3.20862308
  3.15973499  3.10889137  3.06000329  3.01502624  2.97591577  2.94267187
  2.91529454  2.89378378  2.87813959  2.86053988  2.84294017  2.81751836
  2.78427446  2.7373419   2.67867619  2.60632182  2.52418983  2.43228022
  2.33645956  2.24063891  2.15068482  2.07050836  2.00206503  1.9492659
  1.91406647  1.89451124  1.89451124  1.91015543  1.94535485  1.99815399
  2.06855283  2.16046244  2.26997176  2.39903632  2.54961163  2.71583114
  2.89965035  3.09715823  3.30053268  3.50977371  3.71510368  3.90870052
  4.08860868  4.24113952  4.36433751  4.45038054  4.49340206  4.49340206
  4.44842502  4.36433751  4.24896162  4.11011944  3.96345518  3.82265748
  3.70141502  3.60950541  3.56061732  3.55475075  3.59581674  3.68185978
  3.80701329  3.9654107 ]","[-0.65302922 -0.62959408 -0.59894812 -0.55928865 -0.51061567 -0.45112646
 -0.38262374 -0.30510751 -0.21857776 -0.1266399  -0.02929393  0.07346015
  0.17801694  0.28617913  0.39253861  0.4988981   0.60525758  0.70801166
  0.81076574  0.91171712  1.0126685   1.11361987  1.21637395  1.32273344
  1.43450103  1.55708485  1.68868218  1.83109573  1.98973361  2.16099041
  2.34486613  2.54316347  2.74867163  2.96139061  3.17771498  3.39043396
  3.59774482  3.79423946  3.97631248  4.13855576  4.27916661  4.39453961
  4.48287207  4.54055857  4.56759911  4.56219101  4.52253154  4.45042341
  4.34766933  4.2142693   4.05202601  3.86454489  3.65543132  3.42829072
  3.1849258   2.93074465  2.66754999  2.39714452  2.12313364  1.84732006
  1.57150647  1.2992983   1.02889282  0.76389546  0.50791161  0.26274398
  0.02839257 -0.19153721 -0.39884807 -0.59354001 -0.77921844 -0.96309416
 -1.14696988 -1.34166182 -1.55077539 -1.78152139 -2.03570254 -2.31692423
 -2.61977836 -2.94065952 -3.2705542  -3.60405428 -3.93214625 -4.2458166
 -4.54145992 -4.81186539 -5.05883572 -5.28056821 -5.48066826 -5.66093858
 -5.82678727 -5.97821433 -6.12423329 -6.26304143 -6.39824417 -6.5298415
 -6.65783342 -6.78402264 -6.90840916 -7.02558486 -7.13735246 -7.23830384
 -7.32663629 -7.40054712 -7.45282551 -7.48347147 -7.48527417 -7.45823362
 -7.40054712 -7.31221467 -7.19503896 -7.04902001 -6.88136861 -6.69569019
 -6.49559014 -6.28647657 -6.07015219 -5.85202511 -5.63389803 -5.41396825
 -5.19764387 -4.98312219 -4.77040322 -4.56309236 -4.36299231 -4.17010307
 -3.98622735 -3.81497055 -3.65633267 -3.51031372 -3.37871639 -3.25793527
 -3.14436498 -3.03800549 -2.931646   -2.82528652 -2.71351892 -2.59454051
 -2.46654859 -2.33134585]",5.179937501466664,3.062792657590039,5.113719999999999,0.06221999999999994
021,1,1,csm,53b.png,1,1,0,212,358,1,1,434,neu_feedback_onset,14,"[-3.45115083e-01 -2.68897909e-01 -1.88962824e-01 -1.09027738e-01
 -3.83874305e-02  2.48170555e-02  7.31498978e-02  1.06611096e-01
  1.25200651e-01  1.28918562e-01  1.21482740e-01  1.04752141e-01
  8.24446752e-02  6.01372095e-02  3.96886993e-02  2.48170555e-02
  1.55222782e-02  1.36633227e-02  1.36633227e-02  1.55222782e-02
  1.18043672e-02 -3.06727653e-03 -3.28105641e-02 -8.48613173e-02
 -1.61078492e-01 -2.65179998e-01 -3.99024792e-01 -5.58894963e-01
 -7.41072599e-01 -9.43698745e-01 -1.15747862e+00 -1.37497641e+00
 -1.58689734e+00 -1.78766453e+00 -1.96798321e+00 -2.12599442e+00
 -2.25426235e+00 -2.35278699e+00 -2.42342730e+00 -2.46618328e+00
 -2.48477283e+00 -2.48105492e+00 -2.46060641e+00 -2.42714521e+00
 -2.38253028e+00 -2.32862057e+00 -2.26913400e+00 -2.20407055e+00
 -2.13528920e+00 -2.06464889e+00 -1.99214963e+00 -1.92150932e+00
 -1.85458693e+00 -1.78952348e+00 -1.73189587e+00 -1.68170407e+00
 -1.63523018e+00 -1.59433316e+00 -1.55715405e+00 -1.51811599e+00
 -1.47721897e+00 -1.43074508e+00 -1.37311746e+00 -1.30433611e+00
 -1.22254207e+00 -1.12587638e+00 -1.01805696e+00 -8.99083814e-01
 -7.72674842e-01 -6.44406914e-01 -5.19856898e-01 -4.02742703e-01
 -2.96782241e-01 -2.11270289e-01 -1.49924759e-01 -1.16463560e-01
 -1.14604605e-01 -1.44347892e-01 -2.09411334e-01 -3.06077018e-01
 -4.32485990e-01 -5.84920339e-01 -7.55944242e-01 -9.39980834e-01
 -1.12587638e+00 -1.30991297e+00 -1.48093688e+00 -1.63708914e+00
 -1.77279289e+00 -1.88804812e+00 -1.97913694e+00 -2.04977725e+00
 -2.10368696e+00 -2.14272502e+00 -2.16875040e+00 -2.18548100e+00
 -2.19663473e+00 -2.20407055e+00 -2.20778847e+00 -2.20964742e+00
 -2.21150638e+00 -2.21150638e+00 -2.21150638e+00 -2.21150638e+00
 -2.21150638e+00 -2.20964742e+00 -2.20964742e+00 -2.20964742e+00
 -2.20964742e+00 -2.20964742e+00 -2.20778847e+00 -2.20778847e+00
 -2.20778847e+00 -2.20778847e+00 -2.20778847e+00 -2.20592951e+00
 -2.20592951e+00 -2.20407055e+00 -2.20221160e+00 -2.20035264e+00
 -2.19663473e+00 -2.18919891e+00 -2.18176309e+00 -2.17246831e+00
 -2.16317353e+00 -2.15573771e+00 -2.15387876e+00 -2.15945562e+00
 -2.17990413e+00 -2.22080115e+00 -2.28400564e+00 -2.37509446e+00
 -2.49406761e+00 -2.63906614e+00 -2.80451317e+00 -2.98669081e+00
 -3.17630427e+00 -3.36219981e+00 -3.53508267e+00 -3.68751702e+00
 -3.81206704e+00 -3.90687377e+00 -3.96636034e+00 -3.99424467e+00
 -3.99238572e+00 -3.96821930e+00 -3.92546332e+00 -3.87341257e+00
 -3.81764390e+00 -3.76187524e+00 -3.71168344e+00 -3.66892747e+00
 -3.63360731e+00 -3.60386402e+00 -3.57597969e+00 -3.54251849e+00
 -3.49418565e+00 -3.42354534e+00 -3.31944384e+00 -3.17072740e+00
 -2.96996021e+00 -2.70598853e+00 -2.37695341e+00 -1.98099590e+00
 -1.51997494e+00 -1.00132636e+00 -4.36203901e-01  1.62379760e-01
  7.75835066e-01  1.39114933e+00  1.99345090e+00  2.56600919e+00
  3.10138836e+00  3.59401156e+00  4.04016087e+00  4.44169526e+00
  4.80233262e+00  5.12764982e+00  5.42322374e+00  5.69463124e+00
  5.94930814e+00  6.19283131e+00  6.42520074e+00  6.65013436e+00
  6.87135006e+00  7.08884785e+00  7.30448668e+00  7.51826656e+00
  7.73390540e+00  7.95140319e+00  8.17075993e+00  8.39011668e+00
  8.60761447e+00  8.81767644e+00  9.01658467e+00  9.19690335e+00
  9.35305561e+00  9.47760563e+00  9.56869445e+00  9.62260415e+00
  9.64491162e+00  9.63747580e+00  9.60587356e+00  9.56311758e+00
  9.51292578e+00  9.46645190e+00  9.42927279e+00  9.40510636e+00
  9.39395263e+00  9.39209368e+00  9.39767054e+00  9.39952950e+00
  9.39209368e+00  9.36978621e+00  9.32517128e+00  9.25267202e+00
  9.15600633e+00  9.02959736e+00  8.87902197e+00  8.70799806e+00
  8.51838460e+00  8.31389950e+00  8.10011962e+00  7.87890392e+00
  7.65211136e+00  7.42345983e+00  7.19294935e+00  6.96057992e+00
  6.72821049e+00  6.49398210e+00  6.26161266e+00  6.02924323e+00
  5.79501484e+00  5.56264541e+00  5.33027597e+00  5.09604758e+00
  4.86367815e+00  4.62944976e+00  4.39708032e+00  4.16471089e+00
  3.93048250e+00  3.69811307e+00  3.46388468e+00  3.23151524e+00
  2.99914581e+00  2.76491742e+00  2.53254799e+00  2.30017855e+00
  2.06595016e+00  1.83358073e+00  1.59935234e+00  1.36698291e+00
  1.13461347e+00  9.00385083e-01  6.68015649e-01  4.35646215e-01
  2.03276781e-01 -2.90926531e-02 -2.61462087e-01 -4.91972566e-01]","[ 2.28580939e-01  2.62221821e-01  2.90550985e-01  3.11797857e-01
  3.22421294e-01  3.18880148e-01  2.95862703e-01  2.51598385e-01
  1.87857766e-01  1.02870275e-01  3.71820273e-03 -1.02516161e-01
 -2.06979952e-01 -2.97279161e-01 -3.66331497e-01 -4.03513525e-01
 -4.03513525e-01 -3.61019779e-01 -2.77802861e-01 -1.57403915e-01
 -5.13466091e-03  1.68381466e-01  3.56062175e-01  5.49054603e-01
  7.40276457e-01  9.24416021e-01  1.09970272e+00  1.26436598e+00
  1.42194696e+00  1.57244564e+00  1.72117375e+00  1.87167243e+00
  2.02394168e+00  2.18152266e+00  2.34441535e+00  2.51261976e+00
  2.68259474e+00  2.85434029e+00  3.02077413e+00  3.18012568e+00
  3.32531264e+00  3.45102330e+00  3.55371652e+00  3.62808058e+00
  3.67057432e+00  3.67765661e+00  3.65109802e+00  3.58912798e+00
  3.49351705e+00  3.36957696e+00  3.22084885e+00  3.04910329e+00
  2.86142258e+00  2.66134787e+00  2.45242028e+00  2.23818098e+00
  2.01862997e+00  1.79730838e+00  1.57421621e+00  1.34935348e+00
  1.12626131e+00  9.03169148e-01  6.81847557e-01  4.60525966e-01
  2.40974948e-01  2.49650755e-02 -1.85733079e-01 -3.92890088e-01
 -5.94735379e-01 -7.91268952e-01 -9.78949661e-01 -1.16131865e+00
 -1.33837592e+00 -1.50835091e+00 -1.67655532e+00 -1.84298915e+00
 -2.00942299e+00 -2.17585682e+00 -2.34406123e+00 -2.51403622e+00
 -2.68401120e+00 -2.85575675e+00 -3.02750231e+00 -3.19747729e+00
 -3.36214055e+00 -3.52149210e+00 -3.67199078e+00 -3.81363660e+00
 -3.94111783e+00 -4.05443449e+00 -4.14650427e+00 -4.21909775e+00
 -4.26513264e+00 -4.28460894e+00 -4.27575608e+00 -4.24034462e+00
 -4.17660401e+00 -4.08807537e+00 -3.98184101e+00 -3.85967149e+00
 -3.72864911e+00 -3.59762672e+00 -3.47191606e+00 -3.35682883e+00
 -3.25944733e+00 -3.18331271e+00 -3.13196610e+00 -3.10363693e+00
 -3.09832522e+00 -3.11248980e+00 -3.14258953e+00 -3.18508328e+00
 -3.23465932e+00 -3.28600592e+00 -3.33558196e+00 -3.37807571e+00
 -3.41348716e+00 -3.43827518e+00 -3.45243976e+00 -3.45421033e+00
 -3.44358690e+00 -3.42234002e+00 -3.39224029e+00 -3.35151712e+00
 -3.30371165e+00 -3.24705332e+00 -3.18685385e+00 -3.12134266e+00
 -3.05229032e+00 -2.98500856e+00 -2.91772680e+00 -2.85398618e+00
 -2.79555728e+00 -2.74421067e+00 -2.69994635e+00 -2.66630547e+00
 -2.64151745e+00 -2.62735287e+00 -2.62381172e+00 -2.62912344e+00]",8.671701957387166,2.318033814397937,5.379365,
021,2,1,csp,24a.png,1,1,280,300,280,1,0,NaN,neg_feedback_onset,1,"[-0.73982522 -0.76077355 -0.74855369 -0.70141995 -0.61937232 -0.50590219
 -0.36624665 -0.20738848 -0.03805613  0.13127621  0.29013438  0.42455284
  0.5292945   0.59388518  0.61483351  0.59563088  0.53627727  0.44375548
  0.32853966  0.19935828  0.06493983 -0.06773294 -0.19167723 -0.30514735
 -0.40639762 -0.50066511 -0.58794982 -0.67348884 -0.75902786 -0.85154965
 -0.95279992 -1.06103296 -1.17799448 -1.30193877 -1.43112014 -1.56204721
 -1.69471997 -1.82390135 -1.94784564 -2.06131576 -2.16431173 -2.25159644
 -2.32142421 -2.37030365 -2.39823475 -2.39998045 -2.38077781 -2.33713546
 -2.27079907 -2.18526006 -2.08400979 -1.97053966 -1.84834107 -1.72439678
 -1.60045248 -1.48523666 -1.38049501 -1.2914646  -1.22338253 -1.17974017
 -1.16053753 -1.1710117  -1.20941697 -1.27575335 -1.37002084 -1.48698236
 -1.62314651 -1.77502191 -1.93562578 -2.10146673 -2.26905338 -2.43140294
 -2.58851543 -2.73689944 -2.88004637 -3.01446482 -3.14539189 -3.27457327
 -3.40026325 -3.52769893 -3.6568803  -3.78606168 -3.91524305 -4.04267873
 -4.16487733 -4.28009315 -4.38134342 -4.46513674 -4.52972743 -4.57162409
 -4.58908103 -4.58209825 -4.55067576 -4.49830493 -4.42673147 -4.33944675
 -4.24168788 -4.13520053 -4.02522179 -3.91524305 -3.80351862 -3.69703127
 -3.59578101 -3.49976782 -3.4159745  -3.34265534 -3.28330174 -3.24140507
 -3.21696535 -3.20998258 -3.22045674 -3.24664216 -3.28853882 -3.33916395
 -3.39677186 -3.45787116 -3.51722477 -3.5678499  -3.60800087 -3.6289492
 -3.6272035  -3.5975267  -3.5364274  -3.44041422 -3.30774146 -3.13666342
 -2.93241719 -2.69500278 -2.43140294 -2.15034617 -1.85881523 -1.56728429
 -1.28622752 -1.02437338 -0.78870466 -0.58620413 -0.42210887 -0.29816458
 -0.21437125 -0.16723751 -0.15501765 -0.17247459 -0.21437125 -0.27721625
 -0.35577249 -0.4430572  -0.53907038 -0.63682926 -0.73458814 -0.83060132
 -0.92312312 -1.00517075 -1.0802356  -1.14308059 -1.19370572 -1.23385669
 -1.26004211 -1.27400766 -1.27575335 -1.26702488 -1.24782225 -1.21639975
 -1.1710117  -1.11340379 -1.04008463 -0.95105422 -0.84805826 -0.73109675
 -0.60191538 -0.46749692 -0.33133277 -0.2004057  -0.08344418  0.0108233
  0.07890538  0.11381926  0.11032788  0.0719226  -0.00488794 -0.11137529
 -0.24579375 -0.39592345 -0.55827302 -0.72236828 -0.88297215 -1.03135616
 -1.16752031 -1.28797321 -1.39096917 -1.47825389 -1.55157305 -1.61267234
 -1.66504317 -1.71043122 -1.74883649 -1.78200469 -1.81168149 -1.84135829
 -1.8675437  -1.89547481 -1.92340592 -1.95482842 -1.98799661 -2.02465619
 -2.06655285 -2.1119409  -2.15907464 -2.20795408 -2.25508783 -2.29698449
 -2.33364407 -2.36157517 -2.37554073 -2.37728642 -2.36332087 -2.33189837
 -2.28476463 -2.22191964 -2.14336339 -2.05433299 -1.95482842 -1.85008676
 -1.74185372 -1.63362067 -1.52887902 -1.42937445 -1.33685265 -1.25131363
 -1.17450309 -1.10467532 -1.04183033 -0.98247672 -0.93010589 -0.87948076
 -0.83409271 -0.79045035 -0.75204508 -0.71887689 -0.69443717 -0.67872592
 -0.67523453 -0.68396301 -0.70665703 -0.73982522 -0.78346758 -0.83409271
 -0.88646354 -0.94058006 -0.99120519 -1.03659324 -1.0802356  -1.12387796
 -1.17275739 -1.2303653  -1.30368446 -1.39795195 -1.51491347 -1.65980609
 -1.82913843 -2.0194191 ]","[nan nan nan nan nan nan nan nan nan nan nan nan nan nan nan nan nan nan
 nan nan nan nan nan nan nan nan nan nan nan nan nan nan nan nan nan nan
 nan nan nan nan nan nan nan nan nan nan nan nan nan nan nan nan nan nan
 nan nan nan nan nan nan nan nan nan nan nan nan nan nan nan nan nan nan
 nan nan nan nan nan nan nan nan nan nan nan nan nan nan nan nan nan nan
 nan nan nan nan nan nan nan nan nan nan nan nan nan nan nan nan nan nan
 nan nan nan nan nan nan nan nan nan nan nan nan nan nan nan nan nan nan
 nan nan nan nan nan nan nan nan nan nan nan nan nan nan]",-0.2580136094323432,,5.7283800000000005,
021,2,1,csp,26a.png,1,1,224,211,219,1,1,312,pos_feedback_onset,2,"[-3.97773893e-01 -4.12043809e-01 -4.03125111e-01 -3.76369020e-01
 -3.35343013e-01 -2.81830830e-01 -2.17616211e-01 -1.46266633e-01
 -6.95658378e-02  1.24861760e-02  9.63219293e-02  1.78373943e-01
  2.53290999e-01  3.13938140e-01  3.56747886e-01  3.72801541e-01
  3.62099105e-01  3.17505619e-01  2.40804823e-01  1.35564197e-01
  5.35121829e-03 -1.42699155e-01 -2.97884485e-01 -4.51286076e-01
 -5.95768970e-01 -7.25981949e-01 -8.34790054e-01 -9.22193286e-01
 -9.89975384e-01 -1.04170383e+00 -1.08094610e+00 -1.11662088e+00
 -1.15407941e+00 -1.19867290e+00 -1.25575256e+00 -1.33066962e+00
 -1.42342407e+00 -1.53401591e+00 -1.66601263e+00 -1.81584674e+00
 -1.97995077e+00 -2.15654097e+00 -2.34383361e+00 -2.53826121e+00
 -2.73625629e+00 -2.93425136e+00 -3.13224644e+00 -3.32845778e+00
 -3.52110164e+00 -3.70839428e+00 -3.89211944e+00 -4.06692590e+00
 -4.23281367e+00 -4.38443152e+00 -4.51999572e+00 -4.63237130e+00
 -4.71799080e+00 -4.77150298e+00 -4.78934037e+00 -4.76971924e+00
 -4.71263958e+00 -4.61810139e+00 -4.49502337e+00 -4.34875673e+00
 -4.18643645e+00 -4.01876494e+00 -3.85466091e+00 -3.69947558e+00
 -3.56034390e+00 -3.43904962e+00 -3.33737648e+00 -3.25354072e+00
 -3.18932610e+00 -3.13938140e+00 -3.10192287e+00 -3.07873426e+00
 -3.06624808e+00 -3.06803182e+00 -3.08943670e+00 -3.13046270e+00
 -3.20181228e+00 -3.30526917e+00 -3.44796832e+00 -3.63169348e+00
 -3.85644465e+00 -4.12400557e+00 -4.42724127e+00 -4.75901680e+00
 -5.11219721e+00 -5.47608005e+00 -5.83996290e+00 -6.19314331e+00
 -6.52848632e+00 -6.83707324e+00 -7.11355285e+00 -7.35792515e+00
 -7.57019015e+00 -7.75391531e+00 -7.91445186e+00 -8.05715101e+00
 -8.18914773e+00 -8.31757697e+00 -8.44600621e+00 -8.57621919e+00
 -8.71356712e+00 -8.85448254e+00 -9.00074917e+00 -9.14523206e+00
 -9.28793122e+00 -9.42349542e+00 -9.54835718e+00 -9.66073276e+00
 -9.76062217e+00 -9.84267418e+00 -9.91224002e+00 -9.96753594e+00
 -1.00103457e+01 -1.00406693e+01 -1.00602904e+01 -1.00674254e+01
 -1.00602904e+01 -1.00371018e+01 -9.99250829e+00 -9.92472620e+00
 -9.82840427e+00 -9.70354251e+00 -9.54835718e+00 -9.36463201e+00
 -9.15415076e+00 -8.92048090e+00 -8.66897364e+00 -8.40319646e+00
 -8.13028433e+00 -7.85023724e+00 -7.56483893e+00 -7.27587314e+00
 -6.98155613e+00 -6.68188791e+00 -6.37151725e+00 -6.05401163e+00
 -5.73115479e+00 -5.40651422e+00 -5.08722486e+00 -4.78042168e+00
 -4.49502337e+00 -4.24173237e+00 -4.02768364e+00 -3.85644465e+00
 -3.73336663e+00 -3.65666583e+00 -3.62277479e+00 -3.62634226e+00
 -3.66023331e+00 -3.71374550e+00 -3.77617638e+00 -3.83860726e+00
 -3.89211944e+00 -3.92957797e+00 -3.94384788e+00 -3.93136171e+00
 -3.89390318e+00 -3.83325604e+00 -3.75120402e+00 -3.65666583e+00
 -3.55677643e+00 -3.46045450e+00 -3.37661874e+00 -3.30883665e+00
 -3.26424316e+00 -3.24462203e+00 -3.24997324e+00 -3.27851307e+00
 -3.32667404e+00 -3.38732118e+00 -3.45510328e+00 -3.52466912e+00
 -3.59245121e+00 -3.65309836e+00 -3.70482680e+00 -3.74942028e+00
 -3.78687881e+00 -3.81720238e+00 -3.84217474e+00 -3.86536335e+00
 -3.88676822e+00 -3.90638935e+00 -3.92601049e+00 -3.94563162e+00
 -3.96703650e+00 -3.99022511e+00 -4.01519746e+00 -4.04195355e+00
 -4.07584460e+00 -4.11330313e+00 -4.15789661e+00 -4.20784132e+00
 -4.26492098e+00 -4.32735186e+00 -4.39335022e+00 -4.46113232e+00
 -4.52891442e+00 -4.59312904e+00 -4.65199244e+00 -4.70550462e+00
 -4.75009811e+00 -4.78755663e+00 -4.81609646e+00 -4.83928508e+00
 -4.85533873e+00 -4.86604117e+00 -4.87317613e+00 -4.87674361e+00
 -4.87852734e+00 -4.87674361e+00 -4.87317613e+00 -4.86782491e+00
 -4.86068995e+00 -4.85177125e+00 -4.84642003e+00 -4.84106882e+00
 -4.84106882e+00 -4.84642003e+00 -4.85890621e+00 -4.87852734e+00
 -4.90885092e+00 -4.94809318e+00 -4.99268667e+00 -5.04441511e+00
 -5.09435982e+00 -5.14252078e+00 -5.18176305e+00 -5.20495166e+00
 -5.20495166e+00 -5.17462809e+00 -5.11041347e+00 -5.00517284e+00
 -4.85890621e+00 -4.66804609e+00 -4.43794371e+00 -4.17395027e+00
 -3.87963326e+00 -3.56747886e+00 -3.24105455e+00 -2.91463023e+00
 -2.58998965e+00 -2.27783525e+00 -1.98173451e+00 -1.70525490e+00
 -1.44661268e+00 -1.21115907e+00 -9.98894082e-01 -8.08033962e-01
 -6.42146195e-01 -5.01230780e-01 -3.88855196e-01 -3.06803182e-01
 -2.53290999e-01 -2.31886126e-01 -2.40804823e-01 -2.76479612e-01]","[-4.85415479e-01 -4.39538335e-01 -3.79545146e-01 -3.10729429e-01
 -2.36620195e-01 -1.64275468e-01 -9.72242563e-02 -4.07600784e-02
  5.11706612e-03  3.68781662e-02  5.98167385e-02  7.56972885e-02
  8.80488274e-02  1.03929377e-01  1.28632455e-01  1.67451578e-01
  2.25680261e-01  3.06847517e-01  4.12717850e-01  5.43291262e-01
  6.98567751e-01  8.75018307e-01  1.06911392e+00  1.27379656e+00
  1.48200822e+00  1.68845537e+00  1.88255098e+00  2.06076604e+00
  2.21427803e+00  2.33779342e+00  2.42601869e+00  2.47895386e+00
  2.49130540e+00  2.47013133e+00  2.41190265e+00  2.32720638e+00
  2.21427803e+00  2.08370461e+00  1.93548615e+00  1.77668065e+00
  1.61081712e+00  1.43789558e+00  1.26320953e+00  1.08499447e+00
  9.06779407e-01  7.28564345e-01  5.48584778e-01  3.68605211e-01
  1.90390150e-01  1.04105828e-02 -1.69568984e-01 -3.47784046e-01
 -5.27763613e-01 -7.07743180e-01 -8.87722747e-01 -1.06593781e+00
 -1.24591738e+00 -1.42589694e+00 -1.60411200e+00 -1.78409157e+00
 -1.96407114e+00 -2.14228620e+00 -2.32226577e+00 -2.50224533e+00
 -2.68046039e+00 -2.86043996e+00 -3.04041953e+00 -3.21863459e+00
 -3.39861416e+00 -3.57682922e+00 -3.75504428e+00 -3.93325934e+00
 -4.11147440e+00 -4.28792496e+00 -4.46261101e+00 -4.63729706e+00
 -4.81198311e+00 -4.98490465e+00 -5.15959071e+00 -5.33604126e+00
 -5.51602083e+00 -5.69776490e+00 -5.88480249e+00 -6.07536909e+00
 -6.26946470e+00 -6.46532482e+00 -6.65942043e+00 -6.85175154e+00
 -7.03702462e+00 -7.21347518e+00 -7.38110320e+00 -7.53814420e+00
 -7.68459816e+00 -7.81870058e+00 -7.94221597e+00 -8.05690883e+00
 -8.15925016e+00 -8.25100444e+00 -8.32864269e+00 -8.38863588e+00
 -8.42745500e+00 -8.44333555e+00 -8.42921951e+00 -8.38157786e+00
 -8.30217511e+00 -8.19101126e+00 -8.04985081e+00 -7.88575179e+00
 -7.70753673e+00 -7.52402815e+00 -7.34581309e+00 -7.18347858e+00
 -7.04408264e+00 -6.93644780e+00 -6.86057406e+00 -6.81822593e+00
 -6.80763890e+00 -6.82175494e+00 -6.85704505e+00 -6.90468670e+00
 -6.95938638e+00 -7.01232154e+00 -7.06172770e+00 -7.10054682e+00
 -7.12877891e+00 -7.14289495e+00 -7.14465946e+00 -7.13407243e+00
 -7.11466286e+00 -7.08466627e+00 -7.04761165e+00 -7.00526352e+00
 -6.95762187e+00 -6.90821571e+00 -6.85528055e+00 -6.79881637e+00
 -6.74058769e+00 -6.67882999e+00 -6.61177878e+00 -6.54119856e+00]",-0.33722868049148663,1.195187840439298,5.606199999999999,0.2076349999999989
021,2,1,csm,11b.png,1,1,344,338,NaN,0,1,551,neu_feedback_onset,3,"[-1.18989187e-02 -5.46606577e-02 -9.92816028e-02 -1.42043342e-01
 -1.82945875e-01 -2.20129996e-01 -2.46158880e-01 -2.59173323e-01
 -2.59173323e-01 -2.42440468e-01 -2.07115553e-01 -1.53198578e-01
 -8.44079544e-02 -2.60288846e-03  9.22166198e-02  1.94472952e-01
  3.04166109e-01  4.13859266e-01  5.25411628e-01  6.35104785e-01
  7.41079529e-01  8.41476656e-01  9.38155370e-01  1.02925647e+00
  1.11292074e+00  1.18914819e+00  1.25979802e+00  1.32487023e+00
  1.38064641e+00  1.43084497e+00  1.47546592e+00  1.51265004e+00
  1.54797495e+00  1.57958146e+00  1.61118796e+00  1.64279446e+00
  1.67626017e+00  1.71344429e+00  1.75620603e+00  1.80454539e+00
  1.86032157e+00  1.92539378e+00  1.99790282e+00  2.07970788e+00
  2.17080898e+00  2.26934690e+00  2.37718085e+00  2.49431083e+00
  2.61887763e+00  2.75088126e+00  2.88846251e+00  3.03348058e+00
  3.18221707e+00  3.33653117e+00  3.49270448e+00  3.65073699e+00
  3.81062871e+00  3.97052043e+00  4.13041215e+00  4.28658546e+00
  4.43718115e+00  4.58219922e+00  4.71606205e+00  4.83505124e+00
  4.93544837e+00  5.01353502e+00  5.06001517e+00  5.07488882e+00
  5.05071914e+00  4.98750614e+00  4.88153139e+00  4.73651332e+00
  4.55245192e+00  4.33678402e+00  4.09136882e+00  3.82550236e+00
  3.54662145e+00  3.26030372e+00  2.97212678e+00  2.68766826e+00
  2.41250576e+00  2.14478009e+00  1.88820966e+00  1.64279446e+00
  1.40481609e+00  1.17427454e+00  9.51169812e-01  7.33642705e-01
  5.21693216e-01  3.15321345e-01  1.14527092e-01 -7.88303363e-02
 -2.61032529e-01 -4.32079485e-01 -5.90111999e-01 -7.31411658e-01
 -8.55978463e-01 -9.63812414e-01 -1.05863192e+00 -1.14415540e+00
 -1.22596047e+00 -1.31148394e+00 -1.41002186e+00 -1.52529264e+00
 -1.66473309e+00 -1.83206164e+00 -2.02913748e+00 -2.25596061e+00
 -2.50509422e+00 -2.77281989e+00 -3.04984160e+00 -3.32686330e+00
 -3.59458897e+00 -3.84186337e+00 -4.06124968e+00 -4.24531108e+00
 -4.38846995e+00 -4.48886707e+00 -4.54464326e+00 -4.55579849e+00
 -4.52976961e+00 -4.46655660e+00 -4.37359630e+00 -4.25646632e+00
 -4.11888507e+00 -3.96643018e+00 -3.80467925e+00 -3.63363229e+00
 -3.45886693e+00 -3.28038315e+00 -3.09818095e+00 -2.91597876e+00
 -2.73005816e+00 -2.54413755e+00 -2.35635774e+00 -2.16485952e+00
 -1.97150209e+00 -1.77628546e+00 -1.57549120e+00 -1.37283774e+00
 -1.16832508e+00 -9.58234795e-01 -7.46285306e-01 -5.32476611e-01
 -3.14949504e-01 -9.37039847e-02  1.29400741e-01  3.56223878e-01
  5.88624634e-01  8.24743801e-01  1.06458138e+00  1.31185579e+00
  1.56098940e+00  1.81570062e+00  2.07413026e+00  2.33627832e+00
  2.59842637e+00  2.86243363e+00  3.12830009e+00  3.39044814e+00
  3.65259620e+00  3.91102584e+00  4.16573706e+00  4.41487067e+00
  4.65656746e+00  4.88896822e+00  5.11207294e+00  5.32216322e+00
  5.51737986e+00  5.69400443e+00  5.85017774e+00  5.98218137e+00
  6.08629691e+00  6.15880594e+00  6.19784927e+00  6.20342689e+00
  6.17367959e+00  6.11418500e+00  6.02866152e+00  5.92268678e+00
  5.80183838e+00  5.67541237e+00  5.54712715e+00  5.42441956e+00
  5.31100799e+00  5.20875165e+00  5.11765056e+00  5.03770470e+00
  4.96519566e+00  4.90012345e+00  4.83876965e+00  4.78113426e+00
  4.72535808e+00  4.67144111e+00  4.62124254e+00  4.57476239e+00
  4.53571907e+00  4.50597177e+00  4.48737971e+00  4.48552050e+00
  4.50039415e+00  4.53571907e+00  4.58963604e+00  4.66400428e+00
  4.75882379e+00  4.86851695e+00  4.99122455e+00  5.12508738e+00
  5.26266863e+00  5.40210908e+00  5.53783112e+00  5.67169396e+00
  5.79626076e+00  5.91339075e+00  6.02122470e+00  6.11790341e+00
  6.20156768e+00  6.27407672e+00  6.33171211e+00  6.37447384e+00
  6.40050273e+00  6.41351717e+00  6.41165797e+00  6.39678432e+00
  6.37447384e+00  6.34658575e+00  6.31683846e+00  6.29080957e+00
  6.27035831e+00  6.26106228e+00  6.26292148e+00  6.27965434e+00
  6.31126084e+00  6.35774099e+00  6.41723558e+00  6.48788541e+00
  6.56783127e+00  6.65521396e+00  6.74259664e+00  6.82812012e+00
  6.90806598e+00  6.97871581e+00  7.03635120e+00  7.07725373e+00
  7.10142341e+00  7.10700103e+00  7.09584579e+00  7.06609849e+00
  7.02147755e+00  6.96384216e+00  6.89876995e+00  6.82626091e+00
  6.75189267e+00  6.67938364e+00  6.61431142e+00  6.55853524e+00
  6.51391430e+00  6.48602621e+00  6.47301177e+00  6.47673018e+00]","[-0.96459191 -0.88154638 -0.78044747 -0.66129519 -0.52950554 -0.38688386
 -0.24245685 -0.09802984  0.03737049  0.15832811  0.26123236  0.34427789
  0.40385403  0.4453768   0.47065153  0.48148355  0.48509423  0.48509423
  0.48509423  0.48689957  0.4887049   0.4887049   0.48509423  0.47245687
  0.4453768   0.40024336  0.33344587  0.24678966  0.13666406  0.00848509
 -0.13594193 -0.29120096 -0.45729203 -0.62699377 -0.79850085 -0.97000793
 -1.13970967 -1.30941141 -1.47730781 -1.64159354 -1.80587926 -1.97016499
 -2.13264538 -2.29332043 -2.45580082 -2.61828121 -2.77895626 -2.93963131
 -3.1021117  -3.26278676 -3.42526714 -3.5859422  -3.74661725 -3.90909764
 -4.06977269 -4.23225308 -4.39292813 -4.55360318 -4.71427824 -4.87495329
 -5.03562834 -5.19449805 -5.35336777 -5.51043214 -5.66388584 -5.81733955
 -5.96718257 -6.11341492 -6.2560366  -6.3950476  -6.53044792 -6.66223757
 -6.79041655 -6.91317951 -7.03413713 -7.15148408 -7.26522035 -7.37534595
 -7.48005553 -7.5793491  -7.66961599 -7.75085618 -7.82126435 -7.87722982
 -7.91694725 -7.9386113  -7.94222197 -7.92597393 -7.88806184 -7.83390171
 -7.75988287 -7.67142132 -7.56671174 -7.44936479 -7.32118582 -7.18217482
 -7.03233179 -6.87526742 -6.70737101 -6.5340586  -6.35171949 -6.16215904
 -5.96537723 -5.76317942 -5.55376025 -5.3407304  -5.12047921 -4.89661734
 -4.67095013 -4.44167225 -4.21058903 -3.98131114 -3.75022792 -3.52095004
 -3.29167216 -3.06239427 -2.83311639 -2.60203317 -2.36914461 -2.13084004
 -1.89253547 -1.65242556 -1.41773167 -1.19206446 -0.98264529 -0.79669551
 -0.63963113 -0.51506283 -0.43021196 -0.38327319 -0.37244116 -0.39229987
 -0.43743332 -0.4988148  -0.56561229 -0.63060445 -0.68476457 -0.71906599
 -0.73170335 -0.71726065]",6.658029326584948,-0.13354985349686702,5.37864,
021,2,1,csp,23a.png,1,1,332,253,332,1,1,539,pos_feedback_onset,4,"[-0.64959332 -0.52472299 -0.4069881  -0.29995638 -0.20184398 -0.11621861
 -0.03951254  0.02470649  0.07822235  0.12281889  0.15671227  0.1834702
  0.20487654  0.21736358  0.22628289  0.22806675  0.22271516  0.21201199
  0.19417337  0.16741544  0.13352207  0.09249324  0.04611283 -0.00561917
 -0.05913502 -0.11800247 -0.17865377 -0.24108894 -0.30709183 -0.37666245
 -0.44980079 -0.53007457 -0.61569995 -0.70846077 -0.80478931 -0.90646944
 -1.00993344 -1.11339743 -1.21686142 -1.31497383 -1.40951851 -1.49871161
 -1.58255312 -1.65925918 -1.7288298  -1.7894811  -1.84299696 -1.88759351
 -1.92327075 -1.94824481 -1.95894799 -1.95716412 -1.9393255  -1.90364827
 -1.85013241 -1.77699407 -1.68601711 -1.57720153 -1.45411506 -1.31854155
 -1.17940032 -1.03669136 -0.899334   -0.7726798  -0.65851263 -0.56575181
 -0.49261347 -0.44266534 -0.41590741 -0.41055582 -0.42839444 -0.46228782
 -0.51223595 -0.57467112 -0.6460256  -0.72451553 -0.80835704 -0.89576627
 -0.98317551 -1.0723686  -1.15977784 -1.24361935 -1.32746086 -1.40595079
 -1.48444071 -1.56293064 -1.64142056 -1.72169435 -1.81088744 -1.90543213
 -2.01067998 -2.12484715 -2.25150134 -2.38350713 -2.52264836 -2.66178959
 -2.7973631  -2.92223343 -3.03104901 -3.11667438 -3.17554183 -3.20586748
 -3.20408362 -3.17375796 -3.12024211 -3.0453199  -2.95612681 -2.86336599
 -2.7688213  -2.67962821 -2.60113828 -2.53156767 -2.47270022 -2.42096823
 -2.37458782 -2.32642354 -2.27290769 -2.21404024 -2.14268576 -2.06241198
 -1.97321888 -1.87689034 -1.77877793 -1.68244939 -1.58968856 -1.50763092
 -1.43627644 -1.37562513 -1.32924472 -1.29178362 -1.26502569 -1.24718707
 -1.2364839  -1.23113232 -1.23113232 -1.2364839  -1.24540321 -1.25789024
 -1.27572886 -1.29713521 -1.32389314 -1.35421879 -1.38811217 -1.42557327
 -1.46481823 -1.50763092 -1.55222746 -1.59860787 -1.64677215 -1.69493642
 -1.74310069 -1.78769724 -1.83050993 -1.86797103 -1.89651282 -1.91791916
 -1.92862233 -1.92862233 -1.91791916 -1.89829668 -1.86618716 -1.82515834
 -1.77699407 -1.71991049 -1.65747532 -1.58968856 -1.52011795 -1.44519575
 -1.37027355 -1.29356748 -1.21507756 -1.13658763 -1.05631385 -0.97782392
 -0.89755013 -0.81906021 -0.73878642 -0.6602965  -0.58002271 -0.49974892
 -0.421259   -0.34098521 -0.26071142 -0.1822215  -0.10194771 -0.02167392
  0.056816    0.13708979  0.21557971  0.2958535   0.37612729  0.45461721
  0.534891    0.61516479  0.69365471  0.7739285   0.85420229  0.93269221
  1.012966    1.09145593  1.17172971  1.2520035   1.33049343  1.41076721
  1.491041    1.56953092  1.64980471  1.7300785   1.80856842  1.88884221
  1.969116    2.04760592  2.12787971  2.20636964  2.28664342  2.36691721
  2.44540714  2.52568092  2.60595471  2.68444463  2.76471842  2.84499221
  2.92348213  3.00375592  3.08224585  3.16251963  3.24279342  3.32128335
  3.40155713  3.48004706  3.55853698  3.63524305  3.71194911  3.78508745
  3.85644193  3.92066096  3.97774454  4.02590881  4.06158605  4.08120853
  4.08656012  4.07228922  4.03839584  3.98844771  3.92244482  3.84395489
  3.7547618   3.66200098  3.56745629  3.47291161  3.38371851  3.29809314
  3.21960322  3.14646488  3.07867812  3.01445909  2.95559165  2.89672421
  2.83964062  2.78612477]","[-0.53903139 -0.61787907 -0.6823908  -0.72719062 -0.74690254 -0.74152656
 -0.70389472 -0.63759099 -0.53903139 -0.4153839  -0.26485652 -0.09282522
  0.097126    0.29962117  0.51107631  0.72790742  0.94653052  1.16336163
  1.37840075  1.58447991  1.78518309  1.9769263   2.15970955  2.33174085
  2.49302019  2.64713156  2.79228296  2.9284744   3.06108186  3.19010533
  3.31733681  3.44098431  3.5646318   3.68827929  3.8083428   3.92482232
  4.03592587  4.13806945  4.23125307  4.31010075  4.37282049  4.4194123
  4.44808418  4.45525215  4.44629219  4.42120429  4.37998846  4.32443669
  4.25992495  4.18824524  4.11118956  4.0287579   3.94453424  3.8585186
  3.77250295  3.6864873   3.59867966  3.51087202  3.42485637  3.33704873
  3.24924109  3.16322544  3.0754178   2.98940216  2.90159452  2.81378687
  2.72777123  2.63996359  2.55394794  2.4661403   2.37833266  2.29231701
  2.20450937  2.11849372  2.03068608  1.94287844  1.85327881  1.76547117
  1.67407954  1.58089592  1.48233633  1.38019275  1.27267319  1.15440167
  1.0253782   0.88560277  0.72969941  0.55946011  0.37309287  0.17238969
 -0.04264943 -0.27202449 -0.5121515  -0.76482247 -1.02824539 -1.30242027
 -1.58913909 -1.88481788 -2.19124862 -2.50663933 -2.82919801 -3.15534068
 -3.47969135 -3.79866604 -4.10330479 -4.38643963 -4.64269458 -4.86310968
 -5.04410094 -5.18208437 -5.27526799 -5.32365179 -5.32902777 -5.2967719
 -5.23226017 -5.14086854 -5.02618101 -4.89894953 -4.7609661  -4.61760669
 -4.4688713  -4.3201359  -4.16960852 -4.01728915 -3.86496977 -3.70727442
 -3.54957906 -3.38650773 -3.2216444  -3.05678108 -2.89191775 -2.72884642
 -2.57115107 -2.42062369 -2.27547228 -2.14286482 -2.02100932 -1.91169777
 -1.81493017 -1.7342905 ]",3.4717521002744514,3.709514405828979,5.605815,
021,2,1,csm,33b.png,1,1,284,72,NaN,0,1,685,neu_feedback_onset,5,"[ 0.26611837  0.20358883  0.1465766   0.09875989  0.06013871  0.02887393
  0.00680469 -0.00790815 -0.01526456 -0.01894277 -0.02078188 -0.02262098
 -0.02629919 -0.03549471 -0.05020754 -0.07043769 -0.09434604 -0.1219326
 -0.14951917 -0.17710573 -0.19917498 -0.21572692 -0.22492244 -0.22676154
 -0.22308333 -0.21204871 -0.19733587 -0.17894483 -0.15687558 -0.13480633
 -0.11273708 -0.09066783 -0.07227679 -0.05572486 -0.04469023 -0.04285113
 -0.05204665 -0.075955   -0.1200935  -0.18446214 -0.27457825 -0.39044181
 -0.52653551 -0.68285937 -0.85021784 -1.02309363 -1.19413032 -1.35229327
 -1.49574339 -1.61528516 -1.71275768 -1.78632185 -1.83965587 -1.87092064
 -1.88747257 -1.89115078 -1.88747257 -1.87459885 -1.85804691 -1.83965587
 -1.81942572 -1.79735647 -1.77528722 -1.75321797 -1.72930962 -1.70724037
 -1.68333202 -1.66126277 -1.63735441 -1.61528516 -1.59137681 -1.56930756
 -1.54539921 -1.52149085 -1.4975825  -1.47183504 -1.44424848 -1.41482281
 -1.37987983 -1.33941954 -1.29160283 -1.2309124  -1.15918734 -1.07274944
 -0.96975961 -0.85205695 -0.72148055 -0.57986953 -0.43458031 -0.29296929
 -0.1660711  -0.05756396  0.02335662  0.07117333  0.08588616  0.06933423
  0.02887393 -0.02813829 -0.08698963 -0.13664544 -0.164232   -0.15871469
 -0.11457619 -0.02629919  0.09875989  0.25692285  0.43715505  0.62474367
  0.80681498  0.96681704  1.09739344  1.18750954  1.23716535  1.24636087
  1.21693521  1.15808387  1.0790024   0.98520809  0.88589646  0.78474573
  0.68543411  0.58796159  0.49416728  0.39669476  0.29738314  0.18887599
  0.07117333 -0.05572486 -0.19365767 -0.33894689 -0.49159254 -0.64791639
 -0.80424024 -0.95872499 -1.10585332 -1.24378613 -1.3670061  -1.47551325
 -1.56011204 -1.61896337 -1.64654993 -1.63919352 -1.59689412 -1.51597354
 -1.39827087 -1.24930344 -1.07274944 -0.8778044  -0.67366384 -0.46952329
 -0.27641735 -0.10170246  0.04910408  0.16864585  0.25508374  0.30657866
  0.3268088   0.31577418  0.27715299  0.22014077  0.1465766   0.06197781
 -0.02813829 -0.11641529 -0.20285319 -0.28193466 -0.34814241 -0.40331554
 -0.44561493 -0.47320149 -0.48791433 -0.48975343 -0.48423612 -0.47320149
 -0.45848866 -0.44377583 -0.4309021  -0.41986747 -0.41435016 -0.41435016
 -0.41802837 -0.42538479 -0.43641941 -0.44929314 -0.46216687 -0.4750406
 -0.48791433 -0.49894895 -0.50814447 -0.51550089 -0.52285731 -0.52837462
 -0.53205283 -0.53573103 -0.53940924 -0.54308745 -0.54492656 -0.54860476
 -0.55044387 -0.55412208 -0.55596118 -0.55963939 -0.56147849 -0.5651567
 -0.56883491 -0.57251312 -0.57803043 -0.58538685 -0.59458237 -0.6074561
 -0.62400803 -0.64791639 -0.68102026 -0.72331966 -0.77665368 -0.84286143
 -0.91826469 -1.00654169 -1.10217511 -1.20148673 -1.30447656 -1.40562729
 -1.50309981 -1.59137681 -1.67045829 -1.74034424 -1.79735647 -1.84701228
 -1.88747257 -1.92057645 -1.94816301 -1.97207136 -1.99230151 -2.01253166
 -2.02908359 -2.04747463 -2.06402657 -2.08057851 -2.09529134 -2.11184328
 -2.12839522 -2.14494715 -2.15965999 -2.17621192 -2.19276386 -2.2093158
 -2.22402863 -2.24058057 -2.25713251 -2.27368444 -2.29023638 -2.30678832
 -2.32517936 -2.3435704  -2.36380055 -2.3858698  -2.40977815 -2.43736471
 -2.46495127 -2.49437694]","[-0.40641726 -0.40107903 -0.39218198 -0.37438788 -0.34769673 -0.30854971
 -0.25516741 -0.18754982 -0.10925578 -0.02206469  0.06868523  0.15765573
  0.2395086   0.30534677  0.35161143  0.37652318  0.37830259  0.35517025
