sub,run,cat_cond,trial_type,picture,old,response_old,target_pos,response_pos,dot_resp_loc,cat_corr,TN_corr,TN_rt,feedback_type,trial,SP_timeseries,FB_timeseries,SP_peak_response,FB_peak_response,preStim_bl,anticipation
050,1,2,csm,8a.png,1,1,344,321,343,1,1,558,neu_feedback_onset,1,"[ 1.11129394e+00  1.01320136e+00  9.04033820e-01  7.85373448e-01
  6.58802385e-01  5.29067045e-01  3.96167428e-01  2.61685673e-01
  1.28786057e-01 -9.49282975e-04 -1.27520346e-01 -2.49344995e-01
 -3.64841090e-01 -4.72426494e-01 -5.72101206e-01 -6.60700951e-01
 -7.39807865e-01 -8.09421950e-01 -8.69543205e-01 -9.21753769e-01
 -9.69217917e-01 -1.01509993e+00 -1.06256408e+00 -1.11319250e+00
 -1.17173162e+00 -1.24134570e+00 -1.32203476e+00 -1.41538092e+00
 -1.51821990e+00 -1.63055172e+00 -1.74604782e+00 -1.86312605e+00
 -1.97704001e+00 -2.08146114e+00 -2.17322516e+00 -2.25074993e+00
 -2.31245333e+00 -2.35517106e+00 -2.38206741e+00 -2.39314238e+00
 -2.38997810e+00 -2.37732100e+00 -2.35675320e+00 -2.33143899e+00
 -2.30612477e+00 -2.28081056e+00 -2.25866063e+00 -2.24125710e+00
 -2.22860000e+00 -2.22068931e+00 -2.21594289e+00 -2.21436075e+00
 -2.21277861e+00 -2.20961434e+00 -2.20645006e+00 -2.20012151e+00
 -2.19062868e+00 -2.17797157e+00 -2.16215019e+00 -2.14316453e+00
 -2.12259673e+00 -2.10202893e+00 -2.07829686e+00 -2.05456479e+00
 -2.03083271e+00 -2.00710064e+00 -1.98336856e+00 -1.96121863e+00
 -1.93906869e+00 -1.91850089e+00 -1.89951523e+00 -1.88211171e+00
 -1.86629033e+00 -1.85363322e+00 -1.83939398e+00 -1.82357259e+00
 -1.80458694e+00 -1.77610845e+00 -1.73813713e+00 -1.68434443e+00
 -1.60998393e+00 -1.51347349e+00 -1.39323098e+00 -1.24609212e+00
 -1.07522118e+00 -8.83782450e-01 -6.78104472e-01 -4.66097941e-01
 -2.55673548e-01 -5.63241232e-02  1.20875365e-01  2.71178503e-01
  3.83510322e-01  4.53124407e-01  4.76856481e-01  4.51542268e-01
  3.74017492e-01  2.47446429e-01  7.49933550e-02 -1.43341729e-01
 -3.96483856e-01 -6.78104472e-01 -9.80292885e-01 -1.28880985e+00
 -1.59416254e+00 -1.88369385e+00 -2.14791094e+00 -2.37732100e+00
 -2.56717759e+00 -2.71273431e+00 -2.81240903e+00 -2.86620173e+00
 -2.87727670e+00 -2.84721607e+00 -2.78234840e+00 -2.68267369e+00
 -2.55452049e+00 -2.39788879e+00 -2.21594289e+00 -2.01184705e+00
 -1.78876555e+00 -1.54986267e+00 -1.29988482e+00 -1.04357842e+00
 -7.88854152e-01 -5.38876302e-01 -3.03137697e-01 -8.48026124e-02
  1.11382536e-01  2.82253471e-01  4.26228056e-01  5.43306289e-01
  6.36652449e-01  7.11012948e-01  7.67969927e-01  8.15434075e-01
  8.54987533e-01  8.96123128e-01  9.40423000e-01  9.92633564e-01
  1.05750123e+00  1.13660815e+00  1.23311858e+00  1.34861468e+00
  1.48309643e+00  1.63656385e+00  1.80743478e+00  1.99412710e+00
  2.19505867e+00  2.40390092e+00  2.61748959e+00  2.83107826e+00
  3.03675624e+00  3.22977711e+00  3.40381232e+00  3.55569760e+00
  3.68068652e+00  3.77561482e+00  3.84048249e+00  3.87370739e+00
  3.87528953e+00  3.84681104e+00  3.79143620e+00  3.70916501e+00
  3.60474388e+00  3.47817282e+00  3.33261610e+00  3.17282013e+00
  3.00036706e+00  2.81683901e+00  2.62856456e+00  2.43554369e+00
  2.24252281e+00  2.05266622e+00  1.86755604e+00  1.69193869e+00
  1.52581417e+00  1.37234675e+00  1.23153645e+00  1.10812966e+00
  9.98962117e-01  9.04033820e-01  8.26509044e-01  7.64805650e-01
  7.15759363e-01  6.80952321e-01  6.60384523e-01  6.49309555e-01
  6.50891693e-01  6.61966661e-01  6.80952321e-01  7.09430810e-01
  7.42655714e-01  7.83791310e-01  8.29673320e-01  8.78719607e-01
  9.30930171e-01  9.86305011e-01  1.04167985e+00  1.10021897e+00
  1.15875808e+00  1.21729720e+00  1.27583632e+00  1.33595757e+00
  1.39449669e+00  1.45461795e+00  1.51315706e+00  1.57327832e+00
  1.63181743e+00  1.69193869e+00  1.75205994e+00  1.81059906e+00
  1.87072032e+00  1.92925943e+00  1.98779855e+00  2.04633767e+00
  2.10329464e+00  2.15866948e+00  2.21088005e+00  2.25834420e+00
  2.29789765e+00  2.32954042e+00  2.34694394e+00  2.34852608e+00
  2.33112256e+00  2.29156910e+00  2.22670143e+00  2.13968383e+00
  2.03209842e+00  1.91027377e+00  1.77895630e+00  1.64763882e+00
  1.52739631e+00  1.42297518e+00  1.34386826e+00  1.29323984e+00
  1.27267204e+00  1.27900059e+00  1.30747908e+00  1.35494323e+00
  1.41348235e+00  1.47676788e+00  1.54005341e+00  1.60017467e+00
  1.65238523e+00  1.69668510e+00  1.72991001e+00  1.75364208e+00
  1.76471705e+00  1.76629919e+00  1.75364208e+00  1.72991001e+00
  1.69352083e+00  1.64447454e+00  1.58277115e+00  1.50999279e+00
  1.42613946e+00  1.33279330e+00  1.22995431e+00  1.12236890e+00]","[ 0.20943068  0.277867    0.34319257  0.40074129  0.44584704  0.47384372
  0.48317594  0.46917761  0.43184871  0.37118924  0.28719922  0.17987863
  0.05233823 -0.09386663 -0.25562519 -0.43138209 -0.61647122 -0.81089257
 -1.00842467 -1.2090675  -1.40659959 -1.60102095 -1.7845547  -1.95409012
 -2.10496109 -2.22939075 -2.32115763 -2.37715098 -2.39114932 -2.3600419
 -2.28382873 -2.16250981 -2.00075124 -1.80632989 -1.58702261 -1.35371699
 -1.11574525 -0.88555037 -0.6709092  -0.48115396 -0.32406151 -0.19963184
 -0.11253108 -0.06120384 -0.04098402 -0.05031625 -0.08297903 -0.13586164
 -0.20274259 -0.2820665  -0.36761189 -0.45937877 -0.55270102 -0.64913401
 -0.74712237 -0.84511073 -0.94309909 -1.04108745 -1.13907581 -1.23706418
 -1.33349717 -1.42837479 -1.52014166 -1.6087978  -1.69123245 -1.76433488
 -1.82499434 -1.87165547 -1.89809677 -1.90120751 -1.87787695 -1.82654971
 -1.75033654 -1.65079281 -1.53414    -1.40971034 -1.28994678 -1.18418157
 -1.10641303 -1.06908413 -1.07841635 -1.14218656 -1.26195011 -1.43770701
 -1.66323578 -1.9338703  -2.23872298 -2.57157233 -2.92153076 -3.28082142
 -3.63700134 -3.9854044  -4.31514301 -4.61999569 -4.89218558 -5.12860195
 -5.32457867 -5.48011575 -5.59210245 -5.66676025 -5.70564452 -5.71497674
 -5.69942304 -5.66676025 -5.62165449 -5.56566115 -5.50655705 -5.44278685
 -5.37746128 -5.3121357  -5.24681013 -5.17992918 -5.11460361 -5.04772266
 -4.98239709 -4.91707152 -4.85019057 -4.784865   -4.71953942 -4.65265848
 -4.5873329  -4.52200733 -4.45668176 -4.38980081 -4.32603061 -4.26070503
 -4.1984902  -4.13627537 -4.07872665 -4.02428867 -3.97607218 -3.93718791
 -3.90763586 -3.89052678 -3.89052678 -3.90763586 -3.94340939 -4.00095811
 -4.08028202 -4.17982575]",2.5731501639095216,-0.426177584701743,6.32056,0.06374000000000013
050,1,2,csm,40a.png,1,1,24,28,NaN,0,1,378,neu_feedback_onset,2,"[-1.34411745 -1.33259127 -1.29801272 -1.23873522 -1.15146555 -1.03291054
 -0.88471678 -0.70523766 -0.49941299 -0.27218255 -0.02683954  0.22838306
  0.48525225  0.73553505  0.97264508  1.18505614  1.36782845  1.51437562
  1.61811125  1.67903536  1.69385473  1.66750918  1.60164528  1.50284944
  1.37935463  1.24104045  1.09284669  0.94629952  0.80798534  0.68284394
  0.5774617   0.49019204  0.42268155  0.36999043  0.32388571  0.28107417
  0.23332285  0.17569194  0.10488825  0.02255838 -0.06965107 -0.16515372
 -0.25736317 -0.33969304 -0.40226374 -0.43848888 -0.44342868 -0.41378992
 -0.34463283 -0.23595741 -0.08447045  0.10653485  0.34035168  0.61204025
  0.91666077  1.24762684  1.59835209  1.95895691  2.31462195  2.65711421
  2.9749075   3.25647566  3.49358568  3.68459098  3.82455176  3.91676121
  3.96451253  3.97274552  3.94969316  3.89864864  3.82784495  3.74222189
  3.64671924  3.5446302   3.43924797  3.33057254  3.22025051  3.10828189
  2.99795987  2.88599124  2.77402262  2.6637006   2.55337857  2.44305655
  2.33602772  2.23229208  2.13349624  2.04128678  1.96225011  1.89803281
  1.85686788  1.8420485   1.86016107  1.91614538  2.01494122  2.15325541
  2.33108792  2.54020579  2.77072943  3.00948605  3.24000968  3.44912755
  3.62037368  3.74222189  3.80479259  3.80479259  3.73728209  3.6072009
  3.4178422   3.17743898  2.89257763  2.57478434  2.23229208  1.87498045
  1.51272902  1.15541739  0.81127853  0.48689885  0.19051132 -0.06965107
 -0.29194172 -0.47306743 -0.60808842 -0.69865127 -0.74804919 -0.75792878
 -0.73487641 -0.6821853  -0.60808842 -0.51917216 -0.42037631 -0.31664068
 -0.21125844 -0.10916941 -0.01037356  0.08512909  0.17733854  0.2679014
  0.36011085  0.4523203   0.54617635  0.63838581  0.72894866  0.81127853
  0.88208222  0.93806653  0.97429167  0.98746445  0.97923147  0.95288591
  0.91007438  0.86232305  0.81457173  0.77669999  0.76023401  0.768467
  0.80963194  0.88372882  0.98911105  1.12577863  1.28549858  1.4616845
  1.64445681  1.82722912  2.00012185  2.1565486   2.28827639  2.38871883
  2.45622932  2.48586808  2.47598849  2.42659057  2.34261411  2.22899889
  2.0923313   1.94084434  1.78441759  1.63293063  1.49132326  1.36618185
  1.25915302  1.17188336  1.10272627  1.05003515  1.00887022  0.97593827
  0.94794612  0.91995396  0.89196181  0.86067646  0.82609791  0.78987277
  0.75200103  0.71742248  0.68778373  0.66967116  0.66637796  0.68119734
  0.71577588  0.77669999  0.85902986  0.96605869  1.09284669  1.23610066
  1.39252741  1.55389396  1.71855369  1.87827364  2.028114    2.16807478
  2.29156959  2.40024501  2.49410106  2.57313774  2.63900164  2.69333935
  2.73944408  2.78060901  2.81518756  2.8481195   2.87940485  2.90904361
  2.93703576  2.96667452  2.99466667  3.02265883  3.05229758  3.08028974
  3.10828189  3.13792064  3.1659128   3.19390496  3.22354371  3.25153586
  3.27952802  3.30916677  3.33715893  3.36515108  3.39478984  3.42278199
  3.45077415  3.4804129   3.50840506  3.53804381  3.56603596  3.59402812
  3.62366687  3.65165903  3.67965118  3.70928994  3.73728209  3.76527425
  3.794913    3.82290516  3.85089731  3.88053607  3.90852822  3.93816697
  3.96615913  3.99415129]","[ 0.83943358  0.68714448  0.5396645   0.3985967   0.26394107  0.13890369
  0.02348458 -0.08071323 -0.17048365 -0.24262059 -0.29712406 -0.33078797
 -0.34361231 -0.33720014 -0.31155145 -0.27307841 -0.22178103 -0.16246843
 -0.09514061 -0.02460671  0.05233936  0.13730065  0.23348324  0.34249018
  0.4691306   0.61661057  0.78332707  0.97088312  1.17607266  1.39088045
  1.61210041  1.83011429  2.04011295  2.23087509  2.40079767  2.54186548
  2.6540785   2.73583371  2.78552805  2.80636761  2.80155848  2.7727037
  2.72300936  2.65888763  2.58194156  2.49537722  2.40240072  2.30461508
  2.20362336  2.10102859  1.99683078  1.89263297  1.78683212  1.68103127
  1.57683346  1.47103261  1.36523176  1.2594309   1.15363005  1.0478292
  0.94202835  0.83622749  0.73042664  0.62462579  0.51882494  0.41302408
  0.30722323  0.20142238  0.09722457 -0.00857628 -0.11437713 -0.22017799
 -0.32597884 -0.43177969 -0.53758054 -0.6433814  -0.74918225 -0.8549831
 -0.96078395 -1.0665848  -1.17238566 -1.27818651 -1.38398736 -1.48818517
 -1.59398602 -1.69978688 -1.80558773 -1.91138858 -2.01718943 -2.12299028
 -2.22879114 -2.33459199 -2.44039284 -2.54619369 -2.65199455 -2.7577954
 -2.86359625 -2.9693971  -3.07519796 -3.17939576 -3.28519662 -3.39099747
 -3.49679832 -3.60259917 -3.70840003 -3.81420088 -3.92000173 -4.02580258
 -4.13160344 -4.23740429 -4.34320514 -4.44900599 -4.5532038  -4.65900465
 -4.76320246 -4.86740027 -4.96999504 -5.07098676 -5.16716935 -5.25854282
 -5.34029802 -5.41243497 -5.46854148 -5.50380843 -5.51502973 -5.49579321
 -5.44289279 -5.35151932 -5.22327587 -5.05335329 -4.84656071 -4.60770727
 -4.33999905 -4.05305432 -3.75328524 -3.45191311 -3.15695316 -2.87802364
 -2.62153673 -2.39711067]",3.7087410720117426,1.7253554147193078,6.07313,
050,1,2,csp,25b.png,1,1,172,180,NaN,0,1,332,neg_feedback_onset,3,"[-5.42980066e-03 -1.02208012e-02 -6.38800078e-04  2.49132030e-02
  6.16442075e-02  1.03166213e-01  1.44688218e-01  1.79822222e-01
  2.03777225e-01  2.13359226e-01  2.03777225e-01  1.75031221e-01
  1.28718216e-01  6.48382079e-02 -1.18178014e-02 -9.96528122e-02
 -1.95472824e-01 -2.96083836e-01 -3.95097848e-01 -4.89320860e-01
 -5.75558870e-01 -6.45826879e-01 -6.96930885e-01 -7.24079888e-01
 -7.22482888e-01 -6.90542884e-01 -6.25065876e-01 -5.27648864e-01
 -4.01485849e-01 -2.52964831e-01 -8.84738108e-02  8.40022102e-02
  2.56478231e-01  4.20969251e-01  5.69490269e-01  7.00444285e-01
  8.09040299e-01  8.95278309e-01  9.57561317e-01  9.99083322e-01
  1.01824732e+00  1.01984432e+00  1.00547132e+00  9.78322319e-01
  9.39994315e-01  8.92084309e-01  8.40980303e-01  7.83488296e-01
  7.25996289e-01  6.65310281e-01  6.06221274e-01  5.47132267e-01
  4.86446259e-01  4.24163252e-01  3.60283244e-01  2.94806236e-01
  2.26135228e-01  1.55867219e-01  8.24052101e-02  1.05402013e-02
 -6.13248075e-02 -1.29995816e-01 -1.93875824e-01 -2.52964831e-01
 -3.07262837e-01 -3.58366844e-01 -4.09470850e-01 -4.58977856e-01
 -5.11678862e-01 -5.70767870e-01 -6.37841878e-01 -7.12900887e-01
 -7.97541897e-01 -8.90167909e-01 -9.90778921e-01 -1.09458393e+00
 -1.20158295e+00 -1.30698496e+00 -1.40280497e+00 -1.48744598e+00
 -1.55132599e+00 -1.58805699e+00 -1.59284799e+00 -1.55771399e+00
 -1.47946098e+00 -1.35649197e+00 -1.18880695e+00 -9.82793920e-01
 -7.43243891e-01 -4.82932859e-01 -2.11442826e-01  6.00472073e-02
  3.20358239e-01  5.61505269e-01  7.78697295e-01  9.65546318e-01
  1.12524634e+00  1.25620035e+00  1.36319937e+00  1.44943738e+00
  1.52130239e+00  1.58039139e+00  1.63468940e+00  1.68579341e+00
  1.73689741e+00  1.79279242e+00  1.85188143e+00  1.91735843e+00
  1.98922344e+00  2.06587945e+00  2.14892346e+00  2.23675847e+00
  2.32938448e+00  2.42520450e+00  2.52421851e+00  2.62482952e+00
  2.72863453e+00  2.83403655e+00  2.93943856e+00  3.04484057e+00
  3.14864558e+00  3.24765960e+00  3.34028561e+00  3.42492662e+00
  3.49838863e+00  3.56067163e+00  3.61017864e+00  3.64531264e+00
  3.66926765e+00  3.68204365e+00  3.68523765e+00  3.68044665e+00
  3.66767065e+00  3.65170065e+00  3.63253664e+00  3.61017864e+00
  3.58782064e+00  3.56226863e+00  3.53511963e+00  3.50637363e+00
  3.47603062e+00  3.43929962e+00  3.39777761e+00  3.34827061e+00
  3.28758460e+00  3.21252559e+00  3.11989958e+00  3.00491557e+00
  2.86757355e+00  2.70308253e+00  2.51144251e+00  2.29425048e+00
  2.05310345e+00  1.78959842e+00  1.51172038e+00  1.22106635e+00
  9.27218313e-01  6.36564278e-01  3.57089244e-01  9.83752120e-02
 -1.28398816e-01 -3.15247838e-01 -4.54186855e-01 -5.38827866e-01
 -5.64379869e-01 -5.30842865e-01 -4.41410854e-01 -3.02471837e-01
 -1.23607815e-01  8.24052101e-02  3.04388237e-01  5.31162265e-01
  7.49951291e-01  9.54367316e-01  1.13802234e+00  1.29772236e+00
  1.42867637e+00  1.52928739e+00  1.60115240e+00  1.64267440e+00
  1.65065940e+00  1.62830140e+00  1.57400339e+00  1.48616838e+00
  1.36639337e+00  1.21787235e+00  1.04060533e+00  8.40980303e-01
  6.18997276e-01  3.79447246e-01  1.28718216e-01 -1.34786816e-01
 -4.04679849e-01 -6.79363883e-01 -9.57241917e-01 -1.23671695e+00
 -1.51619198e+00 -1.79247302e+00 -2.06396305e+00 -2.32746808e+00
 -2.57819711e+00 -2.80976214e+00 -3.01098417e+00 -3.17387819e+00
 -3.28566820e+00 -3.33517521e+00 -3.30802620e+00 -3.19623619e+00
 -2.99501417e+00 -2.70436013e+00 -2.32906508e+00 -1.88509903e+00
 -1.39322297e+00 -8.74197907e-01 -3.55172843e-01  1.39897217e-01
  5.88654272e-01  9.75128319e-01  1.28973736e+00  1.53088439e+00
  1.69856941e+00  1.79918042e+00  1.84389642e+00  1.84070242e+00
  1.80237442e+00  1.73689741e+00  1.65065940e+00  1.55324239e+00
  1.44624338e+00  1.33285636e+00  1.21467835e+00  1.09330633e+00
  9.68740318e-01  8.36189302e-01  6.97250285e-01  5.48729267e-01
  3.87432247e-01  2.11762226e-01  1.85252023e-02 -1.93875824e-01
 -4.25440852e-01 -6.74572882e-01 -9.39674915e-01 -1.21755295e+00
 -1.50022198e+00 -1.78289102e+00 -2.05278405e+00 -2.30191608e+00
 -2.51431711e+00 -2.67721113e+00 -2.77622514e+00 -2.80177714e+00
 -2.74109113e+00 -2.59257012e+00 -2.35940809e+00 -2.04639605e+00
 -1.66950400e+00 -1.24949295e+00 -8.08720899e-01 -3.71142845e-01]","[-3.06151551e-01 -2.76213931e-01 -2.51003304e-01 -2.28944006e-01
 -2.11611700e-01 -1.95855058e-01 -1.81674080e-01 -1.65917438e-01
 -1.47009468e-01 -1.23374505e-01 -9.18612218e-02 -5.24696173e-02
 -3.62402762e-03  5.78268755e-02  1.28731764e-01  2.10666301e-01
  3.02054824e-01  4.02897331e-01  5.10042496e-01  6.23490317e-01
  7.43240795e-01  8.67718265e-01  9.96922728e-01  1.12927852e+00
  1.26478564e+00  1.40029276e+00  1.53264855e+00  1.65397469e+00
  1.76111986e+00  1.84463006e+00  1.89662698e+00  1.91395928e+00
  1.89189998e+00  1.82887342e+00  1.72487958e+00  1.58779680e+00
  1.42550339e+00  1.24745333e+00  1.06625195e+00  8.92928892e-01
  7.38513802e-01  6.07733675e-01  5.08466831e-01  4.39137607e-01
  4.02897331e-01  3.93443346e-01  4.07624324e-01  4.39137607e-01
  4.84831869e-01  5.39980115e-01  6.01431018e-01  6.64457585e-01
  7.30635481e-01  7.95237713e-01  8.61415608e-01  9.26017840e-01
  9.90620071e-01  1.05522230e+00  1.11824887e+00  1.18285110e+00
  1.24587767e+00  1.31047990e+00  1.37350647e+00  1.43653303e+00
  1.50113527e+00  1.56416183e+00  1.62718840e+00  1.69179063e+00
  1.75481720e+00  1.81784377e+00  1.88244600e+00  1.94547257e+00
  2.00849913e+00  2.07152570e+00  2.13455227e+00  2.19757883e+00
  2.25745407e+00  2.31732931e+00  2.37247756e+00  2.42289881e+00
  2.46701741e+00  2.50010636e+00  2.52058999e+00  2.52374132e+00
  2.50483335e+00  2.46071475e+00  2.38665854e+00  2.27951337e+00
  2.13612793e+00  1.95807788e+00  1.74536321e+00  1.50113527e+00
  1.22696970e+00  9.27593504e-01  6.09309339e-01  2.76844197e-01
 -6.34992665e-02 -4.06994058e-01 -7.47337521e-01 -1.08137833e+00
 -1.40281382e+00 -1.70691701e+00 -1.99053656e+00 -2.25367248e+00
 -2.49002211e+00 -2.70273677e+00 -2.88866514e+00 -3.05253422e+00
 -3.19591966e+00 -3.31882147e+00 -3.42754229e+00 -3.52365781e+00
 -3.61031934e+00 -3.68910255e+00 -3.76473443e+00 -3.83406365e+00
 -3.90339288e+00 -3.96957077e+00 -4.03417300e+00 -4.09719957e+00
 -4.15865048e+00 -4.21537439e+00 -4.26894697e+00 -4.31306556e+00
 -4.34930584e+00 -4.37136514e+00 -4.37766780e+00 -4.36506248e+00
 -4.32882221e+00 -4.27052263e+00 -4.18858809e+00 -4.08459426e+00
 -3.96326812e+00 -3.82933666e+00 -3.69067821e+00 -3.55044410e+00
 -3.41651265e+00 -3.29203518e+00 -3.18016302e+00 -3.08404750e+00]",3.2159990673518934,1.3907205985002904,6.26174,
050,1,2,csm,22a.png,1,1,52,60,51,1,1,350,neu_feedback_onset,4,"[-2.06208575e-01 -2.89900894e-01 -3.75143071e-01 -4.57285533e-01
 -5.31678705e-01 -5.93673016e-01 -6.35519175e-01 -6.52567611e-01
 -6.38618891e-01 -5.87473585e-01 -4.94482119e-01 -3.58094636e-01
 -1.78311135e-01  4.17686667e-02  2.95945340e-01  5.71820021e-01
  8.60093565e-01  1.14681725e+00  1.41959222e+00  1.66291989e+00
  1.86905097e+00  2.02868632e+00  2.13562650e+00  2.18677181e+00
  2.18367209e+00  2.12477750e+00  2.01783731e+00  1.86595125e+00
  1.67686861e+00  1.45523895e+00  1.20881156e+00  9.45335742e-01
  6.69461060e-01  3.90486663e-01  1.13062124e-01 -1.55063269e-01
 -4.12339658e-01 -6.51017753e-01 -8.67997839e-01 -1.06327992e+00
 -1.23686399e+00 -1.39029991e+00 -1.52668739e+00 -1.64912615e+00
 -1.76381563e+00 -1.87540538e+00 -1.98854500e+00 -2.10478433e+00
 -2.22877295e+00 -2.35741115e+00 -2.49379863e+00 -2.63483569e+00
 -2.77742260e+00 -2.92000952e+00 -3.05639700e+00 -3.18193548e+00
 -3.29197538e+00 -3.38186713e+00 -3.44386144e+00 -3.47330874e+00
 -3.46555945e+00 -3.41906372e+00 -3.33227168e+00 -3.20673320e+00
 -3.04554799e+00 -2.85491549e+00 -2.64413483e+00 -2.41785560e+00
 -2.18537694e+00 -1.95134841e+00 -1.72351932e+00 -1.50188966e+00
 -1.29265887e+00 -1.09427707e+00 -9.08294141e-01 -7.33160214e-01
 -5.71975007e-01 -4.24738520e-01 -2.89900894e-01 -1.72111704e-01
 -6.98210922e-02  1.54210847e-02  8.20649685e-02  1.31660417e-01
  1.62657572e-01  1.76606292e-01  1.75056434e-01  1.61107714e-01
  1.36309990e-01  1.03762977e-01  6.50165331e-02  2.31703735e-02
 -2.17755016e-02 -6.82712344e-02 -1.13217109e-01 -1.59712842e-01
 -2.04658717e-01 -2.48054735e-01 -2.91450752e-01 -3.30197196e-01
 -3.62744209e-01 -3.89091791e-01 -4.06140226e-01 -4.10789800e-01
 -4.01490653e-01 -3.75143071e-01 -3.33296912e-01 -2.72852459e-01
 -1.96909429e-01 -1.03917963e-01  3.02222264e-03  1.22361270e-01
  2.50999465e-01  3.87386948e-01  5.28424004e-01  6.72560776e-01
  8.15147690e-01  9.57734604e-01  1.09412209e+00  1.22431014e+00
  1.34674890e+00  1.45988852e+00  1.56062927e+00  1.64897117e+00
  1.72336434e+00  1.78380879e+00  1.83185438e+00  1.86440139e+00
  1.88144983e+00  1.88454955e+00  1.87370054e+00  1.84735296e+00
  1.80705666e+00  1.75126178e+00  1.68151818e+00  1.60092558e+00
  1.50948397e+00  1.41029307e+00  1.30645260e+00  1.20106227e+00
  1.09722180e+00  9.96481048e-01  9.03489582e-01  8.16697548e-01
  7.36104944e-01  6.61711771e-01  5.90418314e-01  5.19124857e-01
  4.44731685e-01  3.65688939e-01  2.81996620e-01  1.93654727e-01
  1.03762977e-01  1.54210847e-02 -6.51715189e-02 -1.36464976e-01
 -1.92259855e-01 -2.29456442e-01 -2.48054735e-01 -2.48054735e-01
 -2.27906584e-01 -1.90709998e-01 -1.38014834e-01 -7.13709499e-02
  7.67179592e-03  9.91134039e-02  1.99854158e-01  3.09894059e-01
  4.27683249e-01  5.51671870e-01  6.77210349e-01  8.02748828e-01
  9.23637733e-01  1.03677735e+00  1.13751810e+00  1.22276028e+00
  1.29095402e+00  1.34054947e+00  1.36999677e+00  1.38239563e+00
  1.37929592e+00  1.36224748e+00  1.33435004e+00  1.29715345e+00
  1.25220758e+00  1.20416199e+00  1.15146682e+00  1.09722180e+00
  1.04142692e+00  9.85632044e-01  9.28287306e-01  8.70942569e-01
  8.13597832e-01  7.54703237e-01  6.97358500e-01  6.40013763e-01
  5.81119168e-01  5.23774431e-01  4.66429693e-01  4.09084956e-01
  3.50190361e-01  2.92845624e-01  2.37050745e-01  1.79706007e-01
  1.25460986e-01  7.27658219e-02  2.31703735e-02 -2.02256438e-02
 -5.74222301e-02 -8.22199543e-02 -9.46188164e-02 -8.68695275e-02
 -6.05219456e-02 -7.82678170e-03  6.81162486e-02  1.68857003e-01
  2.91295766e-01  4.26133392e-01  5.68720306e-01  7.05107789e-01
  8.22896979e-01  9.14338587e-01  9.65483893e-01  9.68583608e-01
  9.18988160e-01  8.13597832e-01  6.57062198e-01  4.54030831e-01
  2.10703163e-01 -5.89720878e-02 -3.45695774e-01 -6.37069033e-01
 -9.22242861e-01 -1.18881840e+00 -1.43059621e+00 -1.64292672e+00
 -1.82271022e+00 -1.97149657e+00 -2.09393533e+00 -2.19467608e+00
 -2.28146812e+00 -2.36361058e+00 -2.44885276e+00 -2.54339408e+00
 -2.65498384e+00 -2.78517189e+00 -2.93550809e+00 -3.10444259e+00
 -3.28887566e+00 -3.48260788e+00 -3.67943982e+00 -3.87162218e+00
 -4.05295554e+00 -4.21879032e+00 -4.36447695e+00 -4.48691571e+00
 -4.58455675e+00 -4.65894992e+00 -4.71009523e+00 -4.73954253e+00]","[-1.17182424 -1.07534579 -0.97575512 -0.86994004 -0.75945664 -0.64274883
 -0.51826049 -0.38599164 -0.24594226 -0.10122458  0.04971753  0.20221574
  0.35627005  0.50409995  0.64726153  0.78108649  0.90246261  1.0113899
  1.10631226  1.18567357  1.25102995  1.30238138  1.3443962   1.37863049
  1.40352815  1.42531361  1.44087466  1.45176738  1.45954791  1.45954791
  1.45176738  1.43309413  1.40197205  1.35684503  1.29615697  1.22146397
  1.13120993  1.03006315  0.91957976  0.80442805  0.68616413  0.56790022
  0.4511924   0.34070901  0.23489392  0.13374715  0.03726869 -0.05609756
 -0.14479549 -0.23193733 -0.31752306 -0.40155268 -0.4840262  -0.56649972
 -0.64897324 -0.73144676 -0.81392029 -0.8948377  -0.97731122 -1.05978474
 -1.14225827 -1.22317568 -1.3056492  -1.38812272 -1.47059624 -1.55151366
 -1.63398718 -1.7164607  -1.79737812 -1.87985164 -1.96232516 -2.04479868
 -2.1272722  -2.20974572 -2.29221925 -2.37469277 -2.45872239 -2.54275202
 -2.62833775 -2.71547958 -2.80417752 -2.89443156 -2.98779781 -3.08427627
 -3.18386693 -3.28656981 -3.39082879 -3.49664387 -3.60557116 -3.71449846
 -3.82498185 -3.93390914 -4.04439254 -4.15487594 -4.26380323 -4.37273052
 -4.48010171 -4.589029   -4.69640019 -4.80221527 -4.90803035 -5.01384544
 -5.11654831 -5.21769508 -5.31572965 -5.4090959  -5.49623773 -5.57404294
 -5.64406763 -5.70164348 -5.74988271 -5.78722921 -5.81523908 -5.83702454
 -5.8572539  -5.88059546 -5.90860533 -5.94906404 -6.00197158 -6.07044017
 -6.1560259  -6.25406046 -6.36454386 -6.48436388 -6.60729611 -6.72867223
 -6.84538004 -6.94808292 -7.03522475 -7.09902502 -7.13637152 -7.14570815
 -7.1270349  -7.08190788 -7.0149954  -6.93252188 -6.84226784 -6.7535699
 -6.67265248 -6.60885221]",0.41098353198633497,0.8689674704203881,6.452205000000001,0.5230200000000007
050,1,2,csm,24a.png,1,1,40,30,NaN,0,1,477,neu_feedback_onset,5,"[-0.37893323 -0.42778718 -0.45142618 -0.45300211 -0.43566684 -0.40099631
 -0.35214236 -0.29225689 -0.22133987 -0.14569506 -0.06217058  0.02450577
  0.11590992  0.20889     0.30502195  0.4011539   0.49886178  0.59499373
  0.68954975  0.78252983  0.87235805  0.95745846  1.03940701  1.11662775
  1.1891207   1.25530991  1.31361945  1.3624734   1.39871987  1.42235887
  1.43023854  1.42235887  1.4002958   1.36404933  1.31519539  1.26003771
  1.20015224  1.13869082  1.07880535  1.02364767  0.9732178   0.92909166
  0.88969332  0.85502278  0.82508004  0.79828917  0.77307423  0.74943522
  0.72737215  0.70846095  0.68954975  0.67379041  0.66118294  0.65172734
  0.65015141  0.65487921  0.67063854  0.69585348  0.73367589  0.78410576
  0.84556717  0.91806012  0.9968568   1.08195721  1.16705763  1.24743024
  1.32149912  1.38453647  1.43496634  1.47278875  1.49957962  1.51533896
  1.52164269  1.52321862  1.52321862  1.52321862  1.52637049  1.53267423
  1.54370576  1.55788916  1.57680037  1.59886344  1.62250244  1.64614144
  1.66978045  1.69184352  1.71548252  1.73754559  1.75960866  1.78324767
  1.81003854  1.83682941  1.86834808  1.90144269  1.93611323  1.9723597
  2.01018211  2.04642858  2.08109912  2.11419372  2.14413646  2.17092733
  2.1929904   2.21032567  2.22293314  2.22923688  2.22923688  2.22135721
  2.20402194  2.1740792   2.13152899  2.07164352  1.99442277  1.89829082
  1.7800958   1.64141364  1.48224435  1.30573979  1.11347589  0.91175639
  0.70530908  0.49886178  0.30029415  0.11748585 -0.04168344 -0.1661822
 -0.24813075 -0.27964942 -0.25443448 -0.17091    -0.02750004  0.16791573
  0.40745763  0.68009415  0.97164186  1.26634145  1.55316136  1.82107007
  2.06061198  2.26863522  2.44356385  2.58382194  2.69571322  2.77766177
  2.83754725  2.87536965  2.89585679  2.89900866  2.88955306  2.86906592
  2.84069912  2.80445264  2.76347837  2.72092816  2.67837795  2.63740368
  2.59958127  2.56648667  2.53654393  2.50975306  2.48768999  2.46562692
  2.44513978  2.42465264  2.40258957  2.37737464  2.35058377  2.31906509
  2.28597049  2.25129995  2.21662941  2.18038294  2.14728833  2.11734559
  2.09213065  2.07006758  2.05273231  2.04170078  2.03382111  2.03066924
  2.02909331  2.03066924  2.03382111  2.03854891  2.04485265  2.05115638
  2.05746012  2.06376385  2.07006758  2.07637132  2.08267505  2.09055472
  2.09685846  2.10316219  2.10946592  2.11734559  2.12364933  2.12995306
  2.1362568   2.14413646  2.1504402   2.15674393  2.16304767  2.17092733
  2.17723107  2.1835348   2.18983854  2.19771821  2.20402194  2.21032567
  2.21662941  2.22293314  2.22923688  2.23554061  2.24184435  2.24657215
  2.24972401  2.25129995  2.24972401  2.24184435  2.22766094  2.20402194
  2.1693514   2.11734559  2.04800451  1.95660036  1.83998128  1.69814725
  1.52794642  1.33253066  1.11189995  0.87078211  0.61390493  0.34442029
  0.07178378 -0.19770087 -0.46088178 -0.70830336 -0.9352378  -1.14010916
 -1.3197656  -1.47420709 -1.60185771 -1.70586933 -1.78939381 -1.85558302
 -1.90916476 -1.9532909  -1.99111331 -2.02578385 -2.05887846 -2.09039713
 -2.12033987 -2.14713074 -2.16761787 -2.18022534 -2.18337721 -2.17392161
 -2.15343447 -2.1219158 ]","[ 0.13809249  0.18399581  0.22224857  0.24826046  0.26203145  0.26050134
  0.24367012  0.21765824  0.17940548  0.13503227  0.08453861  0.02945463
 -0.02868957 -0.09295422 -0.1618092  -0.23525451 -0.31176005 -0.38826558
 -0.46171089 -0.52444543 -0.56728853 -0.58411975 -0.56881864 -0.51526477
 -0.42498824 -0.29645894 -0.13732743  0.04628585  0.24214001  0.43952429
  0.6277279   0.79604007  0.93681025  1.04544811  1.11889342  1.15714619
  1.16173652  1.13725475  1.08829121  1.01790612  0.93068981  0.83123262
  0.72412487  0.60936657  0.48848783  0.36607898  0.24214001  0.11667094
 -0.01032825 -0.13732743 -0.26432662 -0.3913258  -0.51832499 -0.64532417
 -0.77232336 -0.90085265 -1.02785184 -1.15485102 -1.28185021 -1.4088494
 -1.53737869 -1.66437788 -1.79137706 -1.91837625 -2.04690554 -2.17390473
 -2.30090391 -2.4279031  -2.55490228 -2.68343158 -2.81043076 -2.93742995
 -3.06442913 -3.19295843 -3.31995762 -3.4469568  -3.57395599 -3.70095517
 -3.82948447 -3.95648365 -4.08348284 -4.20895191 -4.3359511  -4.45989006
 -4.58382903 -4.70317766 -4.81946607 -4.92810393 -5.02603101 -5.1117172
 -5.18057218 -5.22800562 -5.25095728 -5.24789705 -5.21576473 -5.15762052
 -5.07499455 -4.97553736 -4.8668995  -4.75826164 -4.66033456 -4.58229891
 -4.53486548 -4.52568482 -4.55781714 -4.63585279 -4.75979175 -4.92351359
 -5.12395809 -5.35347469 -5.60594295 -5.87218221 -6.14607201 -6.42149193
 -6.69232152 -6.95703067 -7.21255915 -7.45584674 -7.68689345 -7.90416917
 -8.10308356 -8.28057639 -8.43205735 -8.55293609 -8.63556207 -8.67534494
 -8.67075461 -8.62026096 -8.52845432 -8.40451536 -8.25762473 -8.10461367
 -7.96384348 -7.84908519 -7.77716998 -7.75880866 -7.80165175 -7.90569928
 -8.06483079 -8.2668054 ]",2.046073994810454,0.16758537061193235,6.345445,
050,1,2,csp,65b.png,1,1,272,269,NaN,0,1,380,neg_feedback_onset,6,"[-1.864625   -1.54895352 -1.20924613 -0.86312917 -0.52662657 -0.21255748
  0.06145178  0.28899164  0.4652549   0.5854344   0.65593971  0.67997561
  0.66715646  0.62549424  0.5630009   0.4892908   0.40756874  0.32584668
  0.24412462  0.16560735  0.09189726  0.01978956 -0.05071575 -0.11961866
 -0.18852158 -0.25742449 -0.32953219 -0.40163989 -0.47695238 -0.55226486
 -0.63078214 -0.7109018  -0.79102147 -0.87434592 -0.95767038 -1.04419962
 -1.13072886 -1.22046288 -1.3117993  -1.40313572 -1.49286975 -1.58100138
 -1.66272344 -1.73483114 -1.79572209 -1.8421915  -1.87103458 -1.88385372
 -1.87904654 -1.85821543 -1.81975799 -1.76367422 -1.69316892 -1.60503728
 -1.50088172 -1.37749743 -1.23488442 -1.07464509 -0.89677943 -0.70288984
 -0.4961811  -0.279858   -0.05872772  0.16240256  0.38032806  0.59184398
  0.79054075  0.97802077  1.14787447  1.30170423  1.43630527  1.55167759
  1.64782119  1.72313367  1.77761505  1.8128677   1.83209642  1.83530121
  1.82568685  1.80645813  1.78081983  1.75357915  1.72633846  1.70550735
  1.69108581  1.68788102  1.69589299  1.71832649  1.75518154  1.80485573
  1.86734907  1.94105917  2.02438362  2.11251525  2.20385167  2.29518809
  2.38492212  2.46664418  2.54195667  2.60284761  2.64771463  2.67335292
  2.67335292  2.64450984  2.5820165   2.48106572  2.33845271  2.15097269
  1.92183045  1.65423076  1.35458321  1.03410454  0.70240912  0.37552088
  0.06786136 -0.20935269 -0.44971169 -0.64360128 -0.78941908 -0.88876746
 -0.94645362 -0.96407995 -0.94805602 -0.903189   -0.8310813  -0.7349377
 -0.61796299 -0.48175956 -0.32472501 -0.15326892  0.0326087   0.22970308
  0.43160464  0.6351086   0.83540777  1.03089975  1.21517499  1.38823347
  1.54687041  1.69429059  1.82728924  1.94907113  2.05963627  2.16058705
  2.25352587  2.3416575   2.42337956  2.50029444  2.57240214  2.63970266
  2.69899121  2.74866541  2.78712285  2.80795396  2.81115875  2.79193003
  2.74866541  2.68136489  2.58842607  2.46984897  2.32723596  2.16379184
  1.97951661  1.77601265  1.55167759  1.30971619  1.04692369  0.76169767
  0.45564054  0.12714991 -0.22377423 -0.59392709 -0.9768991  -1.36948546
 -1.76367422 -2.14824862 -2.5151967  -2.85650648 -3.16256361 -3.42695851
 -3.64007682 -3.80191855 -3.9092789  -3.96055549 -3.96055549 -3.91248369
 -3.82114727 -3.69616059 -3.54393322 -3.36766995 -3.17538275 -2.9718788
 -2.76036288 -2.54243738 -2.3213071  -2.09697204 -1.86943218 -1.63868754
 -1.40473812 -1.16437912 -0.91761054 -0.66283    -0.39683271 -0.11961866
  0.17041453  0.47166448  0.78573357  1.10781463  1.43630527  1.7647959
  2.09008175  2.40735563  2.70700318  2.98902441  3.24380495  3.4713448
  3.663632    3.82226894  3.94244844  4.02256811  4.06262794  4.06262794
  4.02096571  3.93764126  3.81425697  3.65401764  3.46012805  3.23739537
  2.9906268   2.72783429  2.45702982  2.18462295  1.91862566  1.66384512
  1.42348612  1.20075345  0.9956471   0.80816708  0.6351086   0.47647166
  0.33065386  0.19605282  0.07427093 -0.03629421 -0.13083542 -0.2077503
 -0.26543646 -0.30068911 -0.31190586 -0.29748432 -0.25902688 -0.19813594
 -0.11801627 -0.02507746  0.07747572  0.18483607  0.29219642  0.39635199
  0.4908932   0.57742244]","[-0.39096041 -0.42963873 -0.46212851 -0.48224124 -0.4899769  -0.48224124
 -0.45748712 -0.4141674  -0.3522821  -0.2718312  -0.17436185 -0.0629683
  0.06234944  0.19694998  0.33773905  0.48162239  0.62859998  0.77557758
  0.92255518  1.06489138  1.20568045  1.34182812  1.47178726  1.59710501
  1.71468708  1.8245335   1.92819139  2.02101934  2.10611164  2.180374
  2.24380644  2.29486182  2.33354013  2.35984139  2.36912418  2.36293565
  2.33818153  2.29176755  2.22214658  2.13086576  2.01483081  1.87558888
  1.71778135  1.54295536  1.35729945  1.16700214  0.97515769  0.78795464
  0.61003439  0.44294407  0.28977794  0.14744174  0.01593547 -0.10474088
 -0.21768156 -0.32288658 -0.42499733 -0.52401382 -0.62148317 -0.7174054
 -0.81178049 -0.90615558 -1.00053067 -1.09335862 -1.18773371 -1.2821088
 -1.37493676 -1.46931185 -1.56213981 -1.6565149  -1.74934286 -1.84371795
 -1.9365459  -2.02782673 -2.11910755 -2.20729411 -2.29393354 -2.37438443
 -2.4486468  -2.51207924 -2.56313461 -2.6002658  -2.61728426 -2.61573712
 -2.5956244  -2.55849322 -2.50898497 -2.4532882  -2.40068569 -2.35891311
 -2.33880038 -2.34653605 -2.38830863 -2.46721239 -2.58479447 -2.73641347
 -2.92052225 -3.13247942 -3.36609645 -3.6151848  -3.87819734 -4.14894555
 -4.42588229 -4.7059133  -4.98749143 -5.2706167  -5.55064771 -5.82913158
 -6.10142692 -6.3659866  -6.61662208 -6.84714484 -7.04981922 -7.21381528
 -7.32985022 -7.385547   -7.3716228  -7.28034198 -7.10861026 -6.85642764
 -6.52998266 -6.14165237 -5.70536097 -5.24122118 -4.76625147 -4.30211168
 -3.86117888 -3.46047154 -3.10617816 -2.8044873  -2.55694608 -2.36200737
 -2.21812404 -2.11756042 -2.05876938 -2.03246813 -2.03556239 -2.05876938
 -2.09899483 -2.15159734]",2.1432812048074736,1.434733436784938,6.240665000000002,
050,1,2,csm,23a.png,1,1,136,122,137,1,1,392,neu_feedback_onset,7,"[-1.22502323 -1.26438772 -1.25966398 -1.20927743 -1.10850431 -0.96049379
 -0.76996961 -0.54637925 -0.2991702  -0.04251366  0.20784456  0.44245697
  0.64872695  0.82193075  0.95577005  1.05339401  1.11480263  1.14471965
  1.15259255  1.14314507  1.12582469  1.10378057  1.08331103  1.06756523
  1.05811775  1.05496859  1.05496859  1.05811775  1.05969233  1.05811775
  1.04867027  1.02820073  0.99828371  0.95419547  0.89908517  0.83295281
  0.75737297  0.67234565  0.58416917  0.48969437  0.39207042  0.2912973
  0.18737502  0.08030358 -0.02834244 -0.1417122  -0.25823112 -0.3778992
 -0.50071643 -0.62825741 -0.75894755 -0.88963769 -1.02032783 -1.14944339
 -1.2738352  -1.38877954 -1.49112724 -1.57615456 -1.6359886  -1.66590562
 -1.66118188 -1.6202428  -1.53836464 -1.41712198 -1.26281314 -1.08331103
 -0.88491395 -0.68336771 -0.48969437 -0.31334142 -0.16690548 -0.05668488
  0.01102206  0.03464076  0.0157458  -0.04251366 -0.13698846 -0.25823112
 -0.39994332 -0.55425215 -0.71485931 -0.87231731 -1.02347699 -1.16204003
 -1.28643184 -1.39665244 -1.4942764  -1.57772914 -1.65330898 -1.7225905
 -1.78872286 -1.85485522 -1.92256216 -1.99341826 -2.06584893 -2.13985419
 -2.21385945 -2.28471555 -2.34769875 -2.39651073 -2.42800233 -2.43587523
 -2.41225653 -2.35242249 -2.25322395 -2.11308633 -1.93043506 -1.70999386
 -1.46121022 -1.19038247 -0.91010723 -0.63298115 -0.36687714 -0.12281724
  0.09132564  0.27240234  0.41568911  0.52433513  0.59834039  0.63927947
  0.65345069  0.64242863  0.61093703  0.56212505  0.50071643  0.42828575
  0.34955676  0.2676786   0.18422586  0.10077312  0.0236187  -0.04881198
 -0.11179518 -0.1653309  -0.20784456 -0.23933616 -0.25508196 -0.25823112
 -0.24720906 -0.22201578 -0.18265128 -0.12911556 -0.0629832   0.01417122
  0.09919854  0.19052418  0.2834244   0.37632462  0.46292651  0.54165551
  0.60621329  0.65345069  0.68021855  0.68494229  0.66447275  0.61408619
  0.53378261  0.42198743  0.27397692  0.09290022 -0.1259664  -0.3778992
 -0.66132359 -0.97623959 -1.31477428 -1.6753531  -2.04852856 -2.43115149
 -2.81534901 -3.19009904 -3.55067786 -3.88448881 -4.18050985 -4.43086807
 -4.6245414  -4.75208238 -4.81034184 -4.79459604 -4.70799414 -4.55525988
 -4.34741533 -4.09548253 -3.81205813 -3.51131336 -3.20584484 -2.90667464
 -2.61852651 -2.34927333 -2.10206427 -1.87689934 -1.67220394 -1.48955266
 -1.32737092 -1.18408415 -1.06284149 -0.96521753 -0.89278685 -0.85027319
 -0.84240029 -0.87074273 -0.93687509 -1.04237195 -1.18408415 -1.35728794
 -1.55253586 -1.76510416 -1.98711994 -2.21071029 -2.42800233 -2.63742147
 -2.83739313 -3.02476814 -3.2011211  -3.36802658 -3.52705916 -3.67979342
 -3.82622935 -3.96794155 -4.10493001 -4.23404557 -4.35528823 -4.46078509
 -4.54896156 -4.61037018 -4.63871262 -4.62769056 -4.56785652 -4.45606135
 -4.29230503 -4.07973673 -3.82780393 -3.55225244 -3.27040262 -3.0042986
 -2.78070825 -2.61852651 -2.53664835 -2.54924499 -2.66104017 -2.87518304
 -3.18222614 -3.57272198 -4.03249933 -4.54266324 -5.08274418 -5.63542175
 -6.17707726 -6.68724118 -7.14386937 -7.52649231 -7.8177896  -8.00201546
 -8.06657324 -8.00831378 -7.82881166 -7.53908895 -7.15646601 -6.69826324
 -6.1896739  -5.65431671]","[-0.46215704 -0.45137338 -0.43904919 -0.42210343 -0.39591453 -0.36202302
 -0.31734783 -0.26188899 -0.197187   -0.1247824  -0.04467518  0.04005361
  0.12786345  0.21875433  0.30810469  0.39437401  0.4791028   0.56075054
  0.63777672  0.71172184  0.7810454   0.84882843  0.91353042  0.97515136
  1.0367723   1.09531219  1.14923051  1.19698674  1.23858087  1.26939134
  1.2863371   1.2863371   1.27093186  1.2339593   1.18004098  1.10763637
  1.01982654  0.91815199  0.80569377  0.68399242  0.55921002  0.42980605
  0.29732103  0.16637653  0.03389152 -0.09705298 -0.22799747 -0.35894197
 -0.48988646 -0.61929043 -0.74869441 -0.8796389  -1.00904287 -1.13844684
 -1.26785082 -1.39725479 -1.52665876 -1.65606273 -1.78700723 -1.9164112
 -2.04581517 -2.17521914 -2.30462311 -2.43402708 -2.56343105 -2.69283503
 -2.822239   -2.95164297 -3.08104694 -3.20891039 -3.33677384 -3.46309676
 -3.58633864 -3.70803999 -3.82357925 -3.93295642 -4.03617149 -4.13168395
 -4.21949378 -4.29806048 -4.37200561 -4.44286969 -4.51681481 -4.59692203
 -4.68781292 -4.79256851 -4.91426987 -5.05137646 -5.20080723 -5.35794063
 -5.51969559 -5.67682899 -5.82625976 -5.96182583 -6.08352718 -6.18828278
 -6.27763314 -6.35311879 -6.41628025 -6.46865805 -6.51333323 -6.54876527
 -6.57803522 -6.60114307 -6.61500778 -6.62116987 -6.6165483  -6.60268359
 -6.57803522 -6.54106265 -6.49484695 -6.43630706 -6.36852402 -6.29303837
 -6.20985011 -6.11895922 -6.02498729 -5.92793431 -5.82625976 -5.72150417
 -5.61520805 -5.50429036 -5.39029162 -5.27013079 -5.14534839 -5.01286337
 -4.87421626 -4.72786653 -4.57689523 -4.42284288 -4.27187158 -4.1286029
 -3.99919893 -3.88828124 -3.80355245 -3.74963413 -3.7280668  -3.74039098
 -3.78660669 -3.86209234]",0.4714623953007878,0.6106249903717172,6.3509,0.07469999999999999
050,1,2,csp,28b.png,1,1,356,2,360,1,1,462,pos_feedback_onset,8,"[ 8.72944265e-02 -4.95102718e-02 -1.66771442e-01 -2.66117711e-01
 -3.42663197e-01 -3.96407899e-01 -4.27351819e-01 -4.33866329e-01
 -4.17580055e-01 -3.78492999e-01 -3.16605159e-01 -2.31916536e-01
 -1.26055758e-01 -6.51450944e-04  1.42667757e-01  3.02273238e-01
  4.74907738e-01  6.57314003e-01  8.47863404e-01  1.04167006e+00
  1.23547672e+00  1.42439749e+00  1.60843238e+00  1.78106688e+00
  1.94230099e+00  2.09050608e+00  2.22242490e+00  2.33805744e+00
  2.44066096e+00  2.52534958e+00  2.59863782e+00  2.65889703e+00
  2.70938448e+00  2.75172879e+00  2.78755859e+00  2.81687388e+00
  2.83967467e+00  2.86084682e+00  2.87550447e+00  2.88690486e+00
  2.89504800e+00  2.89830525e+00  2.89830525e+00  2.89504800e+00
  2.89016211e+00  2.88527623e+00  2.88039035e+00  2.87550447e+00
  2.87224721e+00  2.87061859e+00  2.86898996e+00  2.87061859e+00
  2.87061859e+00  2.86898996e+00  2.86410408e+00  2.85433231e+00
  2.83967467e+00  2.82013114e+00  2.79570173e+00  2.76312918e+00
  2.72729938e+00  2.68821232e+00  2.64423938e+00  2.59863782e+00
  2.54977900e+00  2.50092017e+00  2.45043273e+00  2.39994528e+00
  2.34945783e+00  2.29734175e+00  2.24685431e+00  2.19473823e+00
  2.14262216e+00  2.09213471e+00  2.04001863e+00  1.98953118e+00
  1.93741511e+00  1.88692766e+00  1.83806884e+00  1.78758139e+00
  1.74035120e+00  1.69312100e+00  1.64914807e+00  1.60680375e+00
  1.56934532e+00  1.53351552e+00  1.50420023e+00  1.47814219e+00
  1.45697004e+00  1.44231239e+00  1.43254063e+00  1.42765474e+00
  1.42928337e+00  1.43579788e+00  1.44556964e+00  1.45859866e+00
  1.47325631e+00  1.48628533e+00  1.49442847e+00  1.49442847e+00
  1.48465670e+00  1.46185592e+00  1.42439749e+00  1.36902416e+00
  1.29736456e+00  1.21104731e+00  1.11332966e+00  1.00584026e+00
  8.93464970e-01  7.81089682e-01  6.71971649e-01  5.72625380e-01
  4.83050875e-01  4.09762644e-01  3.54389314e-01  3.18559512e-01
  3.02273238e-01  3.07159120e-01  3.31588531e-01  3.73932842e-01
  4.35820682e-01  5.12366168e-01  6.05197927e-01  7.07801451e-01
  8.21805366e-01  9.45581045e-01  1.07424261e+00  1.20616142e+00
  1.34296612e+00  1.47814219e+00  1.61331826e+00  1.74686571e+00
  1.87389864e+00  1.99441707e+00  2.10679235e+00  2.21102450e+00
  2.30711352e+00  2.39343077e+00  2.47160488e+00  2.54489311e+00
  2.61655272e+00  2.69309820e+00  2.77615820e+00  2.87387584e+00
  2.99113701e+00  3.13282759e+00  3.30057621e+00  3.49764012e+00
  3.72076207e+00  3.96668480e+00  4.22563655e+00  4.49110281e+00
  4.75331181e+00  4.99923455e+00  5.22235649e+00  5.41453452e+00
  5.56762549e+00  5.68325804e+00  5.75654627e+00  5.79400470e+00
  5.79726195e+00  5.77283254e+00  5.72397372e+00  5.65720000e+00
  5.57576863e+00  5.48619413e+00  5.38847648e+00  5.28750159e+00
  5.18326944e+00  5.07740866e+00  4.96991925e+00  4.86242985e+00
  4.75331181e+00  4.64419378e+00  4.53181849e+00  4.41944320e+00
  4.30543929e+00  4.18980675e+00  4.07417420e+00  3.95854166e+00
  3.84453775e+00  3.73379109e+00  3.62793031e+00  3.53021267e+00
  3.44552404e+00  3.37549307e+00  3.32500562e+00  3.29243307e+00
  3.27940405e+00  3.28591856e+00  3.30546209e+00  3.33314876e+00
  3.35757817e+00  3.37223581e+00  3.36572130e+00  3.32826287e+00
  3.25171739e+00  3.13445622e+00  2.97322211e+00  2.77127232e+00
  2.53186409e+00  2.26151195e+00  1.97324491e+00  1.67357748e+00
  1.37879592e+00  1.10192927e+00  8.56006541e-01  6.55685375e-01
  5.18880677e-01  4.55364210e-01  4.76536366e-01  5.87283026e-01
  7.89232819e-01  1.07749986e+00  1.43905514e+00  1.86086962e+00
  2.32014254e+00  2.80058761e+00  3.28103268e+00  3.74356285e+00
  4.17514910e+00  4.56601967e+00  4.90966004e+00  5.20444159e+00
  5.45036432e+00  5.64742823e+00  5.80051921e+00  5.90963724e+00
  5.97966822e+00  6.01549802e+00  6.01549802e+00  5.98455410e+00
  5.92429489e+00  5.83797764e+00  5.72723098e+00  5.59205490e+00
  5.43733531e+00  5.26144355e+00  5.07089415e+00  4.86568710e+00
  4.64745104e+00  4.41944320e+00  4.18329224e+00  3.94062676e+00
  3.69307540e+00  3.44226679e+00  3.18982955e+00  2.93576368e+00
  2.68006918e+00  2.42437469e+00  2.16705157e+00  1.91135707e+00
  1.65403395e+00  1.39833945e+00  1.14101633e+00  8.83693206e-01
  6.26370083e-01  3.70675587e-01  1.13352464e-01 -1.42342031e-01]","[-1.03290823 -0.89112156 -0.75238407 -0.62126952 -0.49472874 -0.3742863
 -0.25994222 -0.15169649 -0.04802452  0.05107369  0.14559813  0.23402423
  0.31482738  0.39105677  0.45813863  0.51759755  0.56943354  0.61364659
  0.65023669  0.68072845  0.70817103  0.73256443  0.75543325  0.78135124
  0.80879382  0.84233475  0.88197404  0.92618708  0.97649848  1.03290823
  1.09084256  1.15182608  1.21433417  1.2737931   1.33020285  1.38203883
  1.4232027   1.45369446  1.46894034  1.46436657  1.43692399  1.38051424
  1.29361274  1.17164572  1.01613776  0.82556429  0.60449906  0.35751584
  0.0876638  -0.19743412 -0.49167956 -0.78897418 -1.08779339 -1.38203883
 -1.67171051 -1.95528384 -2.23428341 -2.50566003 -2.7724629  -3.03164282
 -3.28167522 -3.5210355  -3.74514991 -3.94944467 -4.12629685 -4.2696081
 -4.37480466 -4.43121441 -4.43883735 -4.3946243  -4.30009986 -4.1583132
 -3.98146101 -3.77564166 -3.55762561 -3.33960955 -3.13226561 -2.94779049
 -2.79380712 -2.67488928 -2.59256154 -2.5468239  -2.5346272  -2.55139767
 -2.59256154 -2.65202046 -2.72672526 -2.81057759 -2.90052827 -2.99352812
 -3.08652798 -3.17800325 -3.26185558 -3.33503579 -3.3960193  -3.43718317
 -3.45700281 -3.45090446 -3.41431435 -3.34875708 -3.25270805 -3.13074103
 -2.98742977 -2.83192182 -2.6718401  -2.51480756 -2.36997172 -2.24190634
 -2.13670979 -2.05590663 -1.9979723  -1.9598576  -1.94003796 -1.93393961
 -1.9354642  -1.94156255 -1.94918549 -1.95680843 -1.96138219 -1.96443137
 -1.96595595 -1.96443137 -1.96443137 -1.96443137 -1.96748054 -1.97205431
 -1.98272642 -1.99492312 -2.010169   -2.02693947 -2.04370993 -2.05895581
 -2.06962792 -2.07420169 -2.07115251 -2.05895581 -2.03913617 -2.01169359
 -1.97510348 -1.93089044]",4.033458520489767,0.4722410678212895,6.14014,-0.06295500000000143
050,1,2,csp,44b.png,1,1,224,233,227,1,1,301,pos_feedback_onset,9,"[ 2.03450019e-02  2.80514420e-02  3.42165941e-02  3.72991702e-02
  3.88404582e-02  4.03817462e-02  4.19230342e-02  4.34643223e-02
  4.65468983e-02  4.96294744e-02  5.27120504e-02  5.27120504e-02
  5.11707624e-02  4.19230342e-02  2.49688660e-02 -4.31560647e-03
 -4.59303831e-02 -1.04499328e-01 -1.78481153e-01 -2.70958435e-01
 -3.80389884e-01 -5.05234214e-01 -6.42408848e-01 -7.91913787e-01
 -9.49125165e-01 -1.11096041e+00 -1.27125436e+00 -1.42692445e+00
 -1.57488810e+00 -1.70898016e+00 -1.82303547e+00 -1.91705404e+00
 -1.98641200e+00 -2.02956807e+00 -2.04652224e+00 -2.04035709e+00
 -2.01261390e+00 -1.96791655e+00 -1.91243018e+00 -1.85077866e+00
 -1.78758585e+00 -1.72439304e+00 -1.66582410e+00 -1.61187902e+00
 -1.56564037e+00 -1.52556689e+00 -1.49319984e+00 -1.46853923e+00
 -1.45158506e+00 -1.44079604e+00 -1.43771347e+00 -1.44079604e+00
 -1.44850248e+00 -1.45929150e+00 -1.47316309e+00 -1.48857597e+00
 -1.50244757e+00 -1.51323658e+00 -1.52094302e+00 -1.52556689e+00
 -1.52556689e+00 -1.52094302e+00 -1.51477787e+00 -1.50398885e+00
 -1.49165855e+00 -1.47778696e+00 -1.46237408e+00 -1.44541991e+00
 -1.42692445e+00 -1.40842900e+00 -1.38530968e+00 -1.36064907e+00
 -1.32982331e+00 -1.29437368e+00 -1.24813504e+00 -1.19264867e+00
 -1.12174942e+00 -1.03851987e+00 -9.38336149e-01 -8.22739547e-01
 -6.96353929e-01 -5.60720583e-01 -4.23545949e-01 -2.92536467e-01
 -1.76939865e-01 -8.29212957e-02 -1.97284867e-02  4.93212168e-03
 -1.35633346e-02 -7.52148556e-02 -1.81563729e-01 -3.29527379e-01
 -5.16023230e-01 -7.36427418e-01 -9.86116077e-01 -1.25738277e+00
 -1.54868621e+00 -1.85386123e+00 -2.16828399e+00 -2.49195448e+00
 -2.82179011e+00 -3.15624961e+00 -3.49225040e+00 -3.82825119e+00
 -4.16425198e+00 -4.49408762e+00 -4.81929939e+00 -5.13063957e+00
 -5.42502559e+00 -5.69475099e+00 -5.93365063e+00 -6.13247679e+00
 -6.28506430e+00 -6.38216545e+00 -6.42378022e+00 -6.40528477e+00
 -6.33130294e+00 -6.20491733e+00 -6.03383435e+00 -5.83038434e+00
 -5.60535628e+00 -5.37108050e+00 -5.13526344e+00 -4.90869410e+00
 -4.69599635e+00 -4.50333535e+00 -4.33225238e+00 -4.18120615e+00
 -4.05173796e+00 -3.93922393e+00 -3.84212279e+00 -3.75426937e+00
 -3.67412239e+00 -3.59551670e+00 -3.51536972e+00 -3.43059888e+00
 -3.33812160e+00 -3.23639659e+00 -3.12696514e+00 -3.00828596e+00
 -2.88344163e+00 -2.75705602e+00 -2.63067040e+00 -2.50736736e+00
 -2.39331204e+00 -2.29004575e+00 -2.20065104e+00 -2.12975179e+00
 -2.07734800e+00 -2.04806353e+00 -2.04343966e+00 -2.06501769e+00
 -2.11742149e+00 -2.19910975e+00 -2.31624764e+00 -2.46575258e+00
 -2.64916585e+00 -2.86186360e+00 -3.10076325e+00 -3.35661706e+00
 -3.61863602e+00 -3.87603112e+00 -4.11338948e+00 -4.31992207e+00
 -4.48329860e+00 -4.59735392e+00 -4.65592286e+00 -4.65900544e+00
 -4.61122551e+00 -4.51720694e+00 -4.38928003e+00 -4.23669252e+00
 -4.07485728e+00 -3.90993946e+00 -3.75581066e+00 -3.61863602e+00
 -3.50303942e+00 -3.41210343e+00 -3.35199319e+00 -3.32116743e+00
 -3.32579130e+00 -3.36740607e+00 -3.44909434e+00 -3.57702125e+00
 -3.75272808e+00 -3.97775613e+00 -4.25210540e+00 -4.56961073e+00
 -4.92102440e+00 -5.29401610e+00 -5.67317296e+00 -6.03999951e+00
 -6.38062416e+00 -6.67963404e+00 -6.92778141e+00 -7.12044241e+00
 -7.25607576e+00 -7.33930531e+00 -7.37321365e+00 -7.36858978e+00
 -7.33159887e+00 -7.27148864e+00 -7.19288295e+00 -7.10348824e+00
 -7.00484581e+00 -6.90003822e+00 -6.79060677e+00 -6.67809275e+00
 -6.56095486e+00 -6.43765182e+00 -6.30510105e+00 -6.16330255e+00
 -6.00609117e+00 -5.83038434e+00 -5.63464076e+00 -5.41577786e+00
 -5.17379564e+00 -4.91177667e+00 -4.63434483e+00 -4.34766526e+00
 -4.06560955e+00 -3.79588414e+00 -3.55236064e+00 -3.34582804e+00
 -3.18245151e+00 -3.06839620e+00 -3.00520339e+00 -2.98824922e+00
 -3.01290983e+00 -3.07147877e+00 -3.15624961e+00 -3.25951591e+00
 -3.37357123e+00 -3.49225040e+00 -3.61092958e+00 -3.72806747e+00
 -3.84212279e+00 -3.95001295e+00 -4.05327924e+00 -4.15038039e+00
 -4.23977510e+00 -4.31992207e+00 -4.38928003e+00 -4.44322511e+00
 -4.47867474e+00 -4.49408762e+00 -4.48638118e+00 -4.45401413e+00
 -4.39698647e+00 -4.31375692e+00 -4.20894933e+00 -4.08410500e+00
 -3.94384779e+00 -3.79280157e+00 -3.63713148e+00 -3.48146139e+00
 -3.33041516e+00 -3.18861666e+00 -3.05606589e+00 -2.93738672e+00]","[-1.14852866 -1.06133609 -0.96324444 -0.85581072 -0.73747794 -0.61291711
 -0.48057124 -0.34355433 -0.20498041 -0.06640649  0.07061042  0.20451331
  0.33685918  0.46453403  0.59065187  0.71521269  0.83821651  0.96122032
  1.08422414  1.20878496  1.33023177  1.45012156  1.56534033  1.67588806
  1.77865074  1.87362837  1.96082095  2.03867147  2.11029394  2.17568837
  2.23485477  2.29090714  2.34073147  2.38744178  2.42792405  2.45906425
  2.47619137  2.47619137  2.45439322  2.40301188  2.32204734  2.2099426
  2.06514064  1.89386951  1.70235724  1.49683187  1.28819249  1.08266713
  0.88804084  0.70898465  0.5501696   0.41159568  0.29170588  0.1889432
  0.10175062  0.02390011 -0.04616536 -0.10844577 -0.16761216 -0.22522154
 -0.2797169  -0.33421227 -0.38870763 -0.44164598 -0.49458433 -0.54752268
 -0.60046103 -0.65495639 -0.70789474 -0.75927608 -0.81221443 -0.86359578
 -0.91497712 -0.96480145 -1.01462578 -1.06133609 -1.10648939 -1.15008567
 -1.19212495 -1.23260722 -1.26997547 -1.30734372 -1.34471196 -1.38208021
 -1.41944846 -1.45681671 -1.49574197 -1.53466722 -1.57514949 -1.61251774
 -1.64988599 -1.68569723 -1.71995145 -1.75264867 -1.78378888 -1.81337207
 -1.84295527 -1.86942444 -1.89745063 -1.9239198  -1.95038898 -1.97685816
 -2.00177032 -2.0282395  -2.05470867 -2.07962084 -2.10609001 -2.13100218
 -2.15591434 -2.18082651 -2.20573867 -2.22753682 -2.24933496 -2.26801909
 -2.28203218 -2.29137424 -2.29604527 -2.29448826 -2.28358919 -2.26646208
 -2.24154991 -2.21196671 -2.1792695  -2.14657228 -2.11854609 -2.09986197
 -2.09674795 -2.11387506 -2.15435733 -2.2244228  -2.32251445 -2.45018929
 -2.60744734 -2.79117455 -2.9935859  -3.21312435 -3.44044786 -3.66777137
 -3.89042384 -4.09750621]",-0.3454026460832657,1.5807158043554443,6.488079999999999,-0.017569999999999197
050,1,2,csm,58a.png,1,1,260,77,NaN,0,1,295,neu_feedback_onset,10,"[-1.19285937e-01 -5.72985748e-02 -2.39207643e-02 -1.27948274e-02
 -1.91525056e-02 -3.66361207e-02 -6.20668335e-02 -8.74975463e-02
 -1.09749420e-01 -1.25643616e-01 -1.30411874e-01 -1.22464776e-01
 -9.86234832e-02 -6.04774140e-02 -9.61598829e-03  5.55502133e-02
  1.30252932e-01  2.11313329e-01  2.97141985e-01  3.81381221e-01
  4.60852199e-01  5.33965498e-01  5.95952861e-01  6.48403706e-01
  6.88139195e-01  7.15159327e-01  7.32642942e-01  7.39000621e-01
  7.37411201e-01  7.29464103e-01  7.15159327e-01  6.96086293e-01
  6.73834419e-01  6.48403706e-01  6.19794154e-01  5.89595183e-01
  5.57806792e-01  5.22839562e-01  4.87872331e-01  4.51315682e-01
  4.14759032e-01  3.78202382e-01  3.43235152e-01  3.09857342e-01
  2.76479531e-01  2.44691140e-01  2.14492169e-01  1.84293197e-01
  1.55683645e-01  1.28663513e-01  1.01643380e-01  7.46232480e-02
  4.76031156e-02  2.05829832e-02 -4.84772963e-03 -3.18678620e-02
 -5.72985748e-02 -8.43187072e-02 -1.09749420e-01 -1.36769552e-01
 -1.62200265e-01 -1.89220398e-01 -2.14651110e-01 -2.41671243e-01
 -2.67101956e-01 -2.94122088e-01 -3.19552801e-01 -3.46572933e-01
 -3.72003646e-01 -3.99023779e-01 -4.24454491e-01 -4.49885204e-01
 -4.75315917e-01 -4.99157210e-01 -5.22998504e-01 -5.43660958e-01
 -5.61144573e-01 -5.73859929e-01 -5.80217607e-01 -5.77038768e-01
 -5.64323412e-01 -5.37303280e-01 -4.97567791e-01 -4.43527526e-01
 -3.75182485e-01 -2.94122088e-01 -2.06704013e-01 -1.16107098e-01
 -3.02784425e-02  4.44242765e-02  1.01643380e-01  1.33431771e-01
  1.33431771e-01  1.00053961e-01  3.01195005e-02 -7.79610290e-02
 -2.24187628e-01 -4.06970876e-01 -6.23131935e-01 -8.71081385e-01
 -1.14605097e+00 -1.44486184e+00 -1.76433517e+00 -2.09970270e+00
 -2.44778558e+00 -2.80540498e+00 -3.16938206e+00 -3.53494855e+00
 -3.89733621e+00 -4.25177677e+00 -4.59350198e+00 -4.91456473e+00
 -5.20383908e+00 -5.45337795e+00 -5.64887656e+00 -5.78079838e+00
 -5.83483865e+00 -5.80305026e+00 -5.67907553e+00 -5.46609331e+00
 -5.16569301e+00 -4.79217942e+00 -4.36144672e+00 -3.89415737e+00
 -3.40779499e+00 -2.92302203e+00 -2.46050094e+00 -2.02817882e+00
 -1.63877103e+00 -1.29227757e+00 -9.93466691e-01 -7.35980724e-01
 -5.16640825e-01 -3.29089318e-01 -1.70147363e-01 -3.34572816e-02
  8.57491848e-02  1.89061456e-01  2.78068951e-01  3.55950509e-01
  4.22706130e-01  4.79925234e-01  5.27607820e-01  5.64164470e-01
  5.92774022e-01  6.11847057e-01  6.21383574e-01  6.19794154e-01
  6.05489378e-01  5.76879826e-01  5.33965498e-01  4.73567555e-01
  3.95685997e-01  2.95552566e-01  1.77935519e-01  3.96560178e-02
 -1.14517679e-01 -2.84585571e-01 -4.65779400e-01 -6.53330907e-01
 -8.42471833e-01 -1.03161276e+00 -1.21280659e+00 -1.38446390e+00
 -1.54499528e+00 -1.69122187e+00 -1.82314370e+00 -1.94076074e+00
 -2.04566243e+00 -2.13943819e+00 -2.22526684e+00 -2.30473782e+00
 -2.38102996e+00 -2.45414326e+00 -2.53043540e+00 -2.60831696e+00
 -2.69096677e+00 -2.77838485e+00 -2.86898176e+00 -2.96434694e+00
 -3.06289095e+00 -3.16302438e+00 -3.26156839e+00 -3.35852298e+00
 -3.44911990e+00 -3.53494855e+00 -3.61441953e+00 -3.68753283e+00
 -3.75587787e+00 -3.81945465e+00 -3.88144202e+00 -3.94342938e+00
 -4.00700616e+00 -4.07058294e+00 -4.13415973e+00 -4.19773651e+00
 -4.25813445e+00 -4.31217472e+00 -4.35826788e+00 -4.39323511e+00
 -4.41548699e+00 -4.42502350e+00 -4.42343408e+00 -4.40912931e+00
 -4.38687743e+00 -4.35508904e+00 -4.31853239e+00 -4.27720749e+00
 -4.23270374e+00 -4.18661057e+00 -4.13892798e+00 -4.08965598e+00
 -4.04197339e+00 -3.99270139e+00 -3.94183996e+00 -3.89256795e+00
 -3.84329595e+00 -3.79402394e+00 -3.74316252e+00 -3.69389051e+00
 -3.64302908e+00 -3.59057824e+00 -3.53812739e+00 -3.48249771e+00
 -3.42368919e+00 -3.35693356e+00 -3.28223085e+00 -3.19481277e+00
 -3.09150050e+00 -2.96593635e+00 -2.81653092e+00 -2.63851593e+00
 -2.43030197e+00 -2.19347845e+00 -1.93122423e+00 -1.65148639e+00
 -1.36062261e+00 -1.06975883e+00 -7.93199827e-01 -5.40482119e-01
 -3.24321060e-01 -1.54253168e-01 -3.34572816e-02  3.01195005e-02
  3.80665983e-02 -1.12054078e-02 -1.16107098e-01 -2.71870214e-01
 -4.76905337e-01 -7.24854787e-01 -1.01095031e+00 -1.32724480e+00
 -1.66579116e+00 -2.02341056e+00 -2.38897706e+00 -2.75613297e+00
 -3.12169947e+00 -3.47772945e+00 -3.82263349e+00 -4.15482218e+00]","[-0.10343018 -0.13121739 -0.16054833 -0.18833555 -0.21149156 -0.22847263
 -0.23773503 -0.23464757 -0.21921023 -0.19142301 -0.1497422  -0.09571151
 -0.03087468  0.04322455  0.12504245  0.21303529  0.30411559  0.3998271
  0.49862608  0.59896879  0.70239896  0.80737287  0.91543425  1.02349563
  1.13310074  1.24116212  1.3445923   1.44184754  1.53138411  1.60857081
  1.67495137  1.72743833  1.76911915  1.79999383  1.82314983  1.84013091
  1.85711198  1.87409306  1.89261786  1.91423014  1.93892988  1.96517336
  1.98832937  2.00685418  2.01920405  2.02074778  2.00994165  1.98678564
  1.94973602  1.8987928   1.83704344  1.76448794  1.68421378  1.59776467
  1.50514063  1.41097286  1.31217389  1.21337491  1.1130322   1.01114576
  0.90925932  0.80737287  0.70703016  0.60514372  0.50171354  0.3998271
  0.29794066  0.19451048  0.09108031 -0.01234987 -0.11886752 -0.22847263
 -0.34270894 -0.46157646 -0.58970638 -0.72709871 -0.87838464 -1.04356417
 -1.22726852 -1.42949767 -1.65179536 -1.89570533 -2.15814011 -2.43755596
 -2.73240915 -3.03652475 -3.34681528 -3.65864954 -3.9658526  -4.265337
 -4.55092778 -4.82108123 -5.07116614 -5.29963877 -5.50649912 -5.6917472
 -5.855383   -5.99586279 -6.11627404 -6.21507302 -6.29534719 -6.35400908
 -6.39414616 -6.41575844 -6.42038964 -6.4095835  -6.38488376 -6.34937788
 -6.30460959 -6.25366637 -6.19654821 -6.13634259 -6.07459323 -6.0097564
 -5.94491957 -5.88008274 -5.81370218 -5.74732162 -5.68094106 -5.61301676
 -5.54509247 -5.47716817 -5.40770015 -5.33514465 -5.25795795 -5.17614005
 -5.08660348 -4.9878045  -4.87665565 -4.75006947 -4.60650221 -4.44749761
 -4.27305567 -4.08626386 -3.89329711 -3.69724289 -3.50736361 -3.33292167
 -3.1754608  -3.04578715]",0.37641428538504007,1.5776189447034585,6.291605000000001,
050,1,2,csp,10b.png,1,1,316,12,NaN,0,1,380,neg_feedback_onset,11,"[nan nan nan nan nan nan nan nan nan nan nan nan nan nan nan nan nan nan
 nan nan nan nan nan nan nan nan nan nan nan nan nan nan nan nan nan nan
 nan nan nan nan nan nan nan nan nan nan nan nan nan nan nan nan nan nan
 nan nan nan nan nan nan nan nan nan nan nan nan nan nan nan nan nan nan
 nan nan nan nan nan nan nan nan nan nan nan nan nan nan nan nan nan nan
 nan nan nan nan nan nan nan nan nan nan nan nan nan nan nan nan nan nan
 nan nan nan nan nan nan nan nan nan nan nan nan nan nan nan nan nan nan
 nan nan nan nan nan nan nan nan nan nan nan nan nan nan nan nan nan nan
 nan nan nan nan nan nan nan nan nan nan nan nan nan nan nan nan nan nan
 nan nan nan nan nan nan nan nan nan nan nan nan nan nan nan nan nan nan
 nan nan nan nan nan nan nan nan nan nan nan nan nan nan nan nan nan nan
 nan nan nan nan nan nan nan nan nan nan nan nan nan nan nan nan nan nan
 nan nan nan nan nan nan nan nan nan nan nan nan nan nan nan nan nan nan
 nan nan nan nan nan nan nan nan nan nan nan nan nan nan nan nan nan nan
 nan nan nan nan nan nan nan nan]","[-1.24755973 -1.13654044 -1.01613923 -0.89104708 -0.75813666 -0.61740798
 -0.47198835 -0.32344141 -0.17020352 -0.01852928  0.13314497  0.2785646
  0.41616597  0.54594909  0.66165933  0.76642401  0.85711583  0.93529843
  1.00097181  1.05569963  1.10260919  1.13857318  1.16984622  1.19642831
  1.21988309  1.24021056  1.25897439  1.27617456  1.29337473  1.3105749
  1.32933872  1.3465389   1.36373907  1.38093924  1.39813941  1.41221228
  1.42472149  1.43253975  1.43253975  1.42472149  1.40595767  1.37468463
  1.32933872  1.2683563   1.19173735  1.10104554  0.99940816  0.89151617
  0.77893323  0.66947759  0.56471291  0.46776649  0.38332928  0.30827399
  0.24572791  0.19412739  0.15034514  0.11281749  0.08154445  0.05339871
  0.02838028  0.0049255  -0.01696562 -0.03885675 -0.06074788 -0.08263901
 -0.10453013 -0.12485761 -0.14674874 -0.16707621 -0.18896734 -0.21085847
 -0.23118594 -0.25307707 -0.27340455 -0.29529567 -0.31562315 -0.33751428
 -0.35940541 -0.37973288 -0.40162401 -0.42195148 -0.44384261 -0.46573374
 -0.48606122 -0.50795234 -0.52827982 -0.55017095 -0.57206207 -0.59238955
 -0.61428068 -0.63460815 -0.65649928 -0.67839041 -0.69871788 -0.72060901
 -0.74093649 -0.76282761 -0.78471874 -0.80504622 -0.82693735 -0.84726482
 -0.86915595 -0.89104708 -0.91137455 -0.93326568 -0.95359315 -0.97548428
 -0.99737541 -1.01770289 -1.03959401 -1.05992149 -1.08024896 -1.09901279
 -1.11777661 -1.13497678 -1.147486   -1.15686791 -1.15999522 -1.15374061
 -1.13966774 -1.111522   -1.07086705 -1.01613923 -0.9489022  -0.8707196
 -0.7894097  -0.7080998  -0.6361718  -0.57988033 -0.54860729 -0.54704364
 -0.58300764 -0.65649928 -0.76908222 -0.91919281 -1.10370374 -1.31792406
 -1.55716282 -1.81516539]",,1.0617196888019784,6.259224999999999,
050,1,2,csp,6b.png,1,1,36,40,NaN,0,0,387,neg_feedback_onset,12,"[ 2.01055122e+00  1.72122759e+00  1.39553185e+00  1.04338366e+00
  6.74702699e-01  3.04368456e-01 -5.43928420e-02 -3.86701694e-01
 -6.74372044e-01 -9.02524390e-01 -1.05958579e+00 -1.13398329e+00
 -1.12075707e+00 -1.02321367e+00 -8.46312942e-01 -6.04934373e-01
 -3.15610746e-01  3.47188353e-03  3.27514346e-01  6.41637142e-01
  9.27654214e-01  1.17564589e+00  1.37403924e+00  1.52118097e+00
  1.61541781e+00  1.65840303e+00  1.65178992e+00  1.60053831e+00
  1.50630147e+00  1.37734579e+00  1.21697784e+00  1.03346400e+00
  8.33417375e-01  6.25104363e-01  4.16791351e-01  2.15091451e-01
  2.99243295e-02 -1.32096902e-01 -2.69318965e-01 -3.76782027e-01
 -4.52832809e-01 -5.00777867e-01 -5.22270480e-01 -5.18963924e-01
 -4.97471311e-01 -4.61099198e-01 -4.13154140e-01 -3.55289415e-01
 -2.92464855e-01 -2.24680463e-01 -1.55242792e-01 -8.41518437e-02
 -1.30608952e-02  5.96833312e-02  1.32427557e-01  2.05171784e-01
  2.77916010e-01  3.52313514e-01  4.25057741e-01  4.97801967e-01
  5.70546193e-01  6.44943698e-01  7.17687924e-01  7.90432150e-01
  8.64829655e-01  9.37573881e-01  1.01197139e+00  1.08636889e+00
  1.16407295e+00  1.24177701e+00  1.32278762e+00  1.40875807e+00
  1.50134163e+00  1.60053831e+00  1.70800137e+00  1.82538410e+00
  1.95433977e+00  2.09156184e+00  2.23870357e+00  2.39245841e+00
  2.54786653e+00  2.69996809e+00  2.84710982e+00  2.98267861e+00
  3.10336789e+00  3.20752440e+00  3.29349485e+00  3.35962596e+00
  3.41087758e+00  3.44724969e+00  3.47370214e+00  3.49023491e+00
  3.50346114e+00  3.51503408e+00  3.52660703e+00  3.53983325e+00
  3.55471275e+00  3.57124553e+00  3.59108486e+00  3.61092420e+00
  3.63076353e+00  3.64894959e+00  3.66713565e+00  3.68201515e+00
  3.69524137e+00  3.70681432e+00  3.71673398e+00  3.72830693e+00
  3.73822659e+00  3.74979954e+00  3.76467904e+00  3.78286510e+00
  3.80435771e+00  3.83081016e+00  3.85891588e+00  3.89198144e+00
  3.92835355e+00  3.96803222e+00  4.00936417e+00  4.05234939e+00
  4.09698789e+00  4.14327967e+00  4.18957145e+00  4.23586323e+00
  4.28215501e+00  4.32679352e+00  4.36812546e+00  4.40945741e+00
  4.44748280e+00  4.48220164e+00  4.51526719e+00  4.54502620e+00
  4.57147864e+00  4.59462453e+00  4.61611714e+00  4.63430320e+00
  4.64918270e+00  4.66075565e+00  4.66571548e+00  4.66406220e+00
  4.65414254e+00  4.63595648e+00  4.60619748e+00  4.56321225e+00
  4.51030736e+00  4.44582952e+00  4.37308530e+00  4.29538124e+00
  4.21437062e+00  4.13336001e+00  4.05896250e+00  3.99117811e+00
  3.93331338e+00  3.88867488e+00  3.85560932e+00  3.83576999e+00
  3.82750360e+00  3.82915688e+00  3.83907655e+00  3.85560932e+00
  3.87710194e+00  3.90024783e+00  3.92670027e+00  3.95480600e+00
  3.98291172e+00  4.01432400e+00  4.04738956e+00  4.08706823e+00
  4.13501328e+00  4.19122473e+00  4.25900912e+00  4.34001974e+00
  4.43590986e+00  4.54337292e+00  4.66406220e+00  4.79136460e+00
  4.92528011e+00  5.05919561e+00  5.19145784e+00  5.31710696e+00
  5.43614297e+00  5.54360603e+00  5.64114942e+00  5.72711987e+00
  5.80482393e+00  5.87426160e+00  5.93873944e+00  5.99660417e+00
  6.05281561e+00  6.10572051e+00  6.15862540e+00  6.20987701e+00
  6.26112863e+00  6.30907368e+00  6.35536547e+00  6.40000397e+00
  6.43968264e+00  6.47605475e+00  6.50912031e+00  6.53557275e+00
  6.55541209e+00  6.57029159e+00  6.57855798e+00  6.58186453e+00
  6.57690470e+00  6.56863831e+00  6.55375881e+00  6.53557275e+00
  6.51408014e+00  6.49093425e+00  6.46613508e+00  6.44133591e+00
  6.41653675e+00  6.39173758e+00  6.36693841e+00  6.34213924e+00
  6.31899335e+00  6.29584746e+00  6.27270157e+00  6.25120896e+00
  6.22806307e+00  6.20491718e+00  6.18342457e+00  6.16027868e+00
  6.13878606e+00  6.11564017e+00  6.09414756e+00  6.07100167e+00
  6.04785578e+00  6.02636317e+00  6.00321728e+00  5.98172467e+00
  5.95857878e+00  5.93708616e+00  5.91394027e+00  5.89244766e+00
  5.86930177e+00  5.84615588e+00  5.82466327e+00  5.80151738e+00
  5.78002477e+00  5.75687888e+00  5.73538626e+00  5.71224037e+00
  5.69074776e+00  5.66760187e+00  5.64610926e+00  5.62296337e+00
  5.59981748e+00  5.57832487e+00  5.55683225e+00  5.53368636e+00
  5.51219375e+00  5.49235442e+00  5.47416836e+00  5.45763558e+00
  5.44440936e+00  5.43614297e+00  5.43448969e+00  5.44110280e+00]","[-3.24882092e-01 -2.31047776e-01 -1.46443064e-01 -7.10679576e-02
 -6.46072342e-03  4.58403709e-02  8.73735929e-02  1.16600675e-01
  1.36598152e-01  1.44289490e-01  1.44289490e-01  1.36598152e-01
  1.19677210e-01  9.66031978e-02  6.58378481e-02  3.04576961e-02
 -1.26137933e-02 -5.87618177e-02 -1.09524645e-01 -1.63364006e-01
 -2.17203368e-01 -2.71042730e-01 -3.20267289e-01 -3.63338779e-01
 -3.95642396e-01 -4.14101606e-01 -4.14101606e-01 -3.89489326e-01
 -3.38726499e-01 -2.58736590e-01 -1.46443064e-01 -6.46072342e-03
  1.61210432e-01  3.51955599e-01  5.56545174e-01  7.70364354e-01
  9.84183534e-01  1.19184964e+00  1.38720961e+00  1.56411037e+00
  1.71793712e+00  1.84868986e+00  1.95175378e+00  2.02712889e+00
  2.07481518e+00  2.09481265e+00  2.08712132e+00  2.05174116e+00
  1.99174873e+00  1.90868229e+00  1.80561837e+00  1.68563350e+00
  1.55026597e+00  1.40413056e+00  1.24876554e+00  1.08724745e+00
  9.19576300e-01  7.50366877e-01  5.78080919e-01  4.04256694e-01
  2.30432469e-01  5.50699758e-02 -1.20292517e-01 -2.94116742e-01
 -4.69479235e-01 -6.44841728e-01 -8.20204220e-01 -9.95566713e-01
 -1.17092921e+00 -1.34629170e+00 -1.52165419e+00 -1.69701668e+00
 -1.87237918e+00 -2.04774167e+00 -2.22310416e+00 -2.39846665e+00
 -2.57382915e+00 -2.74919164e+00 -2.92455413e+00 -3.09991663e+00
 -3.27527912e+00 -3.45064161e+00 -3.62600410e+00 -3.80136660e+00
 -3.97672909e+00 -4.15209158e+00 -4.32745408e+00 -4.50281657e+00
 -4.67817906e+00 -4.85354155e+00 -5.02736578e+00 -5.20272827e+00
 -5.37809076e+00 -5.55191499e+00 -5.72420095e+00 -5.89341037e+00
 -6.05954326e+00 -6.21952308e+00 -6.36873502e+00 -6.50410256e+00
 -6.61793435e+00 -6.70253906e+00 -6.75176362e+00 -6.75791669e+00
 -6.71023040e+00 -6.60716648e+00 -6.44564840e+00 -6.22875268e+00
 -5.96417067e+00 -5.66113198e+00 -5.33963408e+00 -5.01505964e+00
 -4.70586788e+00 -4.43205626e+00 -4.20439268e+00 -4.03518325e+00
 -3.92750453e+00 -3.88289477e+00 -3.89827745e+00 -3.96596122e+00
 -4.07979301e+00 -4.22746669e+00 -4.40282918e+00 -4.59357435e+00
 -4.79508739e+00 -4.99813870e+00 -5.19349867e+00 -5.37809076e+00
 -5.54268538e+00 -5.68266772e+00 -5.79342298e+00 -5.87187463e+00
 -5.91494611e+00 -5.92571399e+00 -5.90571651e+00 -5.86110675e+00
 -5.79803779e+00 -5.72573921e+00 -5.65036411e+00 -5.57960380e+00]",6.321514600923523,0.8897339104913058,6.04859,
050,1,2,csp,50b.png,1,1,116,127,NaN,0,1,425,neg_feedback_onset,13,"[nan nan nan nan nan nan nan nan nan nan nan nan nan nan nan nan nan nan
 nan nan nan nan nan nan nan nan nan nan nan nan nan nan nan nan nan nan
 nan nan nan nan nan nan nan nan nan nan nan nan nan nan nan nan nan nan
 nan nan nan nan nan nan nan nan nan nan nan nan nan nan nan nan nan nan
 nan nan nan nan nan nan nan nan nan nan nan nan nan nan nan nan nan nan
 nan nan nan nan nan nan nan nan nan nan nan nan nan nan nan nan nan nan
 nan nan nan nan nan nan nan nan nan nan nan nan nan nan nan nan nan nan
 nan nan nan nan nan nan nan nan nan nan nan nan nan nan nan nan nan nan
 nan nan nan nan nan nan nan nan nan nan nan nan nan nan nan nan nan nan
 nan nan nan nan nan nan nan nan nan nan nan nan nan nan nan nan nan nan
 nan nan nan nan nan nan nan nan nan nan nan nan nan nan nan nan nan nan
 nan nan nan nan nan nan nan nan nan nan nan nan nan nan nan nan nan nan
 nan nan nan nan nan nan nan nan nan nan nan nan nan nan nan nan nan nan
 nan nan nan nan nan nan nan nan nan nan nan nan nan nan nan nan nan nan
 nan nan nan nan nan nan nan nan]","[-3.06361507e-01 -2.74153288e-01 -2.43478794e-01 -2.11270576e-01
 -1.79062357e-01 -1.46854139e-01 -1.14645920e-01 -8.39714267e-02
 -5.48306576e-02 -2.56898885e-02  3.45088055e-03  3.25916496e-02
  6.17324187e-02  9.39406372e-02  1.30750030e-01  1.69093147e-01
  2.13571163e-01  2.61116628e-01  3.11729543e-01  3.62342458e-01
  4.11421648e-01  4.55899664e-01  4.91175332e-01  5.12647477e-01
  5.17248651e-01  5.01911404e-01  4.65102012e-01  4.06820474e-01
  3.25533065e-01  2.25840960e-01  1.12345333e-01 -8.81891696e-03
 -1.29983167e-01 -2.43478794e-01 -3.44704624e-01 -4.25992032e-01
 -4.84273570e-01 -5.16481789e-01 -5.25684137e-01 -5.14948064e-01
 -4.88874745e-01 -4.55132801e-01 -4.19857134e-01 -3.92250089e-01
 -3.75379118e-01 -3.73845393e-01 -3.90716364e-01 -4.27525757e-01
 -4.81206121e-01 -5.48690007e-01 -6.29977416e-01 -7.20467173e-01
 -8.18625553e-01 -9.19851382e-01 -1.02567839e+00 -1.13150539e+00
 -1.24039984e+00 -1.34776057e+00 -1.45665502e+00 -1.56554948e+00
 -1.67444393e+00 -1.78333838e+00 -1.89069911e+00 -1.99959356e+00
 -2.10848802e+00 -2.21738247e+00 -2.32627692e+00 -2.43363765e+00
 -2.54253210e+00 -2.65142656e+00 -2.76032101e+00 -2.86921546e+00
 -2.97657619e+00 -3.08547064e+00 -3.19436510e+00 -3.30172582e+00
 -3.40908655e+00 -3.51644728e+00 -3.62380801e+00 -3.72810129e+00
 -3.83239457e+00 -3.93362040e+00 -4.03331250e+00 -4.12840343e+00
 -4.22042691e+00 -4.30631549e+00 -4.38606918e+00 -4.45968796e+00
 -4.52410440e+00 -4.57931849e+00 -4.62533023e+00 -4.65907217e+00
 -4.68054432e+00 -4.69128039e+00 -4.68821294e+00 -4.67440942e+00
 -4.64833610e+00 -4.61459416e+00 -4.57011614e+00 -4.52103695e+00
 -4.46428914e+00 -4.40447387e+00 -4.34159116e+00 -4.27564100e+00
 -4.20969084e+00 -4.14220695e+00 -4.07472307e+00 -4.00570546e+00
 -3.93668784e+00 -3.86767023e+00 -3.79865262e+00 -3.72963501e+00
 -3.66061740e+00 -3.59159979e+00 -3.52258218e+00 -3.45356457e+00
 -3.38301323e+00 -3.31246190e+00 -3.24037684e+00 -3.16675805e+00
 -3.09160554e+00 -3.01338558e+00 -2.93056445e+00 -2.84620959e+00
 -2.75725356e+00 -2.66523008e+00 -2.57013915e+00 -2.47504822e+00
 -2.38149101e+00 -2.29100125e+00 -2.20511267e+00 -2.12842644e+00
 -2.06094255e+00 -2.00266101e+00 -1.95358182e+00 -1.91063753e+00
 -1.87536186e+00 -1.84468737e+00 -1.81554660e+00 -1.78793956e+00]",,0.012768258033837073,6.123759999999999,
050,1,2,csm,54a.png,1,1,144,124,145,1,1,327,neu_feedback_onset,14,"[nan nan nan nan nan nan nan nan nan nan nan nan nan nan nan nan nan nan
 nan nan nan nan nan nan nan nan nan nan nan nan nan nan nan nan nan nan
 nan nan nan nan nan nan nan nan nan nan nan nan nan nan nan nan nan nan
 nan nan nan nan nan nan nan nan nan nan nan nan nan nan nan nan nan nan
 nan nan nan nan nan nan nan nan nan nan nan nan nan nan nan nan nan nan
 nan nan nan nan nan nan nan nan nan nan nan nan nan nan nan nan nan nan
 nan nan nan nan nan nan nan nan nan nan nan nan nan nan nan nan nan nan
 nan nan nan nan nan nan nan nan nan nan nan nan nan nan nan nan nan nan
 nan nan nan nan nan nan nan nan nan nan nan nan nan nan nan nan nan nan
 nan nan nan nan nan nan nan nan nan nan nan nan nan nan nan nan nan nan
 nan nan nan nan nan nan nan nan nan nan nan nan nan nan nan nan nan nan
 nan nan nan nan nan nan nan nan nan nan nan nan nan nan nan nan nan nan
 nan nan nan nan nan nan nan nan nan nan nan nan nan nan nan nan nan nan
 nan nan nan nan nan nan nan nan nan nan nan nan nan nan nan nan nan nan
 nan nan nan nan nan nan nan nan]","[-2.6565154  -2.38577674 -2.11331362 -1.84257495 -1.57183628 -1.30282206
 -1.03380784 -0.76306918 -0.49060606 -0.21296959  0.06984023  0.35954785
  0.65787772  0.96138094  1.27178196  1.58563188  1.90120625  2.21505617
  2.52373274  2.82723597  3.12039248  3.40492675  3.67738987  3.93778184
  4.18782711  4.42580122  4.65515309  4.8724338   5.07936782  5.27767958
  5.46219574  5.63464075  5.79329016  5.93469507  6.05885548  6.16232249
  6.24509609  6.30545185  6.3451142   6.36063425  6.3554609   6.3278697
  6.28130955  6.21578044  6.13645574  6.04333543  5.93986842  5.82605472
  5.70706766  5.5846317   5.45702239  5.32768863  5.19835487  5.06557222
  4.93451401  4.80173135  4.66894869  4.53789048  4.40510782  4.27232516
  4.1395425   4.00675984  3.87570164  3.74291898  3.61013632  3.47735366
  3.344571    3.21351279  3.08073013  2.94794747  2.81516481  2.68238216
  2.5495995   2.41854129  2.28575863  2.15297597  2.02019331  1.88741065
  1.75635244  1.62356978  1.49078713  1.35800447  1.22522181  1.09243915
  0.96138094  0.82859828  0.69581562  0.56303296  0.4302503   0.2991921
  0.16640944  0.03362678 -0.09915588 -0.23193854 -0.3647212  -0.49577941
 -0.62856207 -0.76134473 -0.89412739 -1.02518559 -1.1562438  -1.28557756
 -1.41491132 -1.53907173 -1.65978324 -1.77359694 -1.87706395 -1.96501091
 -2.03571336 -2.08399797 -2.10296692 -2.09089577 -2.04261116 -1.95811311
 -1.83912605 -1.68564999 -1.50630718 -1.30627096 -1.09588805 -0.88205623
 -0.67512222 -0.48370826 -0.3129877  -0.16985834 -0.05776908  0.01983118
  0.06466688  0.07673803  0.05776908  0.01293338 -0.05604463 -0.13881823
 -0.23193854 -0.32850775 -0.4199036  -0.50440166 -0.57337966 -0.62511317
 -0.65787772 -0.67167332]",,5.264573759042593,6.292665000000001,-0.8307650000000004
050,2,2,csp,61b.png,1,0,132,NaN,131,1,1,435,pos_feedback_onset,1,"[-2.59915065 -2.09719543 -1.61677624 -1.17280264 -0.77355773 -0.42401135
 -0.12747675  0.1177027   0.31815347  0.47718879  0.60143513  0.69751897
  0.76709692  0.81513884  0.84661458  0.85986752  0.85986752  0.84495796
  0.82010869  0.78531971  0.74224765  0.69420573  0.64285058  0.59149542
  0.5434535   0.50038144  0.46724908  0.44571305  0.43577334  0.44239981
  0.46393584  0.49872482  0.54511012  0.60143513  0.66604323  0.73396456
  0.80188589  0.86815061  0.92778885  0.97748739  1.01724622  1.04209549
  1.05037858  1.04043887  1.01061975  0.96092121  0.88803002  0.7936028
  0.67763955  0.54179688  0.38938804  0.22206963  0.04481151 -0.13410322
 -0.3080481  -0.46874003 -0.60789594 -0.7155761  -0.78184082 -0.798407
 -0.76030478 -0.66422095 -0.51346872 -0.31301795 -0.07115174  0.19722036
  0.4788454   0.76047045  1.02552931  1.26573891  1.46950291  1.6351647
  1.75941104  1.84224193  1.885314    1.89194047  1.86874782  1.81904928
  1.7461581   1.65504411  1.54902057  1.4314007   1.30549773  1.1729683
  1.03546902  0.8946565   0.75384397  0.61137484  0.47056231  0.33306303
  0.19887698  0.06966078 -0.05127232 -0.16392234 -0.26663265 -0.35774664
 -0.43892091 -0.50684225 -0.56482387 -0.61286579 -0.65262462 -0.6874136
 -0.71888934 -0.75036508 -0.78846729 -0.83485259 -0.89283422 -0.96903864
 -1.06180924 -1.17611588 -1.31195854 -1.46768063 -1.64162551 -1.82882333
 -2.02430424 -2.22144177 -2.41029621 -2.58258447 -2.72505361 -2.82776392
 -2.87911908 -2.86586613 -2.78469186 -2.62896977 -2.4003565  -2.10713514
 -1.75758876 -1.36497032 -0.94915923 -0.52340843 -0.10759733  0.28999096
  0.65610352  0.98411386  1.27402199  1.52251468  1.73124853  1.90519341
  2.04600594  2.15865595  2.24314347  2.30278171  2.34088392  2.3574501
  2.35082363  2.32266112  2.27130597  2.19510155  2.09570447  1.96814489
  1.81573605  1.64013455  1.4413404   1.22266684  0.98908372  0.74556089
  0.49872482  0.25685861  0.02658872 -0.18380176 -0.36437311 -0.50518563
 -0.60126947 -0.64434153 -0.63274521 -0.56648049 -0.44886062 -0.2898253
 -0.09600101  0.1177027   0.3396895   0.55836306  0.76378368  0.94766827
  1.10670359  1.23591978  1.33531686  1.40489481  1.44631026  1.46121982
  1.44796687  1.40820804  1.34194333  1.24751611  1.126583    0.97583077
  0.79857266  0.59480866  0.37116524  0.12929903 -0.12085028 -0.37431281
 -0.6228055  -0.85970186 -1.08168866 -1.28379604 -1.46271077 -1.62340271
 -1.76255861 -1.88514834 -1.99117188 -2.08394249 -2.16180353 -2.22475501
 -2.26948369 -2.29267634 -2.28770649 -2.24794766 -2.16843    -2.04252704
 -1.87023878 -1.65487845 -1.40141591 -1.12144749 -0.83153935 -0.54991431
 -0.29645177 -0.09103115  0.0530946   0.12432917  0.1177027   0.03487181
 -0.11919366 -0.33455398 -0.59795623 -0.89780407 -1.22250118 -1.55713799
 -1.89177481 -2.21315868 -2.5113499  -2.77309553 -2.98679924 -3.13920809
 -3.22038236 -3.21706913 -3.12595514 -2.94372717 -2.67204184 -2.31918223
 -1.89674466 -1.42295194 -0.91271363 -0.38590914  0.14089535  0.65279028
  1.13817933  1.59043601  2.00293387  2.37235966  2.70037001  2.98530828
  3.23048773  3.44087821  3.61813632  3.76723193  3.89147827  3.9958452
  4.08198933  4.1532239 ]","[-0.99173843 -1.00447548 -0.99492269 -0.96148794 -0.90098696 -0.81182762
 -0.69560206 -0.55708665 -0.39628142 -0.221147   -0.03486767  0.15618806
  0.34724378  0.53352312  0.71184179  0.87901555  1.03345227  1.17674406
  1.30729881  1.4251165   1.53178928  1.62890928  1.71647649  1.79449091
  1.86295254  1.91867713  1.96166467  1.99191516  2.00783647  2.0094286
  1.99509942  1.96644106  1.92504565  1.87250533  1.80882009  1.73558206
  1.65438338  1.56363191  1.46651191  1.36143126  1.24998209  1.13534865
  1.01912309  0.90608178  0.79781687  0.69751261  0.60994541  0.53511525
  0.47461427  0.42685033  0.39341558  0.36953362  0.35520444  0.34883591
  0.34565165  0.34724378  0.35042804  0.35679657  0.36316509  0.36953362
  0.37590214  0.3838628   0.39023132  0.39819198  0.40296837  0.40774476
  0.41092902  0.41092902  0.4045605   0.39182345  0.36953362  0.33132247
  0.27559789  0.19758346  0.09250281 -0.04282833 -0.21159422 -0.41379486
 -0.64624599 -0.90735549 -1.18916268 -1.48689119 -1.79098822 -2.09508525
 -2.39122163 -2.67621308 -2.9436911  -3.19524781 -3.4308832  -3.64900516
 -3.85439006 -4.04863005 -4.23490938 -4.41482019 -4.59154674 -4.76508902
 -4.93703918 -5.1073972  -5.27616309 -5.44333685 -5.60732635 -5.76653946
 -5.91938404 -6.06426796 -6.19800697 -6.32060106 -6.42568171 -6.51643318
 -6.58967121 -6.6453958  -6.68519907 -6.70908104 -6.71863382 -6.71544956
 -6.70430464 -6.68360694 -6.65654071 -6.62469809 -6.58967121 -6.55305219
 -6.51324892 -6.47344564 -6.43205023 -6.39065483 -6.34925942 -6.30467975
 -6.26010008 -6.21392828 -6.16138796 -6.10407124 -6.03879387 -5.95918731
 -5.86365945 -5.74743388 -5.60573422 -5.43378407 -5.22839916 -4.99276376
 -4.72528575 -4.43233363]",1.753573433276291,1.2628385467664562,6.036395000000001,0.017974999999998964
050,2,2,csp,23b.png,1,1,192,122,200,1,1,372,pos_feedback_onset,2,"[-1.08807292 -1.15482074 -1.2048816  -1.23324943 -1.23324943 -1.19987552
 -1.12645291 -1.00964423 -0.84110598 -0.62584426 -0.36385906 -0.06182517
  0.26857654  0.61399652  0.96275388  1.29983038  1.61354514  1.89555468
  2.14085292  2.34777117  2.51630941  2.65147375  2.75827026  2.84170504
  2.90845286  2.96185112  3.0052372   3.04528589  3.0803285   3.11370241
  3.14373893  3.17210675  3.19880588  3.22049892  3.23718588  3.24719805
  3.24886675  3.24219197  3.2288424   3.20714936  3.17878154  3.14707632
  3.11036502  3.07031633  3.02859894  2.98521285  2.93848938  2.89009721
  2.83669895  2.77662591  2.71321548  2.64313027  2.56637028  2.4846042
  2.39950073  2.30939117  2.21761291  2.12249727  2.02738162  1.93226598
  1.83715034  1.74203469  1.64858774  1.55514079  1.46503123  1.37659037
  1.29482429  1.22140169  1.15799126  1.11126778  1.08623735  1.08790605
  1.12461735  1.19803995  1.31651733  1.4783808   1.68363035  1.9255912
  2.19925726  2.49127898  2.78997548  3.08366589  3.35900065  3.60429889
  3.81121714  3.9730806   4.08822059  4.15663711  4.17833015  4.1616432
  4.10991364  4.03315364  3.94137539  3.84292235  3.74780671  3.66103454
  3.59261802  3.54088846  3.51085194  3.49750238  3.49583368  3.49750238
  3.49416499  3.47414064  3.42908586  3.35232587  3.23718588  3.08366589
  2.8951033   2.67817288  2.43954942  2.19258248  1.94728424  1.71533556
  1.50507993  1.32486081  1.1780156   1.066213    0.98277823  0.92771128
  0.88933128  0.86263215  0.84093911  0.81257128  0.77752868  0.7308052
  0.67073217  0.59730956  0.51554348  0.42543392  0.33365567  0.24187742
  0.15510525  0.07667656  0.00992874 -0.04180082 -0.07517473 -0.09019299
 -0.0868556  -0.06182517 -0.01843909  0.04163395  0.11338786  0.19682264
  0.28860089  0.38538523  0.48717566  0.59230348  0.70243738  0.82091476
  0.94606693  1.07956257  1.22307038  1.37492168  1.53511645  1.69864861
  1.86218077  2.02237554  2.17422683  2.30939117  2.42453116  2.51464072
  2.57638245  2.60641897  2.60641897  2.57471376  2.51464072  2.42953725
  2.32440943  2.20259465  2.07076771  1.93059728  1.79042686  1.65025644
  1.5134234   1.38326515  1.25811299  1.13963561  1.02616431  0.91603041
  0.81090259  0.70911216  0.60899043  0.5088687   0.41041566  0.31363132
  0.21684698  0.11839395  0.02160961 -0.07517473 -0.17195907 -0.26874341
 -0.36552775 -0.46231209 -0.55909643 -0.65588078 -0.75266512 -0.84778076
 -0.9428964  -1.03300596 -1.12144683 -1.20321291 -1.27496681 -1.33170246
 -1.36841376 -1.38009463 -1.3550642  -1.29165377 -1.17985117 -1.02132509
 -0.81273815 -0.56243383 -0.28042428  0.01827222  0.31530002  0.59397217
  0.83259563  1.01948953  1.13963561  1.19136517  1.16967213  1.08289996
  0.93438606  0.73747999  0.50052522  0.23186524 -0.05681908 -0.35718428
 -0.66255556 -0.96292075 -1.25327377 -1.52193375 -1.75888852 -1.95412589
 -2.09596501 -2.17105631 -2.17105631 -2.08929023 -1.92408937 -1.68212852
 -1.37341985 -1.01465031 -0.62751295 -0.2353695   0.13841829  0.47549479
  0.76084172  0.98277823  1.13963561  1.23308256  1.26979386  1.25811299
  1.21138951  1.13796691  1.05119474  0.9577478   0.86763824  0.78420346
  0.71578694  0.66238869]","[nan nan nan nan nan nan nan nan nan nan nan nan nan nan nan nan nan nan
 nan nan nan nan nan nan nan nan nan nan nan nan nan nan nan nan nan nan
 nan nan nan nan nan nan nan nan nan nan nan nan nan nan nan nan nan nan
 nan nan nan nan nan nan nan nan nan nan nan nan nan nan nan nan nan nan
 nan nan nan nan nan nan nan nan nan nan nan nan nan nan nan nan nan nan
 nan nan nan nan nan nan nan nan nan nan nan nan nan nan nan nan nan nan
 nan nan nan nan nan nan nan nan nan nan nan nan nan nan nan nan nan nan
 nan nan nan nan nan nan nan nan nan nan nan nan nan nan]",2.990218941196022,,5.992704999999999,-0.037174999999999514
050,2,2,csm,56a.png,1,1,352,323,354,1,1,315,neu_feedback_onset,3,"[-0.51885409 -0.34999625 -0.2152511  -0.11291302 -0.03786509  0.01159832
  0.04400538  0.06106172  0.06788426  0.0695899   0.07129553  0.07300117
  0.07641244  0.08494061  0.09517442  0.10540823  0.11564204  0.12246457
  0.12246457  0.1139364   0.09688005  0.06617863  0.02183212 -0.03445382
 -0.10267921 -0.18113841 -0.26983142 -0.36193569 -0.45915687 -0.55637805
 -0.64848233 -0.7354697  -0.8139289  -0.88044865 -0.93502896 -0.9759642
 -1.00325435 -1.01860506 -1.0203107  -1.01348816 -0.99643181 -0.97255293
 -0.9418515  -0.90603317 -0.86680357 -0.82245707 -0.77128803 -0.71500208
 -0.64848233 -0.57172876 -0.47962449 -0.37046386 -0.24083562 -0.0873285
  0.08835188  0.28791114  0.50793802  0.74502125  0.99404392  1.2481835
  1.50232307  1.74964011  1.98331207  2.19992768  2.39948695  2.57687296
  2.73549699  2.8736534   2.9964591   3.10220846  3.19601837  3.27788883
  3.34781986  3.40751707  3.45868612  3.49791571  3.52861714  3.54737912
  3.5559073   3.5559073   3.54737912  3.53032277  3.50985516  3.48768191
  3.46380302  3.44504104  3.42969032  3.42116215  3.41945652  3.42798469
  3.4433354   3.46721429  3.49621008  3.53202841  3.56955237  3.60878197
  3.64801157  3.6838299   3.71282569  3.73158767  3.73841021  3.7281764
  3.69918061  3.64971721  3.57808055  3.48427064  3.37169874  3.24377614
  3.10732536  2.96575768  2.82589563  2.69456175  2.57687296  2.47624051
  2.39437004  2.33467283  2.29544323  2.27497561  2.27326997  2.28862069
  2.31591084  2.35514044  2.40460385  2.46259543  2.52740955  2.60075184
  2.68091668  2.76790405  2.86341959  2.96575768  3.0749183   3.18919583
  3.30859026  3.42969032  3.55420166  3.68041863  3.80492997  3.93114694
  4.05565827  4.18358088  4.31320912  4.44795426  4.58952194  4.7396178
  4.9016531   5.07733348  5.26836457  5.47304074  5.69477325  5.93015085
  6.17576225  6.43160746  6.69256957  6.95523732  7.21790507  7.47716155
  7.72959549  7.97520689  8.21058449  8.43743391  8.65404952  8.85702005
  9.04634551  9.22032025  9.37723865  9.51198379  9.62796695  9.72007123
  9.79170789  9.83946566  9.86675581  9.87698962  9.87016708  9.84799383
  9.81729241  9.77806281  9.73201067  9.68084163  9.62796695  9.57168101
  9.51539506  9.45740348  9.3994119   9.34142032  9.28342874  9.22714279
  9.16915121  9.1145709   9.05999058  9.01052718  8.96447504  8.92353981
  8.89113275  8.86895949  8.85702005  8.85872569  8.87237076  8.90136655
  8.93889052  8.98664829  9.03781733  9.08898638  9.13674415  9.17597375
  9.2032639   9.21520335  9.21349771  9.19644136  9.1640343   9.12139344
  9.06681312  9.00711591  8.94230179  8.87748767  8.81267355  8.74956506
  8.69157348  8.64040444  8.59264667  8.55171143  8.5158931   8.48348604
  8.44937335  8.41526066  8.37603106  8.32997892  8.27710424  8.21229012
  8.13724219  8.05366609  7.95985618  7.85922373  7.75176874  7.63749122
  7.52150805  7.40211362  7.27930792  7.15650222  7.03369652  6.90918518
  6.78467385  6.66016251  6.53565118  6.41113984  6.28492287  6.16041154
  6.0359002   5.90968323  5.78346626  5.65554365  5.52762105  5.39628717
  5.26154203  5.12338562  4.9801123   4.83172208  4.67650932  4.51447402
  4.34561618  4.16823017]","[-0.72983154 -0.70750033 -0.6771937  -0.63731656 -0.58786889 -0.52885072
 -0.45707185 -0.37412739 -0.27842224 -0.1699564  -0.05192004  0.07409174
  0.20488878  0.33887599  0.4728632   0.60047007  0.7216966   0.83335261
  0.93384302  1.01997765  1.09175652  1.15077469  1.1954371   1.22574373
  1.24647984  1.25764545  1.26402579  1.26721596  1.27200122  1.27838156
  1.29114225  1.31028328  1.33580465  1.3645162   1.39641792  1.42353438
  1.44427049  1.45224592  1.44427049  1.41715403  1.36770637  1.29911768
  1.21298304  1.11089755  0.99924154  0.88120518  0.76157374  0.64353739
  0.52869121  0.42022537  0.31813987  0.22083964  0.12832466  0.04059494
 -0.0455397  -0.12848417 -0.20983354 -0.29118292 -0.37093722 -0.4522866
 -0.53204089 -0.61179518 -0.69154947 -0.77130377 -0.84946297 -0.92921727
 -1.00897156 -1.08872585 -1.16848015 -1.24823444 -1.32798873 -1.40774303
 -1.48590223 -1.56565653 -1.64381573 -1.72197494 -1.79694398 -1.87031792
 -1.94209679 -2.00749531 -2.06810857 -2.1207464  -2.16540881 -2.19890561
 -2.22602207 -2.24197293 -2.25313853 -2.26111396 -2.27068448 -2.28663533
 -2.31375179 -2.3584142  -2.42221763 -2.50675718 -2.61203285 -2.73485446
 -2.87203184 -3.01718466 -3.16074238 -3.29951485 -3.42393155 -3.53239739
 -3.61853203 -3.68233546 -3.72540278 -3.74773398 -3.75411432 -3.74454381
 -3.72540278 -3.69669123 -3.66159934 -3.62331728 -3.58344014 -3.54037282
 -3.4973055  -3.45423818 -3.40957578 -3.36491337 -3.32025097 -3.27558857
 -3.23092616 -3.18626376 -3.14319644 -3.09853404 -3.05387163 -3.00920923
 -2.96454682 -2.91988442 -2.87522202 -2.83055961 -2.78430212 -2.73804463
 -2.69178714 -2.64233948 -2.59129673 -2.5386589  -2.48283089 -2.42381272
 -2.36160437 -2.29939602]",8.999653756148833,0.9616373875364875,5.862919999999999,0.19373999999999914
050,2,2,csp,32b.png,1,1,92,130,88,1,1,345,pos_feedback_onset,4,"[ 0.84252016  0.89714864  0.92363518  0.92197977  0.89218242  0.83424312
  0.74981728  0.64387114  0.51806009  0.37238414  0.21180952  0.0330254
 -0.15900199 -0.36758346 -0.5894082  -0.82613162 -1.0760983  -1.33599744
 -1.60582902 -1.88062684 -2.15542465 -2.42856705 -2.69343242 -2.94670992
 -3.18343333 -3.39863644 -3.58900842 -3.75123845 -3.88201572 -3.98465105
 -4.05583362 -4.09887424 -4.11708373 -4.1104621  -4.08728638 -4.04921198
 -3.99789432 -3.93995502 -3.87539409 -3.80586693 -3.73302896 -3.66019098
 -3.5856976  -3.50954881 -3.43505543 -3.35890664 -3.28275784 -3.20660905
 -3.13046026 -3.05431147 -2.97981809 -2.9036693  -2.8275205  -2.75137171
 -2.67522292 -2.59907413 -2.52292534 -2.44677655 -2.37062776 -2.29613437
 -2.21998558 -2.14383679 -2.067688   -1.99153921 -1.91539042 -1.83924162
 -1.76309283 -1.68859945 -1.61245066 -1.53630187 -1.46015308 -1.38400428
 -1.30620008 -1.23005129 -1.15224709 -1.07444289 -0.99498328 -0.91221286
 -0.82778703 -0.74005037 -0.64900291 -0.55464462 -0.45532011 -0.35434019
 -0.25170486 -0.15072494 -0.05636666  0.03136999  0.10586337  0.16711349
  0.21015411  0.23664065  0.2465731   0.24160687  0.23001901  0.21180952
  0.19525543  0.18532298  0.1886338   0.2084987   0.24822851  0.31113403
  0.39721527  0.50812764  0.64221573  0.79616872  0.9666758   1.15042614
  1.34410894  1.54110255  1.73644076  1.92846814  2.10890767  2.27775934
  2.43171233  2.57076664  2.69161147  2.79755761  2.88860508  2.96806469
  3.03759184  3.10049737  3.16174748  3.2229976   3.28590312  3.35543028
  3.43157907  3.5160049   3.61036319  3.71134311  3.82060007  3.93482326
  4.05566808  4.1765129   4.29901313  4.41820254  4.53573655  4.64499351
  4.74928424  4.84695334  4.93469     5.01746042  5.0919538   5.16148096
  5.22604189  5.2856366   5.3435759   5.39654897  5.44621123  5.49256266
  5.53394788  5.57036686  5.60016422  5.62333994  5.63823861  5.64651565
  5.64651565  5.63989402  5.62665075  5.60844126  5.58692095  5.56043441
  5.53394788  5.50580593  5.47766399  5.45117745  5.42469091  5.39820438
  5.37337325  5.35019753  5.32702181  5.30384609  5.28232578  5.25915006
  5.23762975  5.21610944  5.19458913  5.17306882  5.15154851  5.1300282
  5.10850789  5.08698758  5.06546727  5.04394696  5.02077124  4.99925093
  4.97773062  4.95621031  4.93469     4.91316969  4.89330478  4.87178447
  4.85191957  4.83205467  4.81384517  4.79729109  4.78404782  4.77577078
  4.77245996  4.77577078  4.78901405  4.81053436  4.84364253  4.88668315
  4.93800081  4.9942847   5.052224    5.10850789  5.15817014  5.19458913
  5.21610944  5.21942026  5.20452158  5.1681026   5.11512952  5.04560237
  4.96614276  4.8767507   4.78404782  4.68803413  4.59367584  4.50428378
  4.41654713  4.33543212  4.26093873  4.19141158  4.12685064  4.06891135
  4.01593827  3.96793143  3.92489081  3.885161    3.84874201  3.81563384
  3.78418108  3.75603914  3.72789719  3.70141066  3.67492412  3.65009299
  3.62691727  3.60539696  3.58553206  3.57063338  3.55904552  3.55573471
  3.55904552  3.5739442   3.59877533  3.63684972  3.68816739  3.75107291
  3.82556629  3.90833672  3.99607337  4.08546543  4.17320208  4.25762792
  4.33377671  4.40330386]","[-1.56117831e+00 -1.48077152e+00 -1.37463455e+00 -1.24437554e+00
 -1.08999450e+00 -9.13099553e-01 -7.16906976e-01 -5.09457447e-01
 -2.95575375e-01 -8.00851669e-02  1.32188769e-01  3.36422026e-01
  5.32614604e-01  7.15942094e-01  8.89620769e-01  1.05204249e+00
  1.20320727e+00  1.34311509e+00  1.47176596e+00  1.58915988e+00
  1.69047244e+00  1.77570364e+00  1.84324535e+00  1.89148942e+00
  1.91882773e+00  1.92526028e+00  1.90917892e+00  1.87058366e+00
  1.81269077e+00  1.73550024e+00  1.64062023e+00  1.52965885e+00
  1.40583239e+00  1.27396524e+00  1.13727370e+00  9.98974009e-01
  8.62282459e-01  7.28807181e-01  6.03372583e-01  4.84370527e-01
  3.73409152e-01  2.68880319e-01  1.70784031e-01  7.75121495e-02
 -1.09353240e-02 -9.77746616e-02 -1.79789592e-01 -2.61804521e-01
 -3.43819451e-01 -4.24226245e-01 -5.03024904e-01 -5.81823562e-01
 -6.57405948e-01 -7.32988335e-01 -8.02138177e-01 -8.68071749e-01
 -9.24356504e-01 -9.69384309e-01 -9.98330755e-01 -1.00958771e+00
 -9.98330755e-01 -9.61343630e-01 -8.97018194e-01 -8.08570721e-01
 -6.96001209e-01 -5.68958475e-01 -4.33875061e-01 -3.02007918e-01
 -1.86222135e-01 -9.93827974e-02 -5.43549928e-02 -6.23956722e-02
 -1.33153651e-01 -2.73061473e-01 -4.85335409e-01 -7.71583596e-01
 -1.12376535e+00 -1.53705628e+00 -1.99859127e+00 -2.49711340e+00
 -3.01654129e+00 -3.54240172e+00 -4.06022147e+00 -4.55713546e+00
 -5.02349487e+00 -5.45447528e+00 -5.84686044e+00 -6.20065033e+00
 -6.52066937e+00 -6.81013383e+00 -7.07225998e+00 -7.31669663e+00
 -7.54344379e+00 -7.76054213e+00 -7.96959980e+00 -8.17222492e+00
 -8.37163377e+00 -8.56621821e+00 -8.75919452e+00 -8.95056269e+00
 -9.13710645e+00 -9.32204208e+00 -9.50376143e+00 -9.68387265e+00
 -9.86398387e+00 -1.00457032e+01 -1.02290307e+01 -1.04187907e+01
 -1.06149833e+01 -1.08224329e+01 -1.10379231e+01 -1.12662784e+01
 -1.15042825e+01 -1.17519354e+01 -1.20060209e+01 -1.22633226e+01
 -1.25206243e+01 -1.27698854e+01 -1.30062814e+01 -1.32217716e+01
 -1.34083153e+01 -1.35530476e+01 -1.36463195e+01 -1.36800903e+01
 -1.36447113e+01 -1.35321418e+01 -1.33439899e+01 -1.30770394e+01
 -1.27409390e+01 -1.23469457e+01 -1.19111408e+01 -1.14512140e+01
 -1.09864627e+01 -1.05377928e+01 -1.01212856e+01 -9.75141436e+00
 -9.43621972e+00 -9.17730985e+00 -8.97146845e+00 -8.81387114e+00]",5.319944941112968,0.9167178589922174,6.040805000000001,-0.35001499999999997
050,2,2,csm,21a.png,1,1,312,303,310,1,1,266,neu_feedback_onset,5,"[-1.05933168 -0.98343624 -0.9075408  -0.82827223 -0.74394397 -0.65286944
 -0.55167552 -0.43867564 -0.31049668 -0.17051175 -0.01703431  0.14656253
  0.31521906  0.48387559  0.64747243  0.79757674  0.9308154   1.04044215
  1.12308385  1.17874051  1.20741212  1.21247181  1.19729273  1.16524798
  1.12139729  1.07248689  1.02020337  0.96960641  0.92238258  0.88190501
  0.8481737   0.81950209  0.79589018  0.77733796  0.76215887  0.75035291
  0.74023352  0.73348726  0.726741    0.72505443  0.726741    0.73348726
  0.74697978  0.76721857  0.79589018  0.83130805  0.87515875  0.92575571
  0.98141236  1.04381528  1.10790476  1.17536738  1.24282999  1.31197917
  1.37944178  1.44353126  1.50424761  1.55821771  1.6071281   1.64423254
  1.67121758  1.68639667  1.68808324  1.67459071  1.64929223  1.60881467
  1.55653114  1.49412822  1.41991935  1.34065078  1.25294938  1.16018829
  1.06574063  0.96791984  0.86841249  0.76721857  0.66602465  0.56483073
  0.46363681  0.36075632  0.2595624   0.15668192  0.05380143 -0.04907905
 -0.15195954 -0.25484002 -0.35940707 -0.46734725 -0.57528743 -0.68660074
 -0.80297375 -0.92271989 -1.04921229 -1.18076439 -1.32074931 -1.46748049
 -1.6226445  -1.78286821 -1.94983817 -2.12186784 -2.29221094 -2.46255403
 -2.6244643  -2.77288205 -2.90106102 -3.00056837 -3.06465785 -3.08152351
 -3.04610564 -2.95503111 -2.80324023 -2.59747926 -2.33943476 -2.04259927
 -1.72046529 -1.38652535 -1.05595855 -0.74057083 -0.4504816  -0.19581023
  0.02512982  0.21065201  0.36581602  0.49399498  0.60362173  0.69975595
  0.78914392  0.87684531  0.96286014  1.04887498  1.13657637  1.22427777
  1.30691947  1.38450148  1.45533722  1.51774014  1.57171023  1.61724749
  1.65772506  1.6948295   1.73193393  1.77409807  1.82638159  1.89215764
  1.97311278  2.0743067   2.19405283  2.33066462  2.4824555   2.64605234
  2.81470887  2.97999228  3.13852942  3.2802009   3.39994704  3.4943947
  3.55679762  3.58715579  3.58546923  3.55173792  3.49102157  3.40500674
  3.29875312  3.17900698  3.04745489  2.9108431   2.77591787  2.64436578
  2.52293307  2.41499289  2.32391836  2.25308262  2.20248566  2.17550061
  2.16875435  2.18393344  2.21935131  2.26994827  2.33403776  2.40824663
  2.4925749   2.58196286  2.67809708  2.77591787  2.87542523  2.97661914
  3.07781306  3.18069355  3.28188747  3.38476795  3.48764844  3.59052892
  3.69340941  3.79628989  3.89917038  4.00205086  4.10493135  4.20781183
  4.31069232  4.41188624  4.51476672  4.61933377  4.72221426  4.82509474
  4.92797523  5.03254228  5.13710933  5.24167638  5.34792999  5.45418361
  5.55875066  5.66163114  5.76282506  5.85558616  5.93991442  6.0090636
  6.06134713  6.0917053   6.09507843  6.07146652  6.01580986  5.92810847
  5.81173546  5.66669084  5.49634774  5.30239273  5.0898855   4.86051261
  4.61764721  4.36466241  4.10324478  3.83676746  3.57029014  3.30887251
  3.05420115  2.81470887  2.59545538  2.3998138   2.2345304   2.09791861
  1.99503812  1.92082925  1.87529199  1.8550532   1.8550532   1.87191886
  1.90059047  1.93938147  1.98491873  2.03551569  2.08948578  2.14345587
  2.20079909  2.25982888  2.32054523  2.38463472  2.45209733  2.52461964
  2.60220164  2.68652991]","[-1.69298176 -1.53458721 -1.36819293 -1.19379893 -1.01140521 -0.81941181
 -0.62261858 -0.42262546 -0.21943245 -0.01783939  0.18055379  0.37254718
  0.55494091  0.72453508  0.87972974  1.01892495  1.14372066  1.25251691
  1.34691367  1.42851086  1.50050838  1.56610613  1.62690403  1.686102
  1.74689991  1.81089771  1.88129528  1.95489275  2.03329005  2.11648719
  2.19808439  2.27808163  2.3516791   2.4156769   2.46367525  2.49087431
  2.49727409  2.4796747   2.43647619  2.3692785   2.28288147  2.18048499
  2.0668889   1.94689303  1.82689715  1.71010117  1.59970497  1.49570855
  1.39971185  1.31171488  1.23011768  1.15332033  1.0813228   1.01252517
  0.94532748  0.87972974  0.81413199  0.7501342   0.68773634  0.62533849
  0.56454058  0.50694256  0.45254443  0.40134619  0.35814768  0.32134895
  0.29254994  0.2733506   0.26215098  0.26055104  0.26215098  0.26375093
  0.25735115  0.23495192  0.18535362  0.09575671 -0.04343851 -0.24343163
 -0.50742254 -0.84181104 -1.24019734 -1.69618165 -2.19536448 -2.72174637
 -3.25452804 -3.77131027 -4.25449365 -4.68647879 -5.05606607 -5.35685572
 -5.58884774 -5.75204213 -5.85603855 -5.90723679 -5.91523652 -5.8896374
 -5.83843916 -5.76964152 -5.68804433 -5.59844741 -5.50405066 -5.40645402
 -5.30565749 -5.20486095 -5.10406442 -5.00166794 -4.89927147 -4.79847493
 -4.69607845 -4.59368198 -4.4912855  -4.39048897 -4.28809249 -4.18569601
 -4.08489948 -3.98410295 -3.88330641 -3.78410983 -3.68651318 -3.59211643
 -3.50251951 -3.41932238 -3.34412496 -3.27852722 -3.22412909 -3.18573041
 -3.16493113 -3.16013129 -3.1745308  -3.20812964 -3.26092782 -3.3313254
 -3.41772243 -3.51851896 -3.633715   -3.76011065 -3.89770592 -4.04490086
 -4.20009552 -4.36168996]",4.912248006058152,1.7799787687303437,5.929209999999999,0.16910999999999987
050,2,2,csp,30b.png,1,1,244,267,243,1,1,423,pos_feedback_onset,6,"[-0.74595277 -0.55764288 -0.38079534 -0.22196004 -0.081137    0.04003632
  0.13992243  0.22015882  0.279108    0.31676998  0.33641971  0.33478223
  0.31349502  0.27255809  0.21360891  0.13501     0.03839884 -0.07786204
 -0.21213518 -0.36278309 -0.52816829 -0.71156575 -0.90806302 -1.11929759
 -1.34363197 -1.5794287  -1.82668777 -2.0837717  -2.35068049 -2.62250172
 -2.89923538 -3.17924399 -3.45925261 -3.73598626 -4.00780749 -4.27144133
 -4.52361283 -4.76268451 -4.98210647 -5.18351617 -5.36363867 -5.51919901
 -5.65019719 -5.75663322 -5.83850708 -5.89418131 -5.92529337 -5.93348076
 -5.91874347 -5.88271897 -5.82868222 -5.75827069 -5.67312187 -5.57814819
 -5.47498713 -5.37018858 -5.26866499 -5.17369131 -5.09181744 -5.02959331
 -4.99356881 -4.9870189  -5.01485601 -5.0803551  -5.18187869 -5.32270174
 -5.49627433 -5.70095899 -5.93184328 -6.17910235 -6.43782376 -6.69654517
 -6.94707919 -7.17796349 -7.37446076 -7.52674614 -7.62171983 -7.64628199
 -7.59224524 -7.45305967 -7.23200024 -6.9323419  -6.56390951 -6.14144037
 -5.68294674 -5.20480338 -4.72338506 -4.25506656 -3.80639779 -3.38556613
 -2.99420906 -2.63396406 -2.2999187  -1.9904355  -1.7022395  -1.43696818
 -1.18970911 -0.96373725 -0.75741511 -0.57238018 -0.41190741 -0.27435932
 -0.16301086 -0.07622457 -0.01236295  0.0269365   0.04822371  0.04986118
  0.03676136  0.01219921 -0.02382529 -0.0663997  -0.11388654 -0.16628582
 -0.21868509 -0.27272184 -0.32675859 -0.37752038 -0.42828218 -0.47576902
 -0.51834343 -0.55764288 -0.59039243 -0.61495459 -0.62969188 -0.63460432
 -0.62641693 -0.60512973 -0.57238018 -0.52489334 -0.46921911 -0.4053575
 -0.33985841 -0.27435932 -0.21377266 -0.16301086 -0.12698636 -0.10569916
 -0.10406168 -0.12371141 -0.16464834 -0.22850995 -0.3185712  -0.43319461
 -0.57893009 -0.75414016 -0.96046229 -1.19953397 -1.46971772 -1.77101354
 -2.09687152 -2.44729165 -2.81408656 -3.19070633 -3.57387602 -3.95377074
 -4.32547808 -4.67753569 -5.00175619 -5.28831472 -5.52902388 -5.71569628
 -5.84014456 -5.89745626 -5.89090635 -5.82213231 -5.69932151 -5.53393631
 -5.33743903 -5.12620447 -4.91333242 -4.71192272 -4.52852526 -4.37132745
 -4.24360422 -4.14535558 -4.07821901 -4.03891956 -4.02090731 -4.02254479
 -4.04055704 -4.06675667 -4.1011437  -4.1371682  -4.17483017 -4.20757972
 -4.23705431 -4.25997899 -4.27635376 -4.28454115 -4.2878161  -4.28454115
 -4.27471629 -4.26161647 -4.24360422 -4.22395449 -4.20102981 -4.17810513
 -4.15354297 -4.12734333 -4.1011437  -4.07330658 -4.04546947 -4.01599488
 -3.98160786 -3.94394588 -3.89973399 -3.84733472 -3.78347311 -3.70323672
