sub,run,cat_cond,trial_type,picture,old,response_old,target_pos,response_pos,dot_resp_loc,cat_corr,TN_corr,TN_rt,feedback_type,trial,SP_timeseries,FB_timeseries,SP_peak_response,FB_peak_response,preStim_bl,anticipation
001,1,1,csm,37b.png,1,1,28,298,21,1,1,307,neu_feedback_onset,1,"[ 1.35418820e-01  1.18654455e-01  1.01890089e-01  8.51257234e-02
  6.83613578e-02  5.15969921e-02  3.48326264e-02  1.80682608e-02
  1.30389511e-03 -1.35977633e-02 -2.84994216e-02 -4.34010800e-02
 -5.45773238e-02 -6.57535676e-02 -7.32043967e-02 -7.69298113e-02
 -7.69298113e-02 -7.32043967e-02 -6.20281530e-02 -4.71264946e-02
 -2.47740070e-02  3.16660240e-03  3.85580410e-02  7.95376015e-02
  1.26105284e-01  1.80123796e-01  2.39730429e-01  3.08650599e-01
  3.85021598e-01  4.70706134e-01  5.65704206e-01  6.70015814e-01
  7.85503667e-01  9.06579641e-01  1.03138103e+00  1.15618242e+00
  1.27353298e+00  1.37970729e+00  1.47097995e+00  1.53617471e+00
  1.57715427e+00  1.58833051e+00  1.56784073e+00  1.51754763e+00
  1.43931393e+00  1.33872773e+00  1.21765176e+00  1.08353683e+00
  9.43833787e-01  8.05993447e-01  6.79329351e-01  5.69429620e-01
  4.85607792e-01  4.33451988e-01  4.16687622e-01  4.40902817e-01
  5.07960280e-01  6.17860010e-01  7.66876594e-01  9.51284616e-01
  1.16363325e+00  1.39647166e+00  1.63676090e+00  1.87332473e+00
  2.09871231e+00  2.30174741e+00  2.47497918e+00  2.61468223e+00
  2.71899384e+00  2.79163942e+00  2.83634440e+00  2.86242230e+00
  2.87359855e+00  2.88104937e+00  2.89036291e+00  2.90712728e+00
  2.93320518e+00  2.96673391e+00  3.00585076e+00  3.04496762e+00
  3.07849635e+00  3.10084884e+00  3.10643696e+00  3.09339801e+00
  3.06359469e+00  3.01888971e+00  2.96673391e+00  2.91457811e+00
  2.87173584e+00  2.85124606e+00  2.86055959e+00  2.90712728e+00
  2.99467452e+00  3.12506403e+00  3.29643310e+00  3.50505632e+00
  3.74162015e+00  3.99494834e+00  4.25759007e+00  4.51836909e+00
  4.76983457e+00  5.00453569e+00  5.22247245e+00  5.41991942e+00
  5.60246473e+00  5.77383381e+00  5.93775205e+00  6.09794488e+00
  6.26186312e+00  6.42950677e+00  6.60460126e+00  6.78528387e+00
  6.96596647e+00  7.14292367e+00  7.31243003e+00  7.46330932e+00
  7.59183613e+00  7.68869691e+00  7.75202895e+00  7.77251873e+00
  7.75016625e+00  7.68310878e+00  7.57134635e+00  7.41487893e+00
  7.21929467e+00  6.99018167e+00  6.73312806e+00  6.45744738e+00
  6.17245317e+00  5.88745895e+00  5.61364098e+00  5.35845008e+00
  5.12747437e+00  4.92443928e+00  4.75307021e+00  4.61336716e+00
  4.50160472e+00  4.41405748e+00  4.34513731e+00  4.28925609e+00
  4.24268841e+00  4.19798343e+00  4.15141575e+00  4.09925995e+00
  4.03965331e+00  3.97073314e+00  3.89436214e+00  3.81426573e+00
  3.73044390e+00  3.65407290e+00  3.59260356e+00  3.55348671e+00
  3.54976129e+00  3.58887815e+00  3.67642539e+00  3.81799114e+00
  4.00985000e+00  4.24455112e+00  4.51464367e+00  4.80522601e+00
  5.10139647e+00  5.39011610e+00  5.65834595e+00  5.89863519e+00
  6.10725841e+00  6.27862748e+00  6.41833053e+00  6.52823026e+00
  6.61391480e+00  6.67910955e+00  6.72753994e+00  6.76665679e+00
  6.79646011e+00  6.82253801e+00  6.84489050e+00  6.86538028e+00
  6.88587006e+00  6.90449713e+00  6.92312421e+00  6.94175128e+00
  6.96037835e+00  6.97900543e+00  6.99763250e+00  7.01998499e+00
  7.04233747e+00  7.07027808e+00  7.10194411e+00  7.14478638e+00
  7.19880489e+00  7.26772506e+00  7.36086042e+00  7.47821098e+00
  7.62536486e+00  7.80791017e+00  8.02398422e+00  8.27358700e+00
  8.54926768e+00  8.84730084e+00  9.15092213e+00  9.45081801e+00
  9.73394952e+00  9.98168959e+00  1.01865874e+01  1.03374667e+01
  1.04250139e+01  1.04492291e+01  1.04101123e+01  1.03095261e+01
  1.01567841e+01  9.96119981e+00  9.73394952e+00  9.48993486e+00
  9.24592021e+00  9.01308179e+00  8.80818399e+00  8.64054033e+00
  8.51760165e+00  8.44495607e+00  8.42074087e+00  8.44123065e+00
  8.49524917e+00  8.57534558e+00  8.67034365e+00  8.76906714e+00
  8.86220250e+00  8.94416162e+00  9.01308179e+00  9.06896301e+00
  9.11553069e+00  9.15837296e+00  9.20121523e+00  9.25523374e+00
  9.32042850e+00  9.40238762e+00  9.50483652e+00  9.62404979e+00
  9.75816471e+00  9.89973047e+00  1.00431589e+01  1.01772739e+01
  1.02946244e+01  1.03840344e+01  1.04343275e+01  1.04399156e+01
  1.03970733e+01  1.03002125e+01  1.01511960e+01  9.95747439e+00
  9.72463598e+00  9.46199425e+00  9.18258816e+00  8.89759394e+00
  8.62005055e+00  8.35554612e+00  8.11339417e+00  7.89732012e+00
  7.70918669e+00  7.55085657e+00  7.41674164e+00  7.30684191e+00]","[-6.17168281e-02 -4.96829062e-02 -4.28063794e-02 -3.76489843e-02
 -3.24915891e-02 -2.38959306e-02 -1.35811404e-02  1.71913170e-04
  1.56440985e-02  3.11162838e-02  4.65884691e-02  5.69032593e-02
  6.37797861e-02  6.37797861e-02  5.69032593e-02  4.31502057e-02
  2.08014936e-02 -8.42374533e-03 -4.45255111e-02 -8.40655402e-02
 -1.30482096e-01 -1.78617784e-01 -2.30191735e-01 -2.85203949e-01
 -3.38497032e-01 -3.95228378e-01 -4.51959724e-01 -5.06971939e-01
 -5.63703285e-01 -6.22153763e-01 -6.78885109e-01 -7.35616455e-01
 -7.92347801e-01 -8.49079147e-01 -9.05810493e-01 -9.64260971e-01
 -1.02099232e+00 -1.07772366e+00 -1.13445501e+00 -1.19118636e+00
 -1.24791770e+00 -1.30636818e+00 -1.36309953e+00 -1.41983087e+00
 -1.47656222e+00 -1.53329356e+00 -1.59002491e+00 -1.64675626e+00
 -1.70520673e+00 -1.76021895e+00 -1.81695029e+00 -1.87368164e+00
 -1.92697472e+00 -1.98026781e+00 -2.03012263e+00 -2.07653918e+00
 -2.11607921e+00 -2.14702358e+00 -2.16937229e+00 -2.17796795e+00
 -2.17109143e+00 -2.15046184e+00 -2.11264095e+00 -2.06106700e+00
 -1.99573999e+00 -1.92181733e+00 -1.84273727e+00 -1.76709548e+00
 -1.69661108e+00 -1.63644147e+00 -1.59002491e+00 -1.55908054e+00
 -1.54532749e+00 -1.54532749e+00 -1.55908054e+00 -1.58314838e+00
 -1.61237362e+00 -1.64675626e+00 -1.68113889e+00 -1.71552152e+00
 -1.74646590e+00 -1.77397200e+00 -1.79803985e+00 -1.81695029e+00
 -1.83586074e+00 -1.85133293e+00 -1.86336685e+00 -1.87711990e+00
 -1.88743469e+00 -1.89946862e+00 -1.90978341e+00 -1.92009820e+00
 -1.93041299e+00 -1.94072778e+00 -1.95104257e+00 -1.96135736e+00
 -1.97167215e+00 -1.98198694e+00 -1.99230173e+00 -2.00089739e+00
 -2.01121218e+00 -2.02152697e+00 -2.03184176e+00 -2.04215655e+00
 -2.05247134e+00 -2.06278613e+00 -2.07310092e+00 -2.08341571e+00
 -2.09373050e+00 -2.10404529e+00 -2.11436008e+00 -2.12467487e+00
 -2.13498966e+00 -2.14530445e+00 -2.15561924e+00 -2.16593403e+00
 -2.17624882e+00 -2.18656361e+00 -2.19515927e+00 -2.20547406e+00
 -2.21578885e+00 -2.22610364e+00 -2.23641843e+00 -2.24673322e+00
 -2.25704801e+00 -2.26736280e+00 -2.27767759e+00 -2.28799238e+00
 -2.29830717e+00 -2.30862196e+00 -2.31893675e+00 -2.32925154e+00
 -2.33956633e+00 -2.34988112e+00 -2.36019591e+00 -2.37051070e+00
 -2.38082549e+00 -2.38942115e+00 -2.39973594e+00 -2.41005073e+00]",8.810791780990328,-0.1599222264818465,5.36853,-0.0891250000000019
001,1,1,csp,53a.png,1,1,332,317,331,1,1,420,pos_feedback_onset,2,"[ 0.83471972  0.94310141  1.04245131  1.11651213  1.15263937  1.13818847
  1.06954673  0.94129505  0.75704617  0.52221915  0.24945854 -0.05039749
 -0.36109169 -0.66817317 -0.95719104 -1.21550075 -1.43045779 -1.59844942
 -1.7122502  -1.7736665  -1.78450467 -1.7501838  -1.67973569 -1.57857944
 -1.45213413 -1.30943156 -1.15047173 -0.98067374 -0.80003757 -0.60856324
 -0.4080571  -0.19671278  0.01824425  0.23500765  0.44815832  0.6468581
  0.82568791  0.97561592  1.08941671  1.15805845  1.18154115  1.15263937
  1.07496581  0.95213322  0.78414159  0.58363545  0.35242116  0.10133689
 -0.16058555 -0.42792707 -0.69346224 -0.95177195 -1.19743713 -1.4250387
 -1.63277029 -1.81701918 -1.97236628 -2.09339251 -2.17467878 -2.20899965
 -2.19093604 -2.10964976 -1.95972175 -1.74115199 -1.45213413 -1.09447452
 -0.6808177  -0.22019548  0.27113488  0.77510978  1.27005287  1.7397069
  2.16420189  2.52908694  2.82533025  3.04209365  3.17937713  3.2371807
  3.21911709  3.13602445  2.99874097  2.8181048   2.60676049  2.37915892
  2.14794463  1.92395579  1.71441784  1.52836259  1.37120912  1.24476381
  1.150833    1.09302943  1.06593401  1.07135309  1.10567396  1.16709026
  1.25379562  1.36037095  1.48500991  1.62229339  1.76860869  1.91492398
  2.05943291  2.19129731  2.30509809  2.39541618  2.45863883  2.48934698
  2.49115334  2.46405792  2.41347979  2.34303169  2.26535814  2.18407186
  2.10820468  2.04678838  2.00162934  1.979953    1.98175936  2.0034357
  2.04678838  2.10820468  2.18407186  2.26897086  2.36470803  2.46405792
  2.56882689  2.67540223  2.78378393  2.89216563  3.00235369  3.11254175
  3.22092345  3.33111151  3.44129957  3.55148763  3.66167569  3.77186375
  3.88205181  3.99223987  4.10242793  4.21261599  4.32280405  4.43299211
  4.54318017  4.65336823  4.76355629  4.87374435  4.98212605  5.09050775
  5.19708309  5.30185206  5.40300831  5.49693912  5.58364448  5.66131803
  5.72273433  5.76428064  5.78595698  5.7805379   5.74621703  5.68118801
  5.58545084  5.46081189  5.30907751  5.13927951  4.95503063  4.76536265
  4.57388832  4.39144579  4.2216478   4.06810706  3.93082357  3.81341007
  3.71406018  3.62916118  3.55690671  3.49729678  3.44491229  3.39794689
  3.35459421  3.31485425  3.27692066  3.23898706  3.20285983  3.1667326
  3.13060537  3.09628449  3.06015726  3.02583639  2.98970916  2.95538829
  2.92106742  2.88855291  2.8560384   2.82713661  2.80004119  2.77475212
  2.75488214  2.73501217  2.71875491  2.70249766  2.68262768  2.65372589
  2.61398594  2.554376    2.47128337  2.35567622  2.2057482   2.01427387
  1.78125322  1.50668625  1.19418568  0.84375152  0.46622194  0.06520966
 -0.35025352 -0.77113579 -1.19021169 -1.60206214 -1.9994617  -2.37879765
 -2.73645726 -3.07063416 -3.38494109 -3.67576531 -3.9449132  -4.19780383
 -4.43082448 -4.64758787 -4.85170674 -5.04137471 -5.21839815 -5.38277706
 -5.53812417 -5.68082674 -5.81269114 -5.931911   -6.03487362 -6.12338534
 -6.19202708 -6.24079885 -6.26789427 -6.27511972 -6.26247519 -6.2335734
 -6.19202708 -6.14144895 -6.08545174 -6.02945453 -5.97707005 -5.931911
 -5.89036469 -5.85604382 -5.82172294 -5.78740207 -5.74766212 -5.69889035
 -5.63386133 -5.55438142]","[ 0.64341236  0.66180345  0.64157325  0.58088264  0.48340986  0.35467221
  0.20570437  0.04202365 -0.11981796 -0.27246403 -0.40120167 -0.49683535
 -0.55016952 -0.56120418 -0.52258288 -0.44166208 -0.32028087 -0.16395659
  0.01811523  0.21857813  0.4319148   0.64892968  0.86778368  1.08295946
  1.29445702  1.50043725  1.69906104  1.89216751  2.07607843  2.25263291
  2.42183096  2.57999435  2.73080131  2.87241272  3.00666769  3.13724444
  3.26598209  3.39471973  3.52345738  3.65403413  3.78645     3.91702675
  4.04392528  4.16346738  4.27197483  4.3657694   4.4466902   4.51289813
  4.5662323   4.6066927   4.63795756  4.66002687  4.67657885  4.6857744
  4.68945262  4.6857744   4.67106152  4.64899221  4.61404914  4.56991052
  4.51473724  4.45036842  4.37680405  4.29772236  4.21496244  4.1266852
  4.03840796  3.9464525   3.85265793  3.76070247  3.6669079   3.57311333
  3.47931876  3.38368508  3.28989051  3.19609594  3.10046226  3.00666769
  2.91103401  2.81356122  2.71241022  2.6094201   2.50091266  2.38688789
  2.26182846  2.12573438  1.97492742  1.80572938  1.62181846  1.41951644
  1.20066245  0.96893469  0.72985049  0.49076629  0.2535212   0.02731077
 -0.18234768 -0.37545415 -0.54833041 -0.70097648 -0.83890967 -0.96029087
 -1.07063743 -1.16811021 -1.25638746 -1.33363004 -1.39615976 -1.4439766
 -1.47340234 -1.48627611 -1.47891967 -1.45317214 -1.41271174 -1.35937757
 -1.29500875 -1.2251226  -1.1460409  -1.05960277 -0.96764731 -0.8664963
 -0.75798886 -0.6458032  -0.52993932 -0.42143188 -0.32395909 -0.25223383
 -0.21177343 -0.21177343 -0.25775116 -0.35522394 -0.50235268 -0.69362004
 -0.91983047 -1.17178843 -1.43478105 -1.69593456 -1.93685786 -2.14835542
 -2.31939258 -2.44077379]",4.789703377354366,4.122133403464704,5.53599,0.10402500000000003
001,1,1,csp,22a.png,1,1,268,322,272,1,1,298,pos_feedback_onset,3,"[-1.08603448 -1.29909955 -1.43450539 -1.492252   -1.47433064 -1.38870636
 -1.23737042 -1.03426166 -0.78734513 -0.50458588 -0.19992274  0.1206705
  0.44524626  0.76783076  1.08045895  1.38113956  1.66190755  1.92475418
  2.16768818  2.3887183   2.5898358   2.7750232   2.94228923  3.09362517
  3.23102227  3.35248928  3.45404366  3.53767667  3.59542328  3.62927474
  3.63524853  3.61533591  3.56754561  3.49984269  3.41620967  3.32660287
  3.23699606  3.16132809  3.10756401  3.08566012  3.09959896  3.15535431
  3.25491742  3.39629705  3.5735194   3.78260194  4.01358837  4.25851364
  4.50742143  4.75433797  4.98930692  5.20834578  5.40149823  5.566773
  5.70018758  5.79975069  5.86347109  5.89134876  5.88537497  5.84953225
  5.78979438  5.71412641  5.63248466  5.55880795  5.50106134  5.47318367
  5.48313998  5.53292154  5.62451961  5.75395166  5.91126139  6.08450121
  6.26172356  6.42301581  6.56041291  6.66196729  6.72170516  6.74161778
  6.72767894  6.68984496  6.64205466  6.60023815  6.57435174  6.57833427
  6.62214204  6.7037838   6.82325954  6.97459548  7.1478353   7.32904017
  7.50825378  7.67352856  7.81291692  7.92442761  8.00208684  8.04788588
  8.06580724  8.05784219  8.03195578  7.99412179  7.95230528  7.91048878
  7.87862858  7.85672469  7.85274217  7.86867227  7.90650625  7.96425286
  8.04589461  8.14744899  8.26493347  8.39834805  8.54570146  8.69902866
  8.86231217  9.02957821  9.20281803  9.38402291  9.56921031  9.76037149
  9.95750646 10.16061522 10.36571524 10.56683274 10.76197645 10.94517258
 11.10845609 11.24784446 11.35338136 11.42506681 11.456927   11.44697069
 11.39718913 11.30559107 11.17416775 11.00889298 10.81374927 10.59271915
 10.35177641 10.09490356  9.83006567  9.56323652  9.29839863  9.04152578
  8.79859178  8.56959661  8.3585228   8.16736162  7.99611306  7.84676838
  7.71534507  7.60383437  7.50626252  7.42462076  7.35691784  7.29917124
  7.24938968  7.20757317  7.16973918  7.13787899  7.10601879  7.07814112
  7.05225471  7.0263683   7.00048189  6.97459548  6.95070033  6.92481392
  6.90091877  6.87503236  6.85113721  6.8252508   6.80135565  6.77546924
  6.75157409  6.72568768  6.70179253  6.67590612  6.65201098  6.62612457
  6.60222942  6.57833427  6.55244786  6.52855271  6.5026663   6.47877115
  6.45288474  6.42898959  6.40310318  6.37920804  6.35332162  6.32942648
  6.30354007  6.27964492  6.25574977  6.22986336  6.20596821  6.18207306
  6.15817792  6.13428277  6.11237888  6.09445752  6.07852742  6.06857111
  6.06657985  6.07653616  6.10242257  6.14623034  6.21393326  6.30752259
  6.42699833  6.57236048  6.73763526  6.91684887  7.09805374  7.26531978
  7.40470814  7.49829747  7.53414019  7.50228     7.39674309  7.21752948
  6.97260421  6.66993234  6.32942648  5.96502547  5.59664194  5.24219724
  4.91164769  4.61694086  4.36006802  4.14102916  3.95584177  3.79654078
  3.65117863  3.51179026  3.36841938  3.21310091  3.04185235  2.85666495
  2.65753872  2.4524387   2.24733868  2.05418623  1.88094641  1.73359299
  1.62009104  1.54243181  1.5006153   1.49265025  1.51256287  1.55836191
  1.6220823   1.69775027  1.78337455  1.87895514  1.98449205  2.10396779
  2.23738237  2.39070957]","[-2.03532774e+00 -1.75148529e+00 -1.45877277e+00 -1.16783426e+00
 -8.87539849e-01 -6.26759601e-01 -3.89041553e-01 -1.79707749e-01
  1.24181070e-03  1.57355156e-01  2.88632287e-01  4.03943281e-01
  5.06836168e-01  6.07955039e-01  7.12621941e-01  8.31480966e-01
  9.71628173e-01  1.13661160e+00  1.32820525e+00  1.54995716e+00
  1.79654528e+00  2.06087356e+00  2.33761995e+00  2.61436633e+00
  2.88579067e+00  3.14124887e+00  3.37541889e+00  3.58297868e+00
  3.76392824e+00  3.91649355e+00  4.04599667e+00  4.15598562e+00
  4.24823441e+00  4.32806510e+00  4.39725170e+00  4.45756822e+00
  4.50901466e+00  4.54804300e+00  4.57465322e+00  4.58529732e+00
  4.57465322e+00  4.54626898e+00  4.49482254e+00  4.42563594e+00
  4.33870919e+00  4.24291237e+00  4.14001948e+00  4.03890061e+00
  3.94487780e+00  3.86149908e+00  3.79408650e+00  3.73909202e+00
  3.69651566e+00  3.66103535e+00  3.62732906e+00  3.58652671e+00
  3.53330625e+00  3.46057162e+00  3.36477480e+00  3.24768979e+00
  3.10754258e+00  2.95142924e+00  2.78467180e+00  2.61614035e+00
  2.45647897e+00  2.31278373e+00  2.19569872e+00  2.10699796e+00
  2.05200348e+00  2.02894129e+00  2.03781136e+00  2.06974364e+00
  2.11941607e+00  2.17795857e+00  2.23827509e+00  2.29149555e+00
  2.33584593e+00  2.36423017e+00  2.37664828e+00  2.37487427e+00
  2.36245616e+00  2.34116798e+00  2.31810578e+00  2.29504358e+00
  2.27552941e+00  2.26133729e+00  2.25246721e+00  2.24891918e+00
  2.24891918e+00  2.24891918e+00  2.24714517e+00  2.24359714e+00
  2.23472706e+00  2.22053494e+00  2.20102077e+00  2.17618455e+00
  2.14780031e+00  2.11409402e+00  2.07861371e+00  2.04135939e+00
  2.00233106e+00  1.96330272e+00  1.92427438e+00  1.88347203e+00
  1.84266968e+00  1.80186733e+00  1.76106498e+00  1.72026263e+00
  1.67768626e+00  1.63688391e+00  1.59608156e+00  1.55350519e+00
  1.50915481e+00  1.46480442e+00  1.41690601e+00  1.36545957e+00
  1.30869108e+00  1.24482653e+00  1.17386592e+00  1.09048720e+00
  9.92916357e-01  8.81153394e-01  7.53424293e-01  6.07955039e-01
  4.44745633e-01  2.63796073e-01  7.22024222e-02 -1.30035321e-01
 -3.37595109e-01 -5.43380883e-01 -7.43844610e-01 -9.30116216e-01
 -1.10042168e+00 -1.25298700e+00 -1.38426413e+00 -1.49602709e+00
 -1.59004990e+00 -1.66988059e+00 -1.73906719e+00 -1.80115772e+00]",9.868049000983666,3.748671706052788,5.021940000000001,0.05227000000000004
001,1,1,csm,46b.png,1,1,304,313,298,1,0,246,neu_feedback_onset,4,"[ 1.98093060e-02 -4.16990415e-02 -1.01398320e-01 -1.61097598e-01
 -2.17178739e-01 -2.67832672e-01 -3.07632191e-01 -3.34768227e-01
 -3.43813572e-01 -3.32959158e-01 -3.00395915e-01 -2.42505705e-01
 -1.61097598e-01 -5.61715938e-02  7.22723083e-02  2.18806901e-01
  3.79814046e-01  5.49866536e-01  7.27155302e-01  9.00825930e-01
  1.07087842e+00  1.23007650e+00  1.37661109e+00  1.50867313e+00
  1.62807169e+00  1.73661583e+00  1.83611463e+00  1.93380435e+00
  2.03330315e+00  2.14184729e+00  2.25943678e+00  2.39330789e+00
  2.53984248e+00  2.70084963e+00  2.86909305e+00  3.04457275e+00
  3.21643431e+00  3.38105959e+00  3.52940325e+00  3.65784715e+00
  3.76277316e+00  3.84056313e+00  3.89121706e+00  3.91473496e+00
  3.91292589e+00  3.88940799e+00  3.84599033e+00  3.78629106e+00
  3.71211922e+00  3.62347484e+00  3.52216698e+00  3.40638656e+00
  3.27613359e+00  3.13502620e+00  2.97944626e+00  2.81843912e+00
  2.65019570e+00  2.48195227e+00  2.32094513e+00  2.17260147e+00
  2.04053943e+00  1.93199529e+00  1.84877811e+00  1.79269697e+00
  1.75832466e+00  1.74747024e+00  1.75108838e+00  1.76737000e+00
  1.78907883e+00  1.81259673e+00  1.83611463e+00  1.85601439e+00
  1.87229601e+00  1.88676856e+00  1.89943204e+00  1.91390460e+00
  1.93018622e+00  1.95008598e+00  1.97360387e+00  2.00073991e+00
  2.03149408e+00  2.06586639e+00  2.10385684e+00  2.14365636e+00
  2.18526495e+00  2.22687354e+00  2.27029120e+00  2.31370885e+00
  2.35893558e+00  2.40235324e+00  2.44757996e+00  2.49099762e+00
  2.53441528e+00  2.57964200e+00  2.62305966e+00  2.66828639e+00
  2.71170404e+00  2.75693077e+00  2.80034843e+00  2.84557515e+00
  2.88899281e+00  2.93421954e+00  2.97763719e+00  3.02105485e+00
  3.06628158e+00  3.10969923e+00  3.15492596e+00  3.19834362e+00
  3.24357034e+00  3.28698800e+00  3.33221473e+00  3.37563238e+00
  3.42085911e+00  3.46427677e+00  3.50950349e+00  3.55292115e+00
  3.59814788e+00  3.64156553e+00  3.68498319e+00  3.73020992e+00
  3.77362757e+00  3.81885430e+00  3.86227196e+00  3.90749868e+00
  3.95091634e+00  3.99614306e+00  4.03956072e+00  4.08478745e+00
  4.12820511e+00  4.17343183e+00  4.21684949e+00  4.26026715e+00
  4.30549387e+00  4.34891153e+00  4.39413825e+00  4.43755591e+00
  4.48278264e+00  4.52620029e+00  4.57142702e+00  4.61484468e+00
  4.66007140e+00  4.70348906e+00  4.74871579e+00  4.79213344e+00
  4.83555110e+00  4.88077783e+00  4.92419548e+00  4.96942221e+00
  5.01283987e+00  5.05806659e+00  5.10148425e+00  5.14671098e+00
  5.19012863e+00  5.23535536e+00  5.27877302e+00  5.32399974e+00
  5.36741740e+00  5.41264413e+00  5.45606178e+00  5.49947944e+00
  5.54470617e+00  5.58812382e+00  5.63335055e+00  5.67676821e+00
  5.72199493e+00  5.76541259e+00  5.81063932e+00  5.85405697e+00
  5.89928370e+00  5.94270136e+00  5.98792808e+00  6.03134574e+00
  6.07476340e+00  6.11999012e+00  6.16340778e+00  6.20863451e+00
  6.25205216e+00  6.29727889e+00  6.34069655e+00  6.38592327e+00
  6.42934093e+00  6.47456766e+00  6.51798531e+00  6.56321204e+00
  6.60662970e+00  6.65185642e+00  6.69527408e+00  6.74050080e+00
  6.78391846e+00  6.82733612e+00  6.86894471e+00  6.90874423e+00
  6.94673468e+00  6.97748885e+00  6.99919768e+00  7.00824302e+00
  7.00100675e+00  6.97206164e+00  6.91417143e+00  6.82733612e+00
  6.70251035e+00  6.53969414e+00  6.33888748e+00  6.10009036e+00
  5.82692094e+00  5.52118827e+00  5.18831956e+00  4.83374203e+00
  4.46288288e+00  4.08116931e+00  3.69402853e+00  3.30688776e+00
  2.92698326e+00  2.56155131e+00  2.21782819e+00  1.90124111e+00
  1.61721727e+00  1.36937481e+00  1.15952280e+00  9.87661245e-01
  8.48362928e-01  7.38009717e-01  6.47556264e-01  5.69766295e-01
  4.97403534e-01  4.23231703e-01  3.45441734e-01  2.64033627e-01
  1.80816451e-01  1.01217413e-01  3.24727893e-02 -1.63720748e-02
 -4.16990415e-02 -3.62718343e-02  3.52768464e-03  7.40813774e-02
  1.73580175e-01  2.92978732e-01  4.25040772e-01  5.60720950e-01
  6.89164852e-01  8.06754340e-01  9.04444069e-01  9.82234037e-01
  1.04012425e+00  1.07811470e+00  1.09982353e+00  1.11067794e+00
  1.11610515e+00  1.12334142e+00  1.13419584e+00  1.15409560e+00
  1.18484977e+00  1.23007650e+00  1.28796671e+00  1.35852040e+00
  1.43992851e+00  1.52857289e+00  1.62445355e+00  1.72214328e+00]","[-1.43790389e+00 -1.10818221e+00 -8.24304190e-01 -5.86269825e-01
 -3.88789463e-01 -2.23047016e-01 -8.37528322e-02  3.96723942e-02
  1.47228663e-01  2.44205626e-01  3.25313632e-01  3.92315898e-01
  4.41685989e-01  4.73423904e-01  4.85766427e-01  4.80476774e-01
  4.61081381e-01  4.29343466e-01  3.88789463e-01  3.42945808e-01
  2.93575717e-01  2.44205626e-01  1.94835536e-01  1.45465445e-01
  9.78585723e-02  5.02516993e-02  4.40804380e-03 -3.96723942e-02
 -8.55160497e-02 -1.29596488e-01 -1.73676926e-01 -2.19520581e-01
 -2.63601019e-01 -3.07681457e-01 -3.51761895e-01 -3.95842333e-01
 -4.39922771e-01 -4.84003209e-01 -5.28083647e-01 -5.72164085e-01
 -6.16244523e-01 -6.60324961e-01 -7.04405399e-01 -7.48485837e-01
 -7.92566275e-01 -8.36646713e-01 -8.80727151e-01 -9.24807589e-01
 -9.68888027e-01 -1.01473168e+00 -1.05881212e+00 -1.10465578e+00
 -1.15049943e+00 -1.19986952e+00 -1.24923961e+00 -1.30389936e+00
 -1.36208553e+00 -1.42732458e+00 -1.49961650e+00 -1.58248772e+00
 -1.67417503e+00 -1.77820487e+00 -1.89457722e+00 -2.02329210e+00
 -2.16258629e+00 -2.31245978e+00 -2.47291257e+00 -2.64394467e+00
 -2.82379286e+00 -3.01598357e+00 -3.21875358e+00 -3.43386612e+00
 -3.65955796e+00 -3.89582911e+00 -4.13915313e+00 -4.38071393e+00
 -4.61698507e+00 -4.83738726e+00 -5.03134119e+00 -5.19003077e+00
 -5.30463991e+00 -5.36458930e+00 -5.36458930e+00 -5.30287669e+00
 -5.17768825e+00 -4.99255041e+00 -4.75627926e+00 -4.47945411e+00
 -4.17265426e+00 -3.85527511e+00 -3.53965917e+00 -3.24520184e+00
 -2.98248243e+00 -2.76560668e+00 -2.59986423e+00 -2.48701831e+00
 -2.42706892e+00 -2.41648961e+00 -2.44293787e+00 -2.50112405e+00
 -2.57870562e+00 -2.66862972e+00 -2.76031703e+00 -2.85376756e+00
 -2.94369165e+00 -3.03361574e+00 -3.12706627e+00 -3.22404323e+00
 -3.33336272e+00 -3.45326151e+00 -3.58726604e+00 -3.73537631e+00
 -3.89053946e+00 -4.05099225e+00 -4.20968183e+00 -4.35955532e+00
 -4.49179663e+00 -4.59582646e+00 -4.66988160e+00 -4.70161952e+00
 -4.68927699e+00 -4.63109081e+00 -4.52706098e+00 -4.37895071e+00
 -4.19381287e+00 -3.98398998e+00 -3.75829814e+00 -3.53436952e+00
 -3.32278342e+00 -3.14117201e+00 -3.00011461e+00 -2.91019052e+00
 -2.87492617e+00 -2.89608478e+00 -2.96661348e+00 -3.08298583e+00
 -3.23462254e+00 -3.40918107e+00 -3.59608213e+00 -3.78650962e+00]",5.9375455093931535,-0.005548949252008162,5.527704999999999,-0.049714999999999954
001,1,1,csp,64a.png,1,1,240,304,248,1,0,295,neg_feedback_onset,5,"[ 0.14787175  0.13651884  0.12327377  0.11002869  0.09489147  0.07975425
  0.06272487  0.04569549  0.02677396  0.00974459 -0.00728479 -0.02620632
 -0.0432357  -0.06215722 -0.0791866  -0.09621598 -0.1113532  -0.12649043
 -0.13784334 -0.14730411 -0.14919626 -0.1435198  -0.12649043 -0.09810813
 -0.05269646  0.00974459  0.09110716  0.18949912  0.3030283   0.42601824
  0.55090033  0.67389028  0.78363515  0.87445849  0.93879169  0.9747426
  0.97663475  0.94446815  0.87635064  0.77606654  0.64550798  0.48656713
  0.30492045  0.10624439 -0.10378459 -0.32138218 -0.53708762 -0.74900875
 -0.94768481 -1.1331158  -1.29962526 -1.44721319 -1.57209529 -1.6761637
 -1.75563412 -1.81429086 -1.84834962 -1.86159469 -1.85402608 -1.82564378
 -1.78023211 -1.71589891 -1.63832064 -1.5474973  -1.44532104 -1.33179186
 -1.20880192 -1.07824336 -0.93822404 -0.79442042 -0.64304818 -0.49167595
 -0.34030371 -0.19082363 -0.04702     0.08921501  0.21788141  0.3389792
  0.45440053  0.56225325  0.66632166  0.77039008  0.87445849  0.9785269
  1.08637962  1.19612449  1.30586936  1.41372208  1.5215748   1.62375106
  1.72025086  1.80918205  1.88865247  1.96055429  2.01921103  2.06651485
  2.10057361  2.11949514  2.12517159  2.11949514  2.10057361  2.07597562
  2.04570117  2.01542672  1.99082873  1.97001505  1.96055429  1.95866213
  1.9681229   1.98704443  2.01353457  2.04948548  2.09111284  2.14220097
  2.20274987  2.27654383  2.36169071  2.46386697  2.57739615  2.7041704
  2.83851326  2.97285612  3.10152252  3.21694385  3.31344365  3.38534546
  3.42886498  3.44589436  3.43454144  3.40048269  3.34561025  3.27560059
  3.19802232  3.11476759  3.02962071  2.95015028  2.87635632  2.81202312
  2.76093499  2.72498408  2.70795471  2.71363116  2.74579776  2.80445451
  2.89149354  3.00880703  3.1545028   3.32479657  3.51968832  3.73160946
  3.95677566  4.18761832  4.41846098  4.64173503  4.84987185  5.037195
  5.19235154  5.31534148  5.39670406  5.43833142  5.43833142  5.39859621
  5.32291009  5.21884168  5.09206743  4.94826381  4.79499942  4.63605857
  4.47333342  4.30682396  4.14031449  3.97002073  3.7940505   3.61240382
  3.42508068  3.23208107  3.03529717  2.84040541  2.65308227  2.47711204
  2.3181712   2.18004403  2.06840701  1.98515228  1.92838769  1.89811324
  1.89243678  1.907574    1.94163276  1.99082873  2.05326978  2.12327944
  2.20085771  2.28222029  2.36547502  2.45251406  2.54144525  2.63037643
  2.71930762  2.81013097  2.89906215  2.9898855   3.07881669  3.16964003
  3.25857122  3.34939456  3.43832575  3.52914909  3.61997243  3.71079577
  3.80351127  3.89622676  3.98894226  4.08544206  4.18383401  4.28411812
  4.38629438  4.48847064  4.5906469   4.69093101  4.7836465   4.86311692
  4.92366582  4.95772457  4.95772457  4.91798936  4.82905817  4.68903885
  4.49603925  4.25195152  3.96245212  3.6332175   3.2793849   2.91230723
  2.54522955  2.19139695  1.86027018  1.56320217  1.3001929   1.07691886
  0.89338002  0.74389994  0.6246943   0.53387096  0.4638613   0.41277317
  0.37493011  0.34843997  0.32762628  0.31059691  0.29167538  0.26896954
  0.23680294  0.19139127  0.12895022  0.0494798  -0.04702    -0.16054918
 -0.28732343 -0.42166629]","[-0.99792708 -0.91795478 -0.83980003 -0.76164528 -0.68349054 -0.60533579
 -0.52354594 -0.43993853 -0.34724336 -0.24364288 -0.12731954  0.00536178
  0.15803617  0.32888609  0.51427642  0.71238962  0.91413792  1.11043357
  1.29400635  1.45031585  1.5739094   1.65751681  1.69750296  1.69386785
  1.6538817   1.58117961  1.48484934  1.3757962   1.26310796  1.15223727
  1.04863679  0.95594162  0.86869911  0.78690926  0.7014843   0.60515403
  0.49246579  0.35433182  0.18893456 -0.00736109 -0.23637267 -0.4944651
 -0.7761857  -1.07608183 -1.38870082 -1.70313737 -2.01393881 -2.31019983
 -2.58465023 -2.83547244 -3.05357872 -3.23896905 -3.38800834 -3.50433168
 -3.58430398 -3.637013   -3.66245873 -3.66791139 -3.65700607 -3.63519545
 -3.60974971 -3.58430398 -3.56612846 -3.55885825 -3.56249335 -3.58248643
 -3.62065503 -3.67336404 -3.74243103 -3.82422088 -3.9187336  -4.01688143
 -4.11866435 -4.21862973 -4.30768979 -4.38402699 -4.44218866 -4.47672215
 -4.48399236 -4.46581684 -4.41856048 -4.34949349 -4.26043343 -4.1550154
 -4.04232716 -3.92782136 -3.81876823 -3.71880285 -3.63337789 -3.56431091
 -3.51341944 -3.4807035  -3.46252798 -3.45525777 -3.45707532 -3.46434553
 -3.47161574 -3.4770684  -3.4807035  -3.4807035  -3.47525084 -3.46616308
 -3.45344022 -3.43708225 -3.41890672 -3.39891365 -3.37892057 -3.35710995
 -3.33348177 -3.31167114 -3.28986051 -3.26623233 -3.2444217  -3.22079353
 -3.1989829  -3.17535472 -3.15354409 -3.13173346 -3.10992284 -3.08992976
 -3.06993669 -3.05357872 -3.03722074 -3.02631543 -3.01722767 -3.01177501
 -3.01177501 -3.01541012 -3.02086277 -3.02631543 -3.03176809 -3.03358564
 -3.02813298 -3.01177501 -2.98451173 -2.94452558 -2.88999901 -2.82456713
 -2.74641238 -2.66098742]",4.05237668602655,0.5578522348168683,5.284985,0.08700499999999955
001,1,1,csp,51a.png,1,1,164,144,162,1,1,278,pos_feedback_onset,6,"[-0.04997779  0.06663705  0.17029468  0.25173997  0.29986673  0.31467496
  0.29616467  0.24618688  0.17214571  0.08329631 -0.01110618 -0.1018066
 -0.17954983 -0.23693173 -0.27210129 -0.28135643 -0.2665482  -0.22952762
 -0.17214571 -0.09995558 -0.01665926  0.07219014  0.1647416   0.25729305
  0.34429143  0.42573671  0.49792685  0.55901081  0.61083963  0.65156227
  0.68302976  0.70709314  0.72560344  0.73856064  0.74781579  0.7552199
  0.75707093  0.75892196  0.7552199   0.74966681  0.7422627   0.73300755
  0.72930549  0.72930549  0.74041167  0.76077299  0.79594254  0.8440693
  0.90330224  0.97179032  1.04212942  1.11246853  1.1735525   1.2179772
  1.24574263  1.25314675  1.23833852  1.20316896  1.15319117  1.09210721
  1.03102325  0.97364134  0.92736562  0.90330224  0.90330224  0.92921664
  0.98289649  1.05878869  1.15319117  1.25684881  1.36050644  1.4530579
  1.52524804  1.57152377  1.58448097  1.56411965  1.5104398   1.43084555
  1.332741    1.22167925  1.10876647  1.00325781  0.90885532  0.8311121
  0.77187916  0.73115652  0.70524211  0.69413594  0.69043388  0.69413594
  0.70154006  0.7107952   0.72190138  0.73300755  0.74411373  0.75707093
  0.76817711  0.77928328  0.79224049  0.80334666  0.81445284  0.82741004
  0.83851622  0.84962239  0.86072857  0.87183474  0.88479194  0.89589812
  0.90700429  0.91811047  0.93106767  0.94217385  0.95513105  0.96623723
  0.98104546  0.99585369  1.01436399  1.03472531  1.05878869  1.08655412
  1.11987265  1.15689323  1.1994669   1.24204057  1.28646527  1.32348586
  1.35310232  1.36791056  1.36235747  1.33088997  1.26795498  1.17170147
  1.03842737  0.86443062  0.65526433  0.41092848  0.14067822 -0.14808233
 -0.44794906 -0.7422627  -1.0217681  -1.27350807 -1.48637643 -1.65111802
 -1.7640308  -1.81771065 -1.81585962 -1.76032874 -1.65852214 -1.51969495
 -1.35310232 -1.17540352 -0.99400267 -0.82185695 -0.6663705  -0.53494743
 -0.42758774 -0.34799348 -0.29246261 -0.25914408 -0.24248482 -0.24248482
 -0.25173997 -0.27025026 -0.29431364 -0.32022805 -0.34984451 -0.38131201
 -0.41277951 -0.444247   -0.4757145  -0.50718199 -0.54050052 -0.57196801
 -0.60343551 -0.63675404 -0.66822153 -0.69968903 -0.73300755 -0.76447505
 -0.79594254 -0.82926107 -0.86072857 -0.89219606 -0.92551459 -0.95698208
 -0.98844958 -1.0217681  -1.0532356  -1.08655412 -1.11802162 -1.14948912
 -1.18280764 -1.21427514 -1.24574263 -1.27906116 -1.31052865 -1.34199615
 -1.37531467 -1.40678217 -1.43824967 -1.47156819 -1.50303569 -1.53635421
 -1.56782171 -1.5992892  -1.63260773 -1.66407523 -1.69554272 -1.72886125
 -1.76032874 -1.79179624 -1.82511476 -1.85658226 -1.88804976 -1.92136828
 -1.95283578 -1.98430327 -2.0176218  -2.04908929 -2.08240782 -2.11387531
 -2.14534281 -2.17866134 -2.21012883 -2.24159633 -2.27491485 -2.30638235
 -2.33784984 -2.37116837 -2.40263587 -2.43410336 -2.46742189 -2.49888938
 -2.53220791 -2.5636754  -2.5951429  -2.62846142 -2.65992892 -2.69139642
 -2.72471494 -2.75618244 -2.78764993 -2.82096846 -2.85243595 -2.88390345
 -2.91722198 -2.94868947 -2.98015697 -3.01347549 -3.04494299 -3.07826151
 -3.10972901 -3.14119651 -3.17451503 -3.20598253 -3.23745002 -3.27076855
 -3.30223604 -3.33370354]","[-1.00868171e-01 -7.48803016e-03  5.59399900e-02  9.11777791e-02
  9.82253369e-02  8.23683318e-02  4.88924322e-02  3.08330654e-03
 -4.97733770e-02 -9.91062816e-02 -1.41391628e-01 -1.71343749e-01
 -1.83676975e-01 -1.74867528e-01 -1.43153518e-01 -8.50111660e-02
 -2.20236181e-03  1.08796674e-01  2.49747830e-01  4.20651106e-01
  6.23268393e-01  8.57599690e-01  1.12188311e+00  1.41611865e+00
  1.73502064e+00  2.06977963e+00  2.41687185e+00  2.76044030e+00
  3.09343740e+00  3.40352995e+00  3.67838470e+00  3.91447789e+00
  4.10476195e+00  4.24923688e+00  4.35495025e+00  4.42718772e+00
  4.47828251e+00  4.51704408e+00  4.55932942e+00  4.61394800e+00
  4.68618547e+00  4.77956561e+00  4.89408842e+00  5.02446824e+00
  5.16013373e+00  5.29403733e+00  5.41208392e+00  5.50370217e+00
  5.56360641e+00  5.58122531e+00  5.55832074e+00  5.49489272e+00
  5.39446502e+00  5.26408520e+00  5.11256271e+00  4.94870699e+00
  4.78661316e+00  4.63332878e+00  4.49942518e+00  4.39194993e+00
  4.31442679e+00  4.27214144e+00  4.26509389e+00  4.28976034e+00
  4.34437891e+00  4.42014016e+00  4.50999652e+00  4.60513855e+00
  4.69675680e+00  4.77427994e+00  4.83066040e+00  4.85885063e+00
  4.85708874e+00  4.82361284e+00  4.75842293e+00  4.66504279e+00
  4.55051998e+00  4.42014016e+00  4.27918900e+00  4.13823785e+00
  4.00081047e+00  3.87395443e+00  3.76119350e+00  3.66076581e+00
  3.57619511e+00  3.50395764e+00  3.43700585e+00  3.37005405e+00
  3.29781658e+00  3.20972211e+00  3.10048496e+00  2.95953380e+00
  2.78158297e+00  2.56134679e+00  2.29706337e+00  1.98697083e+00
  1.63283105e+00  1.23992970e+00  8.15314343e-01  3.69556312e-01
 -9.02968343e-02 -5.48388091e-01 -9.95908012e-01 -1.42052337e+00
 -1.81694850e+00 -2.17285016e+00 -2.48646649e+00 -2.75427368e+00
 -2.97274797e+00 -3.14188936e+00 -3.26345973e+00 -3.34274476e+00
 -3.37974444e+00 -3.38503011e+00 -3.36564932e+00 -3.32864964e+00
 -3.28636430e+00 -3.24584084e+00 -3.22117439e+00 -3.21588872e+00
 -3.23703139e+00 -3.28812619e+00 -3.36741121e+00 -3.47488647e+00
 -3.60174251e+00 -3.74269366e+00 -3.88716860e+00 -4.02635787e+00
 -4.15145202e+00 -4.25892727e+00 -4.33997419e+00 -4.39459276e+00
 -4.42278299e+00 -4.42454488e+00 -4.40340221e+00 -4.36464064e+00
 -4.31178396e+00 -4.24659405e+00 -4.17611847e+00 -4.09859533e+00]",1.0716533392565921,4.700060344713672,5.402400000000002,0.35506999999999955
001,1,1,csm,44b.png,1,1,216,86,210,1,1,394,neu_feedback_onset,7,"[  0.69439036   0.76951902   0.83731805   0.89229024   0.93077077
   0.94543002   0.92893837   0.87579859   0.78234586   0.63941817
   0.45068033   0.21796473  -0.05506381  -0.35924325  -0.67808195
  -1.00241786  -1.31392693  -1.60527953  -1.86364882  -2.08720238
  -2.27410782  -2.42436514  -2.54530395  -2.64242149  -2.72121496
  -2.7908464   -2.85131581  -2.90445559  -2.95026574  -2.98691387
  -3.01073515  -3.01806478  -3.00523793  -2.97408703  -2.92461206
  -2.85681302  -2.77618715  -2.68456683  -2.5874493   -2.48300214
  -2.37122536  -2.25211895  -2.1220181   -1.97725801  -1.81417385
  -1.62910081  -1.4220389   -1.19482052  -0.94744567  -0.68357917
  -0.41055063  -0.13019247   0.1519981    0.43052386   0.7053848
   0.96925131   1.22212337   1.46033619   1.67839254   1.87446001
   2.04304139   2.17680705   2.27392458   2.33072918   2.34722084
   2.32523196   2.27025977   2.19329871   2.09984599   2.00272845
   1.91294054   1.83597948   1.77734248   1.74069435   1.72053788
   1.71137585   1.70771104   1.70221382   1.68572217   1.65457126
   1.60326388   1.53729726   1.45300657   1.35955385   1.26060391
   1.16348637   1.07553087   1.00406703   0.95275965   0.93077077
   0.93626799   0.97291612   1.03888275   1.12683825   1.23128541
   1.34122978   1.44384453   1.52813522   1.5794426    1.59043704
   1.54829169   1.45483897   1.31007888   1.12500584   0.90694949
   0.67789871   0.45068033   0.24728323   0.08053426  -0.03490734
  -0.09171193  -0.08438231  -0.01475087   0.11351757   0.2967582
   0.52580898   0.79517271   1.09568734   1.42002325   1.75901842
   2.10900802   2.46083003   2.80898722   3.14248516   3.45582664
   3.73984961   3.98905687   4.19611878   4.35920294   4.47281213
   4.54244357   4.56809726   4.55527041   4.51129266   4.44532604
   4.36836497   4.2895715    4.21810766   4.15763825   4.1154929
   4.08800681   4.07517997   4.07151515   4.06968275   4.0568559
   4.02936981   3.97806243   3.89560415   3.78199496   3.63540246
   3.46132386   3.26525639   3.05452966   2.84013813   2.627579
   2.42967912   2.2482709    2.09068395   1.96058311   1.85430354
   1.77367767   1.71504067   1.67472773   1.64724163   1.63258238
   1.62525276   1.62525276   1.62708516   1.63258238   1.63991201
   1.64724163   1.65640366   1.6655657    1.67289532   1.68205735
   1.69121938   1.69854901   1.70404623   1.70954345   1.71137585
   1.71137585   1.70404623   1.68938698   1.66373329   1.62525276
   1.57028057   1.4933195    1.39253716   1.26426872   1.10301697
   0.9087819    0.67973111   0.4140322    0.11168516  -0.22731
  -0.59745607  -0.99875305  -1.42387131  -1.86914603  -2.32908001
  -2.79634362  -3.26543963  -3.72903842  -4.17981036  -4.61409065
  -5.02454966  -5.40752258  -5.75751218  -6.07451847  -6.35854144
  -6.6077487   -6.82580504  -7.0163753   -7.18312427  -7.32971677
  -7.45981762  -7.57892403  -7.69070081  -7.79514797  -7.89593032
  -7.99488026  -8.09199779  -8.18728292  -8.28440045  -8.37968558
  -8.4731383   -8.56842343  -8.66370855  -8.75899368  -8.85427881
  -8.94956393  -9.04301665  -9.13830178  -9.2317545   -9.32703963
  -9.41865994  -9.51211266  -9.60190057  -9.68985607  -9.77414676
  -9.85477264  -9.9299013   -9.99953274 -10.06183455 -10.11680674
 -10.1626169  -10.19926502 -10.22491871 -10.23957796 -10.24507518
 -10.24141037 -10.22858352 -10.21025946 -10.18643818 -10.1626169
 -10.14062802 -10.12413636 -10.11680674 -10.11680674 -10.12780118]","[-0.25143662 -0.16993966 -0.11622577 -0.08844271 -0.0810339  -0.09029492
 -0.11437356 -0.14586102 -0.17734848 -0.20513153 -0.21994916 -0.21439255
 -0.18290509 -0.12363458 -0.03102441  0.09122102  0.2431017   0.42091323
  0.6209512   0.8358068   1.06362782  1.30070986  1.54520071  1.79339597
  2.04714784  2.30460411  2.56391259  2.82136887  3.07512074  3.3214638
  3.55298922  3.76784482  3.95862178  4.12346788  4.25867873  4.36425433
  4.43834246  4.48279535  4.50316958  4.50131738  4.48279535  4.45316009
  4.41796823  4.38277636  4.3494367   4.32165365  4.30127941  4.29016619
  4.28646178  4.29016619  4.30127941  4.31980144  4.34017568  4.36425433
  4.39203738  4.41982043  4.44945568  4.48094314  4.5105784   4.54206586
  4.57355331  4.60318857  4.63467603  4.66616348  4.69579874  4.7272862
  4.75692145  4.78655671  4.81433976  4.84027061  4.86249705  4.87916688
  4.8902801   4.8884279   4.87361027  4.84212281  4.78840891  4.71061637
  4.60318857  4.46982992  4.30683602  4.11791127  3.90676008  3.67893906
  3.44556143  3.21033159  2.98436277  2.77506379  2.58984344  2.43425835
  2.30830852  2.21384615  2.15087123  2.11567937  2.10827055  2.12123598
  2.15272343  2.19902852  2.25829903  2.32683056  2.4027709   2.48241564
  2.56206039  2.63985294  2.71023667  2.77135938  2.81951667  2.85470853
  2.87508277  2.88063938  2.87323057  2.85841294  2.8380387   2.81766446
  2.80469904  2.80469904  2.82322107  2.86211735  2.92694447  3.01955464
  3.13624345  3.27515871  3.43444821  3.60299872  3.77710584  3.94750855
  4.10679805  4.24941771  4.36981094  4.46797772  4.54206586  4.59577975
  4.62911942  4.64949365  4.66060687  4.66616348  4.66801569  4.66801569
  4.66616348  4.66245908]",3.188890853635635,4.209456424599095,5.457305,0.0037400000000005207
001,1,1,csm,18b.png,1,1,188,42,182,1,1,318,neu_feedback_onset,8,"[-1.57281689e-01 -1.70498638e-01 -1.70498638e-01 -1.57281689e-01
 -1.30847792e-01 -9.49732168e-02 -4.96579643e-02  3.20983039e-03
  5.79657606e-02  1.12721691e-01  1.63701350e-01  2.01464060e-01
  2.22233551e-01  2.24121687e-01  1.99575925e-01  1.48596266e-01
  7.11827092e-02 -3.07766090e-02 -1.53505418e-01 -2.89451176e-01
 -4.32949475e-01 -5.80224046e-01 -7.23722346e-01 -8.55891832e-01
 -9.76732506e-01 -1.07680369e+00 -1.15799352e+00 -1.21463758e+00
 -1.24862402e+00 -1.25995283e+00 -1.24673589e+00 -1.21274945e+00
 -1.16176979e+00 -1.09568504e+00 -1.02015962e+00 -9.37081660e-01
 -8.54003697e-01 -7.70925734e-01 -6.93512178e-01 -6.19874892e-01
 -5.51902013e-01 -4.85817270e-01 -4.19732527e-01 -3.49871512e-01
 -2.72457956e-01 -1.83715586e-01 -7.79799971e-02  4.47488119e-02
  1.88247112e-01  3.50626767e-01  5.33775912e-01  7.33918278e-01
  9.47277592e-01  1.17196572e+00  1.39854198e+00  1.62511824e+00
  1.84414197e+00  2.04806060e+00  2.23120975e+00  2.38792500e+00
  2.51443008e+00  2.60883685e+00  2.66736905e+00  2.69191481e+00
  2.68625041e+00  2.65037583e+00  2.59184363e+00  2.51254194e+00
  2.41813516e+00  2.31051144e+00  2.19533517e+00  2.07260636e+00
  1.94798942e+00  1.81959620e+00  1.68931485e+00  1.55714537e+00
  1.42497588e+00  1.29280639e+00  1.16063691e+00  1.02657928e+00
  8.94409797e-01  7.62240311e-01  6.28182688e-01  4.96013202e-01
  3.63843715e-01  2.31674229e-01  9.95047421e-02 -3.07766090e-02
 -1.61057960e-01 -2.89451176e-01 -4.14068120e-01 -5.34908794e-01
 -6.53861332e-01 -7.65261327e-01 -8.70996917e-01 -9.69179964e-01
 -1.06169860e+00 -1.14855284e+00 -1.23163080e+00 -1.31470876e+00
 -1.39967486e+00 -1.49030537e+00 -1.59037655e+00 -1.70177655e+00
 -1.82828163e+00 -1.97177993e+00 -2.13038331e+00 -2.30786805e+00
 -2.49856974e+00 -2.70248837e+00 -2.91962396e+00 -3.14431209e+00
 -3.37466462e+00 -3.60879342e+00 -3.84292223e+00 -4.06949849e+00
 -4.28852221e+00 -4.49055271e+00 -4.67181372e+00 -4.82664084e+00
 -4.94559337e+00 -5.02867134e+00 -5.06643405e+00 -5.05699337e+00
 -5.00223744e+00 -4.89650185e+00 -4.74733915e+00 -4.55286119e+00
 -4.32062052e+00 -4.05439341e+00 -3.76173240e+00 -3.44830191e+00
 -3.11976632e+00 -2.78556634e+00 -2.44947821e+00 -2.11527823e+00
 -1.79240705e+00 -1.48086469e+00 -1.18631555e+00 -9.10647763e-01
 -6.59525738e-01 -4.31061340e-01 -2.29030839e-01 -5.15460998e-02
  9.95047421e-02  2.24121687e-01  3.26081005e-01  4.07270832e-01
  4.69579305e-01  5.14894557e-01  5.46992861e-01  5.67762352e-01
  5.80979300e-01  5.86643707e-01  5.88531842e-01  5.88531842e-01
  5.84755571e-01  5.80979300e-01  5.75314894e-01  5.69650487e-01
  5.62097945e-01  5.56433539e-01  5.50769132e-01  5.43216590e-01
  5.37552183e-01  5.29999641e-01  5.24335235e-01  5.16782693e-01
  5.11118286e-01  5.05453879e-01  4.97901337e-01  4.92236931e-01
  4.84684389e-01  4.79019982e-01  4.71467440e-01  4.65803033e-01
  4.60138627e-01  4.52586085e-01  4.46921678e-01  4.39369136e-01
  4.33704730e-01  4.26152187e-01  4.20487781e-01  4.14823374e-01
  4.07270832e-01  4.01606426e-01  3.94053884e-01  3.88389477e-01
  3.80836935e-01  3.75172528e-01  3.69508122e-01  3.61955580e-01
  3.56291173e-01  3.48738631e-01  3.43074224e-01  3.35521682e-01
  3.29857276e-01  3.24192869e-01  3.16640327e-01  3.10975921e-01
  3.03423379e-01  2.97758972e-01  2.90206430e-01  2.84542023e-01
  2.78877617e-01  2.71325075e-01  2.65660668e-01  2.58108126e-01
  2.52443719e-01  2.44891177e-01  2.39226771e-01  2.33562364e-01
  2.26009822e-01  2.20345416e-01  2.12792873e-01  2.07128467e-01
  1.99575925e-01  1.93911518e-01  1.88247112e-01  1.80694570e-01
  1.75030163e-01  1.67477621e-01  1.61813214e-01  1.54260672e-01
  1.48596266e-01  1.42931859e-01  1.35379317e-01  1.29714910e-01
  1.22162368e-01  1.16497962e-01  1.08945420e-01  1.03281013e-01
  9.76166065e-02  9.00640644e-02  8.43996579e-02  7.68471158e-02
  7.11827092e-02  6.36301671e-02  5.79657606e-02  5.23013540e-02
  4.47488119e-02  3.90844053e-02  3.34199988e-02  2.77555922e-02
  2.20911856e-02  1.64267790e-02  1.26505080e-02  8.87423696e-03
  6.98610143e-03  5.09796591e-03  6.98610143e-03  8.87423696e-03
  1.45386435e-02  2.02030501e-02  2.77555922e-02  3.53081343e-02
  4.28606764e-02  4.85250829e-02  5.23013540e-02  5.04132185e-02]","[-0.55897755 -0.40937899 -0.26146131 -0.11858628  0.01924611  0.14867408
  0.26465499  0.36550795  0.44282856  0.49157416  0.50838298  0.48485062
  0.4192962   0.3117197   0.16212114 -0.02109508 -0.23120542 -0.45644371
 -0.67832023 -0.88338792 -1.05483796 -1.1775424  -1.23973506 -1.23301153
 -1.15569092 -1.00777324 -0.79430114 -0.52704078 -0.21607748  0.12346084
  0.47812709  0.83279335  1.17905519  1.50346556  1.79930092  2.06319951
  2.29011868  2.47669666  2.62293346  2.72882907  2.79270262  2.81791586
  2.80278791  2.75068055  2.66495553  2.54561285  2.39769517  2.22456425
  2.02790097  1.81274798  1.58246705  1.33873905  1.08828753  0.83111247
  0.57393741  0.321805    0.07975789 -0.14716128 -0.35390986 -0.53208343
 -0.68000111 -0.79598202 -0.88002615 -0.93045264 -0.95062323 -0.94558058
 -0.91532469 -0.86657909 -0.80270555 -0.72370406 -0.63629816 -0.54048784
 -0.44131576 -0.33878191 -0.23792895 -0.14211864 -0.05303185  0.02260787
  0.08143877  0.12009907  0.1369079   0.13018437  0.0982476   0.04614023
 -0.02445684 -0.11018186 -0.2043113  -0.30516426 -0.40601722 -0.50518931
 -0.59931874 -0.68840552 -0.77076878 -0.8464085  -0.91532469 -0.97919824
 -1.03802913 -1.09517914 -1.14896739 -1.20107476 -1.25150124 -1.30192772
 -1.3523542  -1.4010998  -1.4498454  -1.50027188 -1.54901748 -1.59776308
 -1.64650868 -1.69693516 -1.74568076 -1.79442636 -1.84149108 -1.88855579
 -1.93562051 -1.98100434 -2.02302641 -2.06000583 -2.09530437 -2.12387938
 -2.14573085 -2.16253968 -2.17262498 -2.18102939 -2.18775292 -2.1995191
 -2.21800881 -2.2482647  -2.29532942 -2.35920296 -2.4432471  -2.54410006
 -2.65840009 -2.78446629 -2.91389426 -3.04332223 -3.16770755 -3.28368846
 -3.38622231 -3.47194733]",1.4686390130338076,0.9921830548530874,5.2962299999999995,0.31547000000000125
001,1,1,csp,37a.png,1,1,328,30,329,1,1,375,pos_feedback_onset,9,"[ 1.34760195  1.2046298   1.06165764  0.92047263  0.77750047  0.63631546
  0.49334331  0.3521583   0.20918614  0.06800113 -0.07318387 -0.21615603
 -0.35734104 -0.49852605 -0.64149821 -0.78089606 -0.92208107 -1.05969177
 -1.19551532 -1.32597742 -1.45107805 -1.56903009 -1.6762592  -1.77097826
 -1.84961295 -1.91216327 -1.95505491 -1.98007504 -1.9890108  -1.98364935
 -1.96756498 -1.944332   -1.91931187 -1.8960789  -1.87999453 -1.87463308
 -1.87999453 -1.8996532  -1.93360909 -1.98186219 -2.04619967 -2.12662151
 -2.22134056 -2.33393114 -2.45903177 -2.60021678 -2.75391185 -2.91654268
 -3.08453497 -3.25252726 -3.41694524 -3.57242746 -3.71718677 -3.84943602
 -3.96738805 -4.06925571 -4.15861331 -4.2336737  -4.29801117 -4.35162573
 -4.39273022 -4.42132465 -4.43204757 -4.42847326 -4.40345314 -4.35698718
 -4.29086256 -4.20507926 -4.10142445 -3.98525957 -3.86015893 -3.72969684
 -3.59744759 -3.46519834 -3.3365234  -3.21142276 -3.09347073 -2.98266731
 -2.88079964 -2.79501635 -2.72531742 -2.67885147 -2.65740565 -2.66634141
 -2.70923305 -2.78429344 -2.89152256 -3.02555895 -3.18104118 -3.34724631
 -3.51345145 -3.66535936 -3.79224716 -3.88339191 -3.93164501 -3.92985786
 -3.88160476 -3.7868857  -3.65642361 -3.50094138 -3.33473625 -3.17210542
 -3.02555895 -2.90760692 -2.82539793 -2.78608059 -2.78429344 -2.82003648
 -2.88437395 -2.96479579 -3.05236623 -3.13278807 -3.19355124 -3.22393282
 -3.21678422 -3.16495681 -3.0648763  -2.91832983 -2.72889172 -2.50192342
 -2.24636069 -1.97113928 -1.68519496 -1.3974635  -1.12045494 -0.8577436
 -0.61647808 -0.40023269 -0.21079458 -0.04637659  0.09302126  0.20918614
  0.30569235  0.38611419  0.45402596  0.51121483  0.55946793  0.60414673
  0.64525122  0.68278142  0.7167373   0.74175743  0.75605465  0.7578418
  0.73997028  0.69886578  0.63452831  0.54338356  0.42900583  0.29496944
  0.14484867 -0.01242071 -0.16969008 -0.3180237  -0.44848579 -0.55750206
 -0.63613675 -0.68438985 -0.70226137 -0.68975131 -0.65043397 -0.5896708
 -0.51103611 -0.42167851 -0.32338515 -0.21794318 -0.10713976  0.00902512
  0.13412576  0.26994931  0.42185723  0.59163666  0.78286193  0.99553301
  1.22607562  1.47448975  1.73362678  1.99812528  2.26083662  2.5146122
  2.75409057  2.97391026  3.16870983  3.33848927  3.48146143  3.5976263
  3.69055821  3.76025714  3.81029739  3.84425328  3.86391195  3.87463486
  3.87820917  3.87463486  3.86927341  3.86033765  3.85140189  3.83889182
  3.82816891  3.81565885  3.80314878  3.79063872  3.77991581  3.76740574
  3.75489568  3.74238562  3.72987555  3.71736549  3.70485542  3.69234536
  3.68162245  3.66911238  3.65660232  3.64409226  3.63158219  3.61907213
  3.60656206  3.594052    3.58154194  3.57081902  3.55830896  3.5457989
  3.53328883  3.52077877  3.50826871  3.49575864  3.48324858  3.47073851
  3.4600156   3.44750554  3.43499547  3.42248541  3.40997535  3.39746528
  3.38495522  3.37244515  3.35993509  3.34921218  3.33670211  3.32419205
  3.31168199  3.29917192  3.28666186  3.2741518   3.26164173  3.24913167
  3.23840876  3.22589869  3.21338863  3.20087856  3.1883685   3.17585844
  3.16334837  3.15262546  3.1401154   3.12760533  3.11509527  3.10437236
  3.09186229  3.08113938]","[-1.20431407 -1.26240142 -1.30596693 -1.32774969 -1.31504308 -1.26240142
 -1.16074856 -1.01008451 -0.80677879 -0.55627711 -0.26402514  0.05727049
  0.39671843  0.73979682  1.07379907  1.3823881   1.65648777  1.88883715
  2.07217534  2.20831756  2.29726381  2.34809024  2.369873    2.37168823
  2.36442731  2.35898162  2.36805777  2.39710144  2.45518879  2.54413504
  2.66938588  2.82549563  3.00883381  3.21576999  3.43541277  3.66231647
  3.88377448  4.09252588  4.27949453  4.43741951  4.55903989  4.64254045
  4.68429073  4.68429073  4.64435568  4.56630081  4.4555718   4.32124481
  4.17058076  4.01447101  3.86199172  3.7258495   3.61330527  3.53161994
  3.4862392   3.47716305  3.50076104  3.55521792  3.6332728   3.72403428
  3.82024144  3.91463338  3.99994917  4.07255836  4.13246093  4.17602644
  4.20688535  4.22503764  4.23229856  4.23229856  4.2286681   4.21959195
  4.20870058  4.19599397  4.18147213  4.1669503   4.15242846  4.13790662
  4.12338479  4.10886295  4.09252588  4.07800405  4.06348221  4.04896037
  4.03262331  4.01810147  4.00357963  3.98724257  3.97272073  3.95819889
  3.94367706  3.92733999  3.91281815  3.89829632  3.88195925  3.86743741
  3.85110035  3.83476328  3.81661098  3.79845869  3.77667593  3.75126272
  3.72040382  3.68591445  3.64234894  3.59152251  3.53343517  3.4680869
  3.39729295  3.32468376  3.25025935  3.1794654   3.11593236  3.05784501
  3.00883381  2.96889876  2.93259417  2.89992004  2.86724591  2.83094131
  2.78919103  2.74017983  2.68390772  2.62400514  2.55865688  2.49149338
  2.42614511  2.36079685  2.29726381  2.23554601  2.17745866  2.12118654
  2.06854488  2.01590323  1.96326157  1.91243514  1.86160871  1.81259751
  1.76177108  1.71275988]",3.269862630562629,3.5831724586105174,5.595495,-0.21199500000000082
001,1,1,csp,44a.png,1,1,292,282,292,1,1,417,pos_feedback_onset,10,"[ 0.94354604  0.88663403  0.82788615  0.76363066  0.69203168  0.61492508
  0.52863913  0.43133796  0.32302155  0.20368992  0.07150719 -0.07169077
 -0.22223222 -0.38195302 -0.54350969 -0.70690223 -0.86845891 -1.02267209
 -1.16770592 -1.30172453 -1.42105616 -1.52570082 -1.61382264 -1.68725749
 -1.74600537 -1.79190216 -1.82678371 -1.85065004 -1.86533701 -1.87268049
 -1.86900875 -1.85615765 -1.83045545 -1.79006628 -1.73315427 -1.65604768
 -1.55691063 -1.437579   -1.29438104 -1.13282437 -0.95474486 -0.76565011
 -0.57104776 -0.38011715 -0.19836589 -0.03313748  0.10822461  0.22021276
  0.29915522  0.34321613  0.35423136  0.33220091  0.28263238  0.21286927
  0.1284192   0.04029737 -0.04782445 -0.12676691 -0.19469415 -0.24609854
 -0.28281597 -0.30484642 -0.31402578 -0.31769752 -0.31769752 -0.31953339
 -0.32687688 -0.34339972 -0.37093779 -0.40581934 -0.44804438 -0.49210529
 -0.53433033 -0.56737602 -0.58573473 -0.58573473 -0.56003253 -0.51046401
 -0.43335741 -0.33238449 -0.21121699 -0.07536252  0.06967131  0.21470515
  0.35239549  0.47723474  0.58004353  0.65898599  0.70855452  0.7287491
  0.71956975  0.68652406  0.6332838   0.56352069  0.48457822  0.40196402
  0.32302155  0.25142257  0.19083882  0.14677791  0.11923984  0.10822461
  0.11373223  0.13759855  0.17431598  0.2238845   0.28079651  0.34688788
  0.41481511  0.48641409  0.55801307  0.62777618  0.69753929  0.76913827
  0.84073725  0.91967971  1.00596566  1.10143097  1.21341912  1.34009424
  1.48696394  1.65035648  1.83027186  2.02671009  2.23599942  2.45630397
  2.67844439  2.90058482  3.11538176  3.31916347  3.50642234  3.67348662
  3.81668458  3.93601621  4.03148152  4.10491637  4.16182838  4.20588929
  4.24627846  4.28483176  4.32522092  4.37478945  4.42802972  4.48494172
  4.54001786  4.58407877  4.61345271  4.61712446  4.58958639  4.53083851
  4.43904494  4.31604157  4.17100774  4.01128694  3.84422265  3.68083011
  3.52661692  3.38892658  3.27143081  3.17412964  3.0933513   3.02725993
  2.9721838   2.92445114  2.8822261   2.84367281  2.80695538  2.77574557
  2.75187924  2.7353564   2.73168466  2.74086402  2.76289447  2.79777603
  2.84367281  2.90242069  2.96851205  3.04011103  3.1190535   3.19983183
  3.28244604  3.36689612  3.45318207  3.53946802  3.62575397  3.71387579
  3.80016174  3.88644769  3.97273364  4.05718372  4.13979793  4.22241213
  4.29951873  4.37478945  4.44455256  4.50697218  4.56388419  4.61345271
  4.65567775  4.69055931  4.71993325  4.74563545  4.7676659   4.78786048
  4.80989094  4.83008552  4.85028011  4.87047469  4.88699753  4.9016845
  4.91086386  4.91269973  4.90902799  4.89617689  4.87781818  4.85395185
  4.82457791  4.79153223  4.75848654  4.72360499  4.69055931  4.65751362
  4.62813968  4.59876574  4.57306355  4.54736135  4.52533089  4.50330044
  4.48126998  4.45923953  4.43904494  4.41885036  4.39865578  4.37846119
  4.35826661  4.33807202  4.31971331  4.29951873  4.27932414  4.25912956
  4.23893497  4.21874039  4.20038168  4.18018709  4.16182838  4.14346967
  4.12511096  4.10675224  4.0902294   4.07370656  4.05534785  4.03515326
  4.01128694  3.98374887  3.94886731  3.90664227  3.85523788  3.79465413
  3.72305515  3.64044094]","[-2.04600908e+00 -1.96834414e+00 -1.84814838e+00 -1.67987433e+00
 -1.46537114e+00 -1.20833715e+00 -9.19867341e-01 -6.11056715e-01
 -2.96698593e-01  1.02628681e-02  3.00581840e-01  5.66861661e-01
  8.03554836e-01  1.01251053e+00  1.19557791e+00  1.35830446e+00
  1.50438853e+00  1.63937761e+00  1.76697002e+00  1.88531661e+00
  1.99811570e+00  2.10351813e+00  2.20152390e+00  2.28843467e+00
  2.36425045e+00  2.43266958e+00  2.48999370e+00  2.53992117e+00
  2.58245197e+00  2.61943528e+00  2.65087110e+00  2.68230691e+00
  2.71004439e+00  2.73593271e+00  2.76182102e+00  2.78770934e+00
  2.81359765e+00  2.83763680e+00  2.86167595e+00  2.88756427e+00
  2.91160342e+00  2.93749174e+00  2.96153089e+00  2.98557004e+00
  3.01145835e+00  3.03549750e+00  3.06138582e+00  3.08542497e+00
  3.10946412e+00  3.13535244e+00  3.15939159e+00  3.18343074e+00
  3.20746989e+00  3.23150904e+00  3.25369902e+00  3.27588901e+00
  3.29622983e+00  3.31287232e+00  3.32766564e+00  3.33691147e+00
  3.34245896e+00  3.34245896e+00  3.33321314e+00  3.31841981e+00
  3.29438066e+00  3.26109569e+00  3.22041405e+00  3.17048658e+00
  3.11131329e+00  3.04474333e+00  2.97262588e+00  2.89311177e+00
  2.80805016e+00  2.71744105e+00  2.62313361e+00  2.52697701e+00
  2.42527291e+00  2.31802132e+00  2.20707139e+00  2.08687564e+00
  1.95558490e+00  1.81319916e+00  1.65602010e+00  1.48219855e+00
  1.29173451e+00  1.08832631e+00  8.71973956e-01  6.48224940e-01
  4.22626758e-01  2.04425238e-01  1.01704098e-03 -1.82050336e-01
 -3.35531066e-01 -4.53877654e-01 -5.37090098e-01 -5.81470068e-01
 -5.88866730e-01 -5.64827579e-01 -5.16749278e-01 -4.50179323e-01
 -3.74363540e-01 -2.98547758e-01 -2.28279472e-01 -1.70955344e-01
 -1.28424539e-01 -1.00687057e-01 -8.40445686e-02 -7.66479069e-02
 -7.11004106e-02 -6.37037489e-02 -4.89104255e-02 -2.30221095e-02
  1.21120335e-02  6.01903346e-02  1.19363628e-01  1.84084418e-01
  2.54352704e-01  3.22771825e-01  3.87492615e-01  4.44816743e-01
  4.94744210e-01  5.37275014e-01  5.70559992e-01  6.00146639e-01
  6.24185789e-01  6.46375774e-01  6.68565760e-01  6.90755745e-01
  7.12945730e-01  7.35135715e-01  7.55476535e-01  7.72119023e-01
  7.81364851e-01  7.81364851e-01  7.72119023e-01  7.51778204e-01
  7.18493226e-01  6.75962421e-01  6.26034955e-01  5.70559992e-01]",4.677616414892239,3.020935326363828,5.447004999999999,0.05521999999999938
001,1,1,csm,56b.png,1,1,116,87,133,1,1,294,neu_feedback_onset,11,"[ 1.01460544e+00  9.65476583e-01  9.05010293e-01  8.29427431e-01
  7.36838426e-01  6.27243276e-01  5.00641982e-01  3.55144973e-01
  1.98310534e-01  3.20282378e-02 -1.36143630e-01 -3.00536355e-01
 -4.53591650e-01 -5.87751230e-01 -6.97346380e-01 -7.78597957e-01
 -8.23947674e-01 -8.33395532e-01 -8.06941530e-01 -7.46475240e-01
 -6.55775806e-01 -5.38622370e-01 -4.04462790e-01 -2.60855352e-01
 -1.17247915e-01  2.06908085e-02  1.43512959e-01  2.45549823e-01
  3.23022256e-01  3.72151117e-01  3.91046832e-01  3.85378117e-01
  3.55144973e-01  3.07905684e-01  2.47439394e-01  1.81304390e-01
  1.15169386e-01  5.28135248e-02 -3.87362168e-03 -5.11129104e-02
 -9.26834845e-02 -1.30474915e-01 -1.70155918e-01 -2.15505635e-01
 -2.75971925e-01 -3.57223501e-01 -4.59260365e-01 -5.87751230e-01
 -7.42696097e-01 -9.16536680e-01 -1.10360426e+00 -1.29823013e+00
 -1.49096643e+00 -1.67047573e+00 -1.83108931e+00 -1.96713846e+00
 -2.07673361e+00 -2.15987476e+00 -2.21845148e+00 -2.26002205e+00
 -2.28836562e+00 -2.30915091e+00 -2.32615706e+00 -2.33938406e+00
 -2.34505277e+00 -2.34127363e+00 -2.32048834e+00 -2.27513862e+00
 -2.20144533e+00 -2.09751890e+00 -1.96335932e+00 -1.80274574e+00
 -1.62701558e+00 -1.44750629e+00 -1.27555527e+00 -1.12438955e+00
 -1.00156740e+00 -9.16536680e-01 -8.71186963e-01 -8.59849533e-01
 -8.78745249e-01 -9.18426251e-01 -9.67555112e-01 -1.01857354e+00
 -1.06203369e+00 -1.09415641e+00 -1.10927298e+00 -1.10549383e+00
 -1.08470855e+00 -1.04502755e+00 -9.86450827e-01 -9.08978394e-01
 -8.10720673e-01 -6.89788094e-01 -5.40511942e-01 -3.64781788e-01
 -1.60708060e-01  7.17092403e-02  3.28690971e-01  6.08347560e-01
  9.03120722e-01  1.21112088e+00  1.52478976e+00  1.84601692e+00
  2.16724409e+00  2.49225039e+00  2.81914627e+00  3.14793172e+00
  3.47482760e+00  3.80172348e+00  4.11917150e+00  4.42717166e+00
  4.71438654e+00  4.97325784e+00  5.19811685e+00  5.37762615e+00
  5.50422744e+00  5.57603116e+00  5.58736859e+00  5.54201887e+00
  5.44376115e+00  5.29637457e+00  5.11686528e+00  4.91279155e+00
  4.70304911e+00  4.50464409e+00  4.33080351e+00  4.19475436e+00
  4.10972364e+00  4.07949050e+00  4.10594450e+00  4.18341693e+00
  4.30434951e+00  4.45173609e+00  4.61423924e+00  4.77485283e+00
  4.92223941e+00  5.04506156e+00  5.14142971e+00  5.20945428e+00
  5.25858314e+00  5.29826415e+00  5.33605558e+00  5.38707401e+00
  5.45887773e+00  5.55713545e+00  5.68562631e+00  5.83679204e+00
  6.00874305e+00  6.18825234e+00  6.36398250e+00  6.52459608e+00
  6.66064523e+00  6.76457167e+00  6.83070667e+00  6.85905024e+00
  6.84771282e+00  6.80236310e+00  6.72489066e+00  6.62285380e+00
  6.50003165e+00  6.36398250e+00  6.21470635e+00  6.05976148e+00
  5.89914790e+00  5.73475517e+00  5.56847288e+00  5.40030101e+00
  5.23401871e+00  5.06584684e+00  4.89767498e+00  4.72950311e+00
  4.56133124e+00  4.39504894e+00  4.22876665e+00  4.06248435e+00
  3.89620206e+00  3.73180933e+00  3.56552703e+00  3.39924474e+00
  3.23107287e+00  3.05912186e+00  2.88339171e+00  2.70577198e+00
  2.52626268e+00  2.35053253e+00  2.17858152e+00  2.01607836e+00
  1.86680221e+00  1.73264263e+00  1.61548920e+00  1.50778362e+00
  1.40763633e+00  1.30182032e+00  1.18277731e+00  1.03916987e+00
  8.57771005e-01  6.32911990e-01  3.60813687e-01  4.52552386e-02
 -3.08094641e-01 -6.87898522e-01 -1.07903983e+00 -1.46262286e+00
 -1.82164145e+00 -2.14475819e+00 -2.41874606e+00 -2.63415722e+00
 -2.79099166e+00 -2.88735981e+00 -2.92893038e+00 -2.92137209e+00
 -2.87035366e+00 -2.78343337e+00 -2.66627993e+00 -2.52645164e+00
 -2.36583806e+00 -2.19199748e+00 -2.00681946e+00 -1.81408317e+00
 -1.62323644e+00 -1.43616886e+00 -1.26232827e+00 -1.10927298e+00
 -9.88340399e-01 -9.03309679e-01 -8.63628677e-01 -8.74966106e-01
 -9.42990682e-01 -1.07148155e+00 -1.26043870e+00 -1.50797257e+00
 -1.81030402e+00 -2.15798519e+00 -2.54156821e+00 -2.95160524e+00
 -3.36920055e+00 -3.77923758e+00 -4.17037889e+00 -4.52750791e+00
 -4.84117679e+00 -5.10193766e+00 -5.30979053e+00 -5.46095626e+00
 -5.56299312e+00 -5.61968027e+00 -5.64046555e+00 -5.62912812e+00
 -5.59511584e+00 -5.54598698e+00 -5.48363111e+00 -5.41560654e+00
 -5.34002368e+00 -5.26444081e+00 -5.18507881e+00 -5.10571680e+00
 -5.02635480e+00 -4.94510322e+00 -4.86574122e+00 -4.78448964e+00]","[-1.17713448 -1.04810045 -0.91734596 -0.78487102 -0.65239608 -0.51820068
 -0.38228483 -0.24636898 -0.11217359  0.0185809   0.14417403  0.26288534
  0.37299438  0.47450115  0.56568521  0.64998744  0.72740786  0.80138737
  0.87364643  0.94762595  1.02160546  1.09902588  1.17300539  1.24182354
  1.29687806  1.33472805  1.34849168  1.33128714  1.28483489  1.20741447
  1.10246679  0.97687366  0.84095781  0.70332151  0.57772838  0.46933979
  0.38847847  0.34030576  0.32826258  0.35062848  0.4022421   0.47966252
  0.57428747  0.6775147   0.78246238  0.87708734  0.95622821  1.01472364
  1.04741227  1.05085317  1.02848727  0.98031457  0.91149642  0.82375327
  0.7222465   0.61385791  0.50030796  0.38675801  0.27664897  0.17170129
  0.07363542 -0.01926908 -0.10529177 -0.18443265 -0.26013261 -0.33239167
 -0.40120982 -0.47002797 -0.53540522 -0.60078246 -0.66443925 -0.7298165
 -0.79347329 -0.85713008 -0.92078687 -0.98444366 -1.04810045 -1.11175724
 -1.17541403 -1.24079127 -1.30444806 -1.36810485 -1.43176164 -1.49541843
 -1.55907522 -1.62273201 -1.6863888  -1.75004559 -1.81370238 -1.87907963
 -1.94273642 -2.00639321 -2.07005    -2.13370679 -2.19736358 -2.26102037
 -2.32467716 -2.38833395 -2.45199074 -2.51736798 -2.58102477 -2.64468156
 -2.70833835 -2.77199514 -2.83737239 -2.90274963 -2.96984733 -3.03866548
 -3.11264499 -3.19006541 -3.2760881  -3.37243351 -3.48254256 -3.60985614
 -3.75609471 -3.92297872 -4.11222864 -4.3186831  -4.54234209 -4.77460335
 -5.00686461 -5.23396451 -5.44385987 -5.63138934 -5.78967108 -5.91526421
 -6.00816871 -6.07010505 -6.10279367 -6.11483685 -6.10795503 -6.08903004
 -6.06494369 -6.03569598 -6.00472781 -5.97548009 -5.94623238 -5.91870512
 -5.89117786 -5.86537105]",5.7240790936859005,0.6827190739829476,5.292205,0.38120000000000065
001,1,1,csm,28b.png,1,1,244,276,249,1,1,250,neu_feedback_onset,12,"[-0.81982861 -0.72967928 -0.62008598 -0.49458397 -0.36024379 -0.22236835
 -0.08802817  0.03747384  0.14706714  0.23898411  0.30968946  0.35741558
  0.38569772  0.39100062  0.37862718  0.34857741  0.29908366  0.2336812
  0.15237004  0.05515018 -0.05797839 -0.18701567 -0.32842638 -0.48397817
 -0.64836812 -0.81982861 -0.996592   -1.17335539 -1.34658352 -1.51450874
 -1.67359579 -1.82384467 -1.96348775 -2.09429266 -2.21449177 -2.32408507
 -2.42837547 -2.52559534 -2.6175123  -2.705894   -2.79074043 -2.87381922
 -2.95513038 -3.03290627 -3.11068217 -3.18845806 -3.26093105 -3.3316364
 -3.39527123 -3.45006788 -3.49249109 -3.52254087 -3.53491431 -3.53314667
 -3.5190056  -3.49249109 -3.46067368 -3.42885627 -3.4041094  -3.38996832
 -3.39173596 -3.4147152  -3.45890605 -3.52607614 -3.61092256 -3.7116777
 -3.82480627 -3.94500537 -4.06520448 -4.18363595 -4.29676452 -4.39928729
 -4.48943662 -4.56544488 -4.62554443 -4.66620001 -4.68741162 -4.68917925
 -4.67150291 -4.63261497 -4.57958595 -4.51064823 -4.43287233 -4.34979354
 -4.26671475 -4.18540359 -4.1129306  -4.04752814 -3.99096386 -3.94147011
 -3.89727926 -3.85308841 -3.80712993 -3.75233328 -3.68693082 -3.6073873
 -3.51193506 -3.39703886 -3.26623395 -3.11952033 -2.95866565 -2.78897279
 -2.61044177 -2.43014311 -2.25161208 -2.08015159 -1.92106454 -1.77788619
 -1.65415182 -1.55516432 -1.48092369 -1.43673285 -1.41905651 -1.42966231
 -1.47031789 -1.53395271 -1.62233441 -1.72839244 -1.84859155 -1.97762883
 -2.10843373 -2.23570338 -2.35413485 -2.45665762 -2.53796878 -2.5963007
 -2.62635047 -2.62811811 -2.60337123 -2.55034221 -2.47256632 -2.37357882
 -2.25514735 -2.11903954 -1.96702302 -1.8044007  -1.62940494 -1.44380338
 -1.25113129 -1.05492392 -0.85518129 -0.65897392 -0.47160473 -0.30014424
 -0.14812772 -0.02439335  0.06752362  0.12762317  0.15237004  0.14529951
  0.11171446  0.05691781 -0.01378754 -0.09333107 -0.17110696 -0.24711522
 -0.31251768 -0.36908196 -0.41150518 -0.44509022 -0.46630183 -0.47867526
 -0.4857458  -0.48751343 -0.4857458  -0.4804429  -0.47514    -0.46806946
 -0.46099893 -0.45216076 -0.44509022 -0.43625205 -0.42918151 -0.42034335
 -0.41150518 -0.40443464 -0.39559647 -0.38852593 -0.37968777 -0.3708496
 -0.36377906 -0.35494089 -0.34610272 -0.33726455 -0.32842638 -0.31958821
 -0.31251768 -0.30367951 -0.29660897 -0.29130607 -0.28953844 -0.28953844
 -0.29660897 -0.30898241 -0.32842638 -0.35670852 -0.39559647 -0.44509022
 -0.51049267 -0.59180384 -0.69609424 -0.82513151 -0.9859862  -1.1839612
 -1.42435941 -1.70894847 -2.03949601 -2.41600204 -2.83316364 -3.28391029
 -3.75940381 -4.24727077 -4.73160247 -5.20002545 -5.63663103 -6.03081339
 -6.37373437 -6.6565558  -6.87927767 -7.04013236 -7.14265513 -7.19214888
 -7.19391651 -7.15856383 -7.09139374 -6.99947678 -6.88988348 -6.7661491
 -6.63357656 -6.49393348 -6.35252277 -6.20757679 -6.06086317 -5.91238192
 -5.76566831 -5.61718706 -5.46870581 -5.32022456 -5.17174331 -5.02326206
 -4.87478081 -4.7280672  -4.57958595 -4.4311047  -4.28439109 -4.13767747
 -3.99273149 -3.85132078 -3.71344533 -3.58264042 -3.46067368 -3.35108038
 -3.25916341 -3.18845806 -3.14603484 -3.13719667 -3.16547882 -3.23441654
 -3.34754511 -3.50309689]","[-0.67279272 -0.62159501 -0.57222579 -0.52468507 -0.47714434 -0.42960361
 -0.38206288 -0.33269367 -0.27783898 -0.21567034 -0.14253076 -0.05659175
  0.04763215  0.17014095  0.31276313  0.47367021  0.6492052   0.83205415
  1.01856008  1.20140903  1.37145856  1.52688017  1.66401688  1.78104021
  1.87977864  1.96754614  2.04982817  2.1321102   2.22536316  2.33141555
  2.45758133  2.60386049  2.76842455  2.94944501  3.13960792  3.33342781
  3.5254192   3.70643967  3.8746607   4.02642533  4.16356204  4.28789933
  4.40309417  4.51463203  4.62982687  4.75050718  4.8858154   5.03392305
  5.19483013  5.36853663  5.54955709  5.73423453  5.915255    6.0889615
  6.24804009  6.38883378  6.5076856   6.60642403  6.68504908  6.74538924
  6.79110147  6.82584277  6.85509861  6.88435444  6.91726725  6.95749402
  7.00869172  7.07451735  7.1531424   7.25005234  7.3615902   7.48958447
  7.63037816  7.77848581  7.92842195  8.07470111  8.21000933  8.32154719
  8.40017224  8.44039901  8.43308505  8.37457339  8.26303553  8.10029996
  7.89368065  7.65414852  7.39267452  7.12571505  6.86789803  6.63567986
  6.438203    6.28278139  6.17124353  6.10541791  6.07250509  6.06336265
  6.06701963  6.06701963  6.05056322  6.01033645  5.94085385  5.84211542
  5.71777813  5.57515595  5.42521981  5.28076914  5.15277487  5.04855097
  4.9735829   4.92969915  4.91689972  4.92969915  4.96444045  5.01380967
  5.07049284  5.13266149  5.19665862  5.26065575  5.32282439  5.38499304
  5.44899017  5.51481579  5.58429839  5.65926646  5.73972     5.83114448
  5.92988291  6.04142077  6.16392957  6.29375233  6.43088904  6.56619726
  6.69236304  6.80024392  6.87521199  6.90995329  6.89532538  6.82401428
  6.69053455  6.49854315]",-0.39447161244208734,7.203928692565991,5.65728,-0.15408999999999917
001,1,1,csm,54b.png,1,1,232,226,239,1,1,409,neu_feedback_onset,13,"[-8.18873747e-02 -6.80958168e-02 -5.60282037e-02 -4.39605906e-02
 -3.36169222e-02 -2.15493091e-02 -1.12056407e-02 -8.61972365e-04
  9.48169602e-03  1.98253644e-02  3.01690328e-02  3.87887564e-02
  4.56845354e-02  5.08563695e-02  5.25803143e-02  4.91324248e-02
  4.05127012e-02  2.32732539e-02 -2.58591710e-03 -4.05127012e-02
 -9.22310431e-02 -1.56016998e-01 -2.37042400e-01 -3.30135416e-01
 -4.38743934e-01 -5.59420065e-01 -6.92163809e-01 -8.31803332e-01
 -9.76614690e-01 -1.12142605e+00 -1.26451346e+00 -1.40242904e+00
 -1.53172489e+00 -1.65240102e+00 -1.76100954e+00 -1.85927439e+00
 -1.94891952e+00 -2.03166886e+00 -2.11097032e+00 -2.19027178e+00
 -2.27302113e+00 -2.36266625e+00 -2.46265505e+00 -2.57471145e+00
 -2.70228336e+00 -2.84537078e+00 -3.00742158e+00 -3.18843578e+00
 -3.38668942e+00 -3.60390646e+00 -3.83836294e+00 -4.08833493e+00
 -4.35037453e+00 -4.62275779e+00 -4.90031290e+00 -5.17614405e+00
 -5.43990760e+00 -5.68815564e+00 -5.90709662e+00 -6.09155870e+00
 -6.23119823e+00 -6.32084335e+00 -6.35704619e+00 -6.33808280e+00
 -6.26567712e+00 -6.14327705e+00 -5.97950230e+00 -5.78124865e+00
 -5.55885978e+00 -5.32440330e+00 -5.08822287e+00 -4.86238611e+00
 -4.65551274e+00 -4.47622249e+00 -4.33313508e+00 -4.22969840e+00
 -4.16763639e+00 -4.14867299e+00 -4.16936033e+00 -4.22280262e+00
 -4.30210407e+00 -4.39519709e+00 -4.49173799e+00 -4.57793523e+00
 -4.64344513e+00 -4.68137192e+00 -4.68481980e+00 -4.65378880e+00
 -4.59000284e+00 -4.49690983e+00 -4.38485342e+00 -4.26245335e+00
 -4.13660538e+00 -4.01592925e+00 -3.90559679e+00 -3.80733194e+00
 -3.71941076e+00 -3.64010930e+00 -3.56425573e+00 -3.48495427e+00
 -3.39875704e+00 -3.29704430e+00 -3.17981606e+00 -3.04707231e+00
 -2.90226095e+00 -2.74882987e+00 -2.59539879e+00 -2.45058743e+00
 -2.32129158e+00 -2.21440701e+00 -2.13338160e+00 -2.07993932e+00
 -2.05235620e+00 -2.04201253e+00 -2.04028859e+00 -2.03684070e+00
 -2.02132520e+00 -1.98339841e+00 -1.91616457e+00 -1.81272788e+00
 -1.67653625e+00 -1.51103756e+00 -1.32140364e+00 -1.12314999e+00
 -9.28344237e-01 -7.49053985e-01 -6.00794739e-01 -4.95634110e-01
 -4.42191823e-01 -4.45639713e-01 -5.09425668e-01 -6.33549688e-01
 -8.11115996e-01 -1.03695276e+00 -1.30071630e+00 -1.59206296e+00
 -1.89892512e+00 -2.20751123e+00 -2.50747761e+00 -2.78675666e+00
 -3.03845259e+00 -3.25739357e+00 -3.43840776e+00 -3.58149518e+00
 -3.68665581e+00 -3.76078543e+00 -3.80388405e+00 -3.82284744e+00
 -3.82112349e+00 -3.80560799e+00 -3.77630093e+00 -3.74009809e+00
 -3.69872342e+00 -3.65217691e+00 -3.60563040e+00 -3.55563601e+00
 -3.50564161e+00 -3.45392327e+00 -3.40220493e+00 -3.35221053e+00
 -3.30049219e+00 -3.24877384e+00 -3.19705550e+00 -3.14533716e+00
 -3.09361882e+00 -3.04190048e+00 -2.99018213e+00 -2.93846379e+00
 -2.89019334e+00 -2.84537078e+00 -2.80399610e+00 -2.77468904e+00
 -2.75744960e+00 -2.76089749e+00 -2.78848060e+00 -2.84881867e+00
 -2.94880746e+00 -3.09017093e+00 -3.27980485e+00 -3.51426133e+00
 -3.79354038e+00 -4.11247015e+00 -4.46415488e+00 -4.83652694e+00
 -5.22269056e+00 -5.60885418e+00 -5.98639808e+00 -6.34670252e+00
 -6.68287175e+00 -6.98800996e+00 -7.26211718e+00 -7.50174549e+00
 -7.71034281e+00 -7.88963306e+00 -8.04306414e+00 -8.17408394e+00
 -8.28786429e+00 -8.38440520e+00 -8.46715454e+00 -8.53438839e+00
 -8.58610673e+00 -8.61886168e+00 -8.63265324e+00 -8.62230957e+00
 -8.58783067e+00 -8.52749261e+00 -8.44129537e+00 -8.33268685e+00
 -8.20856283e+00 -8.07237120e+00 -7.93273168e+00 -7.79654004e+00
 -7.67069208e+00 -7.56208356e+00 -7.47071449e+00 -7.40003275e+00
 -7.34659047e+00 -7.30521579e+00 -7.27246084e+00 -7.23798195e+00
 -7.19660728e+00 -7.13799316e+00 -7.05869170e+00 -6.95525501e+00
 -6.82251127e+00 -6.66390836e+00 -6.48117021e+00 -6.28119262e+00
 -6.06914742e+00 -5.85193039e+00 -5.63643730e+00 -5.43128787e+00
 -5.24337790e+00 -5.07615526e+00 -4.93479179e+00 -4.82101144e+00
 -4.73653815e+00 -4.67792403e+00 -4.64689302e+00 -4.63827330e+00
 -4.64861697e+00 -4.67447614e+00 -4.71240292e+00 -4.75894943e+00
 -4.80721988e+00 -4.85549033e+00 -4.90203684e+00 -4.94513546e+00
 -4.98133830e+00 -5.01409325e+00 -5.03995242e+00 -5.06236370e+00
 -5.07960315e+00 -5.09339471e+00 -5.10373837e+00 -5.11235810e+00
 -5.11752993e+00 -5.11925388e+00 -5.11752993e+00 -5.11235810e+00]","[-4.03651552 -3.67733481 -3.22213549 -2.68869879 -2.10547466 -1.49735682
 -0.8910171  -0.31490547  0.21319687  0.67550868  1.06491747  1.37964512
  1.61791352  1.78683514  1.89707872  1.959313    1.9824286   1.97887235
  1.95575676  1.92197244  1.88463187  1.8472913   1.81350697  1.78327889
  1.75838518  1.73882583  1.72104461  1.70859775  1.69792902  1.68726029
  1.67836968  1.66770094  1.65881033  1.6481416   1.63747286  1.62680413
  1.61613539  1.60368854  1.5930198   1.58057295  1.56990421  1.55745736
  1.54678862  1.53434177  1.52367303  1.51122618  1.49877932  1.48811058
  1.47566373  1.46321687  1.45254814  1.44010128  1.42943255  1.41698569
  1.40453884  1.3938701   1.38142324  1.36897639  1.35475141  1.34052643
  1.32274521  1.30140774  1.27651403  1.2427297   1.19827664  1.14137673
  1.06669559  0.97423323  0.85865528  0.71818361  0.55459636  0.36789351
  0.1598532  -0.06596834 -0.30779298 -0.55850823 -0.81633597 -1.07594183
 -1.33376957 -1.58448482 -1.82453133 -2.04857475 -2.24950257 -2.42375856
 -2.56423022 -2.66913944 -2.73315185 -2.75804556 -2.74382058 -2.69225503
 -2.6104614  -2.50555219 -2.38108362 -2.24772445 -2.11080903 -1.97744985
 -1.85475941 -1.74629395 -1.65916595 -1.59337543 -1.55425674 -1.54003176
 -1.55070049 -1.58626294 -1.64316285 -1.71250962 -1.79252513 -1.87609688
 -1.95789051 -2.03257164 -2.09480593 -2.14637147 -2.18371204 -2.20682763
 -2.21571825 -2.21394012 -2.19793702 -2.16770894 -2.12325588 -2.06279972
 -1.98278422 -1.88320937 -1.76407517 -1.62893787 -1.4795756  -1.31954459
 -1.15595733 -0.99770444 -0.84834217 -0.71498299 -0.60473941 -0.51583329
 -0.45537713 -0.41803656 -0.40914595 -0.42159281 -0.45715525 -0.51405517
 -0.58695818 -0.67408618]",-0.3319607691024655,0.7655014235844938,5.800650000000001,-0.03294500000000067
001,1,1,csp,36a.png,1,1,20,356,28,1,1,369,pos_feedback_onset,14,"[ 0.04034833  0.10367532  0.10367532  0.0475857  -0.05192813 -0.17315406
 -0.29980803 -0.40836857 -0.48255161 -0.5078824  -0.47893292 -0.39208449
 -0.25819315 -0.08630563  0.10367532  0.29365626  0.4619251   0.59581644
  0.67904619  0.70980501  0.68447421  0.60848184  0.49087458  0.34431785
  0.18147704  0.0132082  -0.14601393 -0.29438    -0.42284331 -0.53140385
 -0.62187097 -0.69424466 -0.7557623  -0.80823323 -0.85346679 -0.89689101
 -0.93850588 -0.97650207 -1.01268892 -1.04344774 -1.06696919 -1.08144393
 -1.08687195 -1.08506261 -1.0760159  -1.0633505  -1.05430379 -1.05430379
 -1.07058787 -1.10858406 -1.17733907 -1.27866224 -1.41255358 -1.57901308
 -1.76899402 -1.97344971 -2.18152408 -2.37693306 -2.54701124 -2.67909323
 -2.76413232 -2.7930818  -2.76594166 -2.6863306  -2.56148598 -2.40045451
 -2.21409224 -2.01506458 -1.81241824 -1.61519992 -1.42702832 -1.24790342
 -1.0760159  -0.90774706 -0.73585954 -0.55673464 -0.3667537  -0.16591669
  0.04396702  0.25746942  0.46735313  0.66095276  0.83103095  0.96854096
  1.06443611  1.11328835  1.1150977   1.06986414  0.98120636  0.85636174
  0.70437698  0.53248946  0.35336456  0.17423967  0.00597083 -0.14239524
 -0.26362118 -0.35046961 -0.39751252 -0.40474989 -0.36856304 -0.29257066
 -0.18039143 -0.03745339  0.13081545  0.31174969  0.50173064  0.69352093
  0.87988319  1.05900808  1.23089561  1.39554576  1.55657723  1.71399002
  1.87321214  2.03062493  2.18803771  2.34002247  2.48115118  2.6059958
  2.70731897  2.78150201  2.82311688  2.83216359  2.81045149  2.76521793
  2.7000816   2.62770791  2.55714356  2.49562591  2.4522017   2.43048959
  2.43048959  2.45039236  2.48296052  2.52276605  2.56076224  2.58790238
  2.59694909  2.58428369  2.54809684  2.49200723  2.41963354  2.33821313
  2.25860207  2.18622837  2.1319481   2.09937994  2.09214257  2.11023599
  2.15004152  2.20974982  2.28212352  2.36173458  2.44496433  2.52638473
  2.6059958   2.68017884  2.74893385  2.81407017  2.87558781  2.93529611
  2.99138572  3.04747533  3.1017556   3.15422653  3.2085068   3.26097773
  3.315258    3.36772893  3.42019986  3.47267079  3.52695106  3.57942199
  3.63189292  3.68436384  3.73864412  3.79111504  3.84358597  3.8960569
  3.95033717  4.0028081   4.05527903  4.10774996  4.16203023  4.21450116
  4.26697208  4.31944301  4.37191394  4.42619421  4.47866514  4.53113607
  4.583607    4.63788727  4.6903582   4.74282912  4.79530005  4.84958032
  4.90205125  4.95452218  5.00699311  5.06127338  5.11374431  5.16621524
  5.21868616  5.27115709  5.32362802  5.37609895  5.42495119  5.47380344
  5.519037    5.55884253  5.59141069  5.6131228   5.62036017  5.60588543
  5.5660799   5.49551554  5.39057369  5.24763564  5.06670141  4.84777098
  4.59627239  4.31944301  4.02452021  3.72416938  3.42381854  3.13613311
  2.86292241  2.60961448  2.37801866  2.16451626  1.97091663  1.79179174
  1.6235229   1.46611011  1.3159347   1.17118731  1.03367729  0.89797661
  0.76408528  0.6283846   0.4872559   0.34069917  0.18147704  0.01139886
 -0.17134472 -0.36494435 -0.56578136 -0.76661836 -0.96383667 -1.15019894
 -1.32027712 -1.46864319 -1.59891584 -1.70747638 -1.79975284 -1.88117325
 -1.95897497 -2.03858604]","[-1.42707021 -1.2196287  -1.01036753 -0.80292602 -0.59912383 -0.4026003
 -0.22063406 -0.05322512  0.09416753  0.21972423  0.32344498  0.40532979
  0.47083764  0.51814886  0.5545421   0.5836567   0.60731231  0.62914826
  0.65280387  0.67645948  0.70557408  0.73650834  0.77108193  0.80747517
  0.84750774  0.88572065  0.92757289  0.96942512  1.01127736  1.05312959
  1.09498183  1.13683406  1.17868629  1.22053853  1.26421043  1.30606266
  1.34791489  1.38976713  1.43161936  1.47529126  1.51714349  1.55899573
  1.60084796  1.6427002   1.68637209  1.72822433  1.77007656  1.81374846
  1.85742036  1.90109225  1.94658381  1.99207537  2.04120625  2.09033714
  2.14310735  2.19769722  2.25228709  2.3050573   2.35418818  2.39240109
  2.4160567   2.41969603  2.39967974  2.35054886  2.27230337  2.16676296
  2.03756693  1.88835462  1.73004399  1.5699137   1.41706206  1.2751284
  1.15139136  1.0476706   0.96396614  0.90027795  0.85296673  0.82021281
  0.7965572   0.7819999   0.77108193  0.76380328  0.75834429  0.7528853
  0.74742632  0.74378699  0.74014767  0.73468868  0.73104935  0.72559037
  0.72195104  0.71831172  0.71285273  0.70921341  0.70375442  0.70011509
  0.69465611  0.69101678  0.68555779  0.68191847  0.67645948  0.67282016
  0.66736117  0.66372185  0.65826286  0.65462353  0.64916455  0.64552522
  0.64006624  0.63642691  0.63096792  0.6273286   0.62186961  0.61823029
  0.6127713   0.60913198  0.60367299  0.60003366  0.59457468  0.59093535
  0.58547636  0.58183704  0.57637805  0.57273873  0.56727974  0.56364042
  0.56000109  0.55636177  0.5545421   0.55272244  0.55272244  0.5545421
  0.56000109  0.5690994   0.5836567   0.60367299  0.63096792  0.66554151
  0.70739374  0.75834429]",4.587406615317519,1.7325915176439053,5.526870000000001,-0.018719999999998294
001,2,1,csm,1b.png,1,1,256,321,255,1,0,NaN,neu_feedback_onset,1,"[-9.23377072e-01 -7.46175696e-01 -5.63710913e-01 -3.84755067e-01
 -2.18080506e-01 -7.07051036e-02  5.38622005e-02  1.50357999e-01
  2.20536762e-01  2.62644020e-01  2.80188711e-01  2.80188711e-01
  2.64398489e-01  2.43344860e-01  2.17027824e-01  1.95974195e-01
  1.80183974e-01  1.74920566e-01  1.81938443e-01  2.01237602e-01
  2.34572515e-01  2.83697649e-01  3.48613004e-01  4.27564113e-01
  5.24059912e-01  6.36345932e-01  7.62667705e-01  9.01270762e-01
  1.05040063e+00  1.20654838e+00  1.36094166e+00  1.51358047e+00
  1.65744693e+00  1.78903211e+00  1.90658154e+00  2.00307734e+00
  2.08378292e+00  2.14518933e+00  2.19080553e+00  2.22063150e+00
  2.24168513e+00  2.25572089e+00  2.26624770e+00  2.27852898e+00
  2.29782814e+00  2.32414518e+00  2.36449797e+00  2.41888651e+00
  2.49081974e+00  2.58205213e+00  2.69433815e+00  2.82416886e+00
  2.97154427e+00  3.13295542e+00  3.30489339e+00  3.48034030e+00
  3.65227827e+00  3.81018048e+00  3.94527460e+00  4.04878828e+00
  4.10844022e+00  4.11896704e+00  4.07510531e+00  3.97334611e+00
  3.81368942e+00  3.60315313e+00  3.34875512e+00  3.06277666e+00
  2.75925351e+00  2.45573036e+00  2.16448849e+00  1.89956366e+00
  1.67323715e+00  1.49252684e+00  1.35918719e+00  1.27672714e+00
  1.23637435e+00  1.23286542e+00  1.25742798e+00  1.30128971e+00
  1.35567825e+00  1.41357573e+00  1.46796427e+00  1.51708941e+00
  1.55744219e+00  1.59077711e+00  1.61709414e+00  1.63814777e+00
  1.65393799e+00  1.66621928e+00  1.67674609e+00  1.68551844e+00
  1.69253631e+00  1.69955419e+00  1.70832653e+00  1.71534441e+00
  1.72236229e+00  1.72938016e+00  1.73990698e+00  1.75043379e+00
  1.76271508e+00  1.78025977e+00  1.80306786e+00  1.83113937e+00
  1.86973769e+00  1.92061729e+00  1.98202371e+00  2.05746588e+00
  2.14518933e+00  2.24343960e+00  2.35221668e+00  2.46625717e+00
  2.58205213e+00  2.69609262e+00  2.80662417e+00  2.91013785e+00
  3.00663365e+00  3.09786604e+00  3.18558949e+00  3.27155848e+00
  3.35577299e+00  3.43998751e+00  3.51893862e+00  3.59087185e+00
  3.64701486e+00  3.68210424e+00  3.68561318e+00  3.65403273e+00
  3.58034503e+00  3.46279561e+00  3.30489339e+00  3.11014732e+00
  2.88732975e+00  2.64696749e+00  2.40309629e+00  2.16624296e+00
  1.95044327e+00  1.76622401e+00  1.61884861e+00  1.51007153e+00
  1.44340170e+00  1.41182126e+00  1.41182126e+00  1.43287489e+00
  1.46796427e+00  1.50480812e+00  1.53814303e+00  1.56095113e+00
  1.56621454e+00  1.55217879e+00  1.51884388e+00  1.46270086e+00
  1.38901316e+00  1.29953524e+00  1.19602157e+00  1.08022661e+00
  9.59168241e-01  8.31091999e-01  6.97752350e-01  5.62658231e-01
  4.27564113e-01  2.90715525e-01  1.52112468e-01  1.70183500e-02
 -1.18075769e-01 -2.51415418e-01 -3.81246129e-01 -5.07567902e-01
 -6.30380737e-01 -7.49684634e-01 -8.65479593e-01 -9.77765613e-01
 -1.08829716e+00 -1.19531978e+00 -1.29883345e+00 -1.40410160e+00
 -1.50936974e+00 -1.61463789e+00 -1.72166050e+00 -1.83043758e+00
 -1.93921466e+00 -2.04799175e+00 -2.15501436e+00 -2.25852804e+00
 -2.35326937e+00 -2.43923835e+00 -2.50941711e+00 -2.56556012e+00
 -2.60415844e+00 -2.62345760e+00 -2.62521207e+00 -2.60942185e+00
 -2.57784141e+00 -2.53222521e+00 -2.47432773e+00 -2.40941238e+00
 -2.33572467e+00 -2.25677357e+00 -2.17606799e+00 -2.09185347e+00
 -2.00588449e+00 -1.91816104e+00 -1.83219205e+00 -1.74446860e+00
 -1.65674514e+00 -1.56902169e+00 -1.47954377e+00 -1.39182031e+00
 -1.30409686e+00 -1.21637341e+00 -1.12864995e+00 -1.04092650e+00
 -9.51448577e-01 -8.63725124e-01 -7.74247201e-01 -6.84769279e-01
 -5.95291356e-01 -5.02304495e-01 -4.07563165e-01 -3.09312897e-01
 -2.07553691e-01 -9.87766087e-02  1.52638809e-02  1.36322247e-01
  2.64398489e-01  3.99492608e-01  5.38095664e-01  6.78453190e-01
  8.17056247e-01  9.48641427e-01  1.06969979e+00  1.17145900e+00
  1.25216458e+00  1.30128971e+00  1.31532546e+00  1.28549949e+00
  1.21005732e+00  1.08198108e+00  9.01270762e-01  6.69680845e-01
  3.92474731e-01  7.84247675e-02 -2.60187763e-01 -6.09327108e-01
 -9.49694108e-01 -1.26374407e+00 -1.53393231e+00 -1.74446860e+00
 -1.88307165e+00 -1.94272360e+00 -1.91991550e+00 -1.81815630e+00
 -1.64972727e+00 -1.42866416e+00 -1.17251168e+00 -9.02323443e-01
 -6.33889675e-01 -3.88264005e-01 -1.74218779e-01 -5.26340721e-04]","[-1.35568506 -1.29826289 -1.20951955 -1.09467523 -0.96069018 -0.80930448
 -0.64747838 -0.48043209 -0.30816561 -0.13415905  0.04158757  0.21733418
  0.3930808   0.56708736  0.74283398  0.91858059  1.09258715  1.2665937
  1.44234032  1.61634687  1.79035342  1.96610004  2.1401066   2.31585322
  2.48985977  2.66386632  2.83961294  3.01361949  3.18762605  3.36337266
  3.53737922  3.71138577  3.88713239  4.06113894  4.2351455   4.40915205
  4.5831586   4.75716515  4.92943164  5.098218    5.26700436  5.42883045
  5.58543635  5.73160185  5.86384683  5.98043122  6.07787489  6.15095765
  6.19619935  6.21185994  6.19793941  6.15617784  6.08483515  5.99261168
  5.87950742  5.75074257  5.61153733  5.46711189  5.31746626  5.16608055
  5.01469485  4.86330915  4.71366352  4.56401788  4.41785238  4.26994681
  4.1237813   3.9776158   3.83145029  3.68528479  3.53911928  3.39295378
  3.24678827  3.10236283  2.95619733  2.81003183  2.66386632  2.51770082
  2.37327538  2.22710987  2.08094437  1.93477886  1.78861336  1.64418792
  1.49802242  1.35185691  1.20569141  1.06126597  0.91510046  0.77067502
  0.62624958  0.48182415  0.33913877  0.19819346  0.06072829 -0.07151669
 -0.20028154 -0.32208613 -0.43693045 -0.54307445 -0.63877806 -0.72404127
 -0.79712402 -0.85802631 -0.90674815 -0.93980939 -0.95721005 -0.95721005
 -0.93806933 -0.89804782 -0.83888559 -0.75884258 -0.6666191  -0.56395524
 -0.46129137 -0.3638477  -0.28380469 -0.22638253 -0.20202161 -0.212462
 -0.26118384 -0.34992718 -0.47173177 -0.62485753 -0.80060415 -0.98853123
 -1.18341857 -1.37482578 -1.55405253 -1.71761869 -1.85856399 -1.97688845
 -2.07085199 -2.14219468 -2.19613671 -2.23615821 -2.26747939 -2.29706051
 -2.33012175 -2.37362339]",2.6678018081558292,5.061676622741618,5.69973,-0.10329000000000033
001,2,1,csm,51b.png,1,1,228,37,239,1,1,310,neu_feedback_onset,2,"[ 1.00781916e+00  8.25639269e-01  6.45281176e-01  4.68566681e-01
  2.95495784e-01  1.33355681e-01 -1.23882326e-02 -1.39914157e-01
 -2.40113097e-01 -3.12985054e-01 -3.54886429e-01 -3.69460820e-01
 -3.58530027e-01 -3.29381244e-01 -2.89301668e-01 -2.45578494e-01
 -2.07320717e-01 -1.78171934e-01 -1.67241141e-01 -1.70884738e-01
 -1.90924527e-01 -2.23716907e-01 -2.63796483e-01 -3.05697858e-01
 -3.42133837e-01 -3.69460820e-01 -3.84035212e-01 -3.82213413e-01
 -3.65817223e-01 -3.34846641e-01 -2.92945266e-01 -2.40113097e-01
 -1.81815532e-01 -1.18052570e-01 -5.24678088e-02  1.49387511e-02
  8.23453111e-02  1.49751871e-01  2.17158431e-01  2.84564991e-01
  3.51971551e-01  4.19378111e-01  4.84962872e-01  5.52369432e-01
  6.17954193e-01  6.85360753e-01  7.52767313e-01  8.18352074e-01
  8.85758634e-01  9.51343395e-01  1.01874995e+00  1.08797831e+00
  1.15720667e+00  1.23007863e+00  1.30477238e+00  1.38675334e+00
  1.47784328e+00  1.57986402e+00  1.69828095e+00  1.83491587e+00
  1.99523417e+00  2.17741407e+00  2.38145554e+00  2.60371501e+00
  2.83872707e+00  3.07556093e+00  3.30146400e+00  3.50368368e+00
  3.66946738e+00  3.78970611e+00  3.85893447e+00  3.87533066e+00
  3.84618187e+00  3.77513172e+00  3.68039817e+00  3.57109024e+00
  3.46360410e+00  3.37069236e+00  3.30146400e+00  3.25774082e+00
  3.24316643e+00  3.25227543e+00  3.27778061e+00  3.30875119e+00
  3.33789998e+00  3.35429617e+00  3.35065257e+00  3.32696918e+00
  3.27960241e+00  3.21219585e+00  3.13021490e+00  3.03548136e+00
  2.93710421e+00  2.83326168e+00  2.72941914e+00  2.62375480e+00
  2.51444687e+00  2.39785173e+00  2.27032581e+00  2.13004729e+00
  1.97701618e+00  1.80941068e+00  1.63269619e+00  1.45415990e+00
  1.28291080e+00  1.12623609e+00  9.95066569e-01  9.00333025e-01
  8.49322655e-01  8.47500856e-01  8.96689427e-01  9.98710166e-01
  1.14445408e+00  1.32845577e+00  1.53796265e+00  1.75840031e+00
  1.98065978e+00  2.18834486e+00  2.37416835e+00  2.53084306e+00
  2.65472538e+00  2.75128072e+00  2.82233088e+00  2.88062845e+00
  2.93163882e+00  2.98811458e+00  3.05916474e+00  3.14661109e+00
  3.25409723e+00  3.38162315e+00  3.52007987e+00  3.66582378e+00
  3.80610230e+00  3.93180642e+00  4.03747076e+00  4.11762991e+00
  4.16864028e+00  4.18868007e+00  4.18321467e+00  4.15588769e+00
  4.11398631e+00  4.06297594e+00  4.01196558e+00  3.96824240e+00
  3.93545002e+00  3.91541023e+00  3.91176663e+00  3.92087563e+00
  3.93909362e+00  3.95731161e+00  3.97188600e+00  3.97370780e+00
  3.95366801e+00  3.91176663e+00  3.83889468e+00  3.73687394e+00
  3.60570442e+00  3.44902971e+00  3.26684982e+00  3.06645194e+00
  2.85147967e+00  2.62375480e+00  2.38692094e+00  2.14644348e+00
  1.90050063e+00  1.65091418e+00  1.40132773e+00  1.15174128e+00
  9.00333025e-01  6.48924774e-01  3.97516524e-01  1.46108273e-01
 -1.05299977e-01 -3.54886429e-01 -6.04472881e-01 -8.54059332e-01
 -1.09818039e+00 -1.34047964e+00 -1.57731350e+00 -1.80321657e+00
 -2.01818884e+00 -2.21676492e+00 -2.39530122e+00 -2.54833233e+00
 -2.67221465e+00 -2.76694820e+00 -2.82888936e+00 -2.85985994e+00
 -2.86350354e+00 -2.84346375e+00 -2.80702777e+00 -2.76148280e+00
 -2.71047243e+00 -2.65946206e+00 -2.61391709e+00 -2.57383751e+00
 -2.54286693e+00 -2.51736174e+00 -2.49914375e+00 -2.48456936e+00
 -2.47363857e+00 -2.46635137e+00 -2.45906418e+00 -2.45177698e+00
 -2.44631159e+00 -2.43902439e+00 -2.43355899e+00 -2.42809360e+00
 -2.42262820e+00 -2.41534100e+00 -2.40987561e+00 -2.40441021e+00
 -2.39712302e+00 -2.39165762e+00 -2.38619222e+00 -2.37890503e+00
 -2.37343963e+00 -2.36615243e+00 -2.35886524e+00 -2.34975624e+00
 -2.34064725e+00 -2.32789466e+00 -2.31149847e+00 -2.28963688e+00
 -2.26048810e+00 -2.22405212e+00 -2.17668535e+00 -2.11838778e+00
 -2.04915942e+00 -1.97082207e+00 -1.88337572e+00 -1.78864218e+00
 -1.69390863e+00 -1.60099689e+00 -1.51172874e+00 -1.43156959e+00
 -1.36051943e+00 -1.29857827e+00 -1.24028070e+00 -1.18744853e+00
 -1.13279457e+00 -1.07449700e+00 -1.00891224e+00 -9.32396686e-01
 -8.43128539e-01 -7.42929598e-01 -6.31799864e-01 -5.15204734e-01
 -3.94966005e-01 -2.76549076e-01 -1.63597543e-01 -6.33986023e-02
  1.85823490e-02  8.05235121e-02  1.18781289e-01  1.29712083e-01
  1.15137692e-01  7.14145176e-02  4.00795762e-03 -9.07255861e-02]","[-8.83174726e-01 -8.77987717e-01 -8.67613699e-01 -8.46865663e-01
 -8.12285604e-01 -7.62144517e-01 -6.92984397e-01 -5.99618236e-01
 -4.80317030e-01 -3.33351776e-01 -1.62180480e-01  3.31968574e-02
  2.42406219e-01  4.61989598e-01  6.79843975e-01  8.85595330e-01
  1.06714064e+00  1.21929291e+00  1.32994910e+00  1.39910922e+00
  1.41985725e+00  1.39738021e+00  1.33340710e+00  1.23312493e+00
  1.10690771e+00  9.61671462e-01  8.06061193e-01  6.48721921e-01
  4.94840655e-01  3.51333407e-01  2.21658183e-01  1.02356977e-01
 -3.11220538e-03 -9.99363727e-02 -1.88115525e-01 -2.72836671e-01
 -3.52370809e-01 -4.26717937e-01 -4.90691048e-01 -5.37374129e-01
 -5.61580170e-01 -5.51206152e-01 -4.97607060e-01 -3.95595884e-01
 -2.38256612e-01 -2.90472502e-02  2.30303198e-01  5.31149718e-01
  8.63118291e-01  1.20891889e+00  1.55471949e+00  1.88841706e+00
  2.19445059e+00  2.46763306e+00  2.70277747e+00  2.89815481e+00
  3.05722308e+00  3.18689831e+00  3.29755450e+00  3.39437867e+00
  3.48774483e+00  3.58456899e+00  3.69176718e+00  3.81106839e+00
  3.94420162e+00  4.09116687e+00  4.24677714e+00  4.40584541e+00
  4.55972668e+00  4.70150492e+00  4.81734812e+00  4.90034027e+00
  4.94010734e+00  4.92800432e+00  4.85884420e+00  4.73262698e+00
  4.54935266e+00  4.31593726e+00  4.04102578e+00  3.73845026e+00
  3.42204271e+00  3.10217716e+00  2.79441463e+00  2.50740013e+00
  2.24804968e+00  2.01982129e+00  1.82271495e+00  1.65154365e+00
  1.49939139e+00  1.35761315e+00  1.21583490e+00  1.06195364e+00
  8.90782339e-01  6.93675999e-01  4.63718601e-01  2.04368153e-01
 -8.43753458e-02 -3.97324887e-01 -7.25835454e-01 -1.05607502e+00
 -1.37939858e+00 -1.68197411e+00 -1.95169857e+00 -2.17646896e+00
 -2.34764026e+00 -2.46348346e+00 -2.52226956e+00 -2.52572756e+00
 -2.48077349e+00 -2.39605234e+00 -2.28193814e+00 -2.15226292e+00
 -2.01740069e+00 -1.88945446e+00 -1.77706927e+00 -1.68716112e+00
 -1.62318800e+00 -1.58514994e+00 -1.57304692e+00 -1.58169193e+00
 -1.60762698e+00 -1.64393604e+00 -1.68543211e+00 -1.72865719e+00
 -1.76669525e+00 -1.79781731e+00 -1.82375235e+00 -1.84104238e+00
 -1.85141640e+00 -1.85660341e+00 -1.85833241e+00 -1.85660341e+00
 -1.85141640e+00 -1.84450039e+00 -1.83758438e+00 -1.83066836e+00
 -1.82202335e+00 -1.81337833e+00 -1.80473332e+00 -1.79608830e+00]",3.5867121630583005,3.356210924532455,5.4890799999999995,0.3729949999999995
001,2,1,csp,26a.png,1,1,176,232,174,1,1,588,neg_feedback_onset,3,"[-1.56010663e+00 -1.54380174e+00 -1.48945209e+00 -1.39343438e+00
 -1.25031364e+00 -1.06190153e+00 -8.33633011e-01 -5.72754703e-01
 -2.88324880e-01  8.78652636e-03  3.00462968e-01  5.74022861e-01
  8.18596275e-01  1.01787832e+00  1.16824567e+00  1.25882842e+00
  1.29324986e+00  1.27151001e+00  1.19904381e+00  1.08309789e+00
  9.38165500e-01  7.75116557e-01  6.04820995e-01  4.41772052e-01
  2.93216349e-01  1.66400504e-01  7.03827936e-02  3.35156160e-03
 -3.10698819e-02 -3.83165015e-02 -2.20116073e-02  1.42214911e-02
  6.13245190e-02  1.15674167e-01  1.68212159e-01  2.15315187e-01
  2.55171595e-01  2.84158074e-01  3.04086278e-01  3.14956208e-01
  3.18579518e-01  3.24014482e-01  3.29449447e-01  3.43942686e-01
  3.69305855e-01  4.07350609e-01  4.58076946e-01  5.19673214e-01
  5.93951065e-01  6.77287192e-01  7.67869938e-01  8.62075993e-01
  9.56282049e-01  1.05229976e+00  1.14650582e+00  1.24071187e+00
  1.33129462e+00  1.42187736e+00  1.51064845e+00  1.59760789e+00
  1.68456733e+00  1.77152676e+00  1.85667454e+00  1.94363398e+00
  2.02878176e+00  2.11392954e+00  2.19907732e+00  2.28422511e+00
  2.37118454e+00  2.45633232e+00  2.54148010e+00  2.62662789e+00
  2.71177567e+00  2.79511179e+00  2.88025957e+00  2.96178405e+00
  3.04330852e+00  3.12302133e+00  3.19729918e+00  3.26976538e+00
  3.33498496e+00  3.39295792e+00  3.44368425e+00  3.48535232e+00
  3.51433880e+00  3.53245534e+00  3.53789031e+00  3.52883204e+00
  3.50346887e+00  3.46361246e+00  3.40563950e+00  3.33136165e+00
  3.23896725e+00  3.13026795e+00  3.00707542e+00  2.87301295e+00
  2.72808056e+00  2.57771320e+00  2.42734584e+00  2.27879014e+00
  2.13929271e+00  2.00885356e+00  1.89290764e+00  1.79326662e+00
  1.70993050e+00  1.64833423e+00  1.60485451e+00  1.57949134e+00
  1.57405638e+00  1.58311465e+00  1.60304286e+00  1.62840602e+00
  1.65739250e+00  1.68275567e+00  1.69906057e+00  1.70449553e+00
  1.69906057e+00  1.68275567e+00  1.66101581e+00  1.64108761e+00
  1.63021768e+00  1.63927595e+00  1.67369740e+00  1.74616359e+00
  1.85667454e+00  2.00885356e+00  2.20088898e+00  2.42915750e+00
  2.68460084e+00  2.95634908e+00  3.23353228e+00  3.50528052e+00
  3.75710056e+00  3.98174577e+00  4.17196953e+00  4.32052523e+00
  4.42741288e+00  4.49082080e+00  4.51437231e+00  4.50350238e+00
  4.46364597e+00  4.39842640e+00  4.31690193e+00  4.22450752e+00
  4.12486650e+00  4.02341383e+00  3.92014950e+00  3.82050848e+00
  3.72086746e+00  3.62666140e+00  3.53245534e+00  3.44187260e+00
  3.35128985e+00  3.26251876e+00  3.17374767e+00  3.08678823e+00
  2.99801714e+00  2.91105771e+00  2.82409827e+00  2.73713884e+00
  2.65017940e+00  2.56140831e+00  2.47444887e+00  2.38748944e+00
  2.30053000e+00  2.21357056e+00  2.12479947e+00  2.03784004e+00
  1.95088060e+00  1.86392116e+00  1.77696173e+00  1.68819064e+00
  1.60123120e+00  1.51427176e+00  1.42731233e+00  1.34035289e+00
  1.25339346e+00  1.16462237e+00  1.07766293e+00  9.90703493e-01
  9.03744057e-01  8.16784620e-01  7.28013529e-01  6.41054093e-01
  5.54094657e-01  4.67135221e-01  3.80175785e-01  2.91404694e-01
  2.04445258e-01  1.17485822e-01  3.05263854e-02 -5.64330507e-02
 -1.45204142e-01 -2.32163578e-01 -3.19123014e-01 -4.06082450e-01
 -4.93041886e-01 -5.81812977e-01 -6.68772414e-01 -7.55731850e-01
 -8.42691286e-01 -9.29650722e-01 -1.01842181e+00 -1.10538125e+00
 -1.19234069e+00 -1.27930012e+00 -1.36807121e+00 -1.45503065e+00
 -1.54380174e+00 -1.63257283e+00 -1.72134392e+00 -1.81373832e+00
 -1.90613272e+00 -2.00215043e+00 -2.09997980e+00 -2.20324413e+00
 -2.30650846e+00 -2.41339610e+00 -2.52028374e+00 -2.62717138e+00
 -2.72681240e+00 -2.81739515e+00 -2.89710796e+00 -2.96051589e+00
 -3.00399560e+00 -3.02935877e+00 -3.03660539e+00 -3.02754712e+00
 -3.00761891e+00 -2.98225575e+00 -2.95689258e+00 -2.93515272e+00
 -2.92609444e+00 -2.92971775e+00 -2.95145761e+00 -2.99131402e+00
 -3.05291029e+00 -3.13624641e+00 -3.24132240e+00 -3.36994990e+00
 -3.51850560e+00 -3.68698951e+00 -3.86996666e+00 -4.06200208e+00
 -4.25584915e+00 -4.44244961e+00 -4.61455683e+00 -4.76311253e+00
 -4.87905845e+00 -4.95514795e+00 -4.99138105e+00 -4.98594609e+00
 -4.94065471e+00 -4.86094190e+00 -4.75224260e+00 -4.62542676e+00
 -4.48955264e+00 -4.34824356e+00 -4.21236944e+00 -4.08736525e+00]","[-0.65242305 -0.61254601 -0.57266897 -0.53279193 -0.49291489 -0.45130407
 -0.40795946 -0.36288106 -0.3143351  -0.258854   -0.1929702  -0.1149499
 -0.01959176  0.10003936  0.24741103  0.42599081  0.64098007  0.89411259
  1.18018701  1.49746954  1.83555749  2.18404814  2.52907123  2.86022404
  3.1636363   3.42543774  3.63869321  3.7947338   3.89009194  3.92476763
  3.90222843  3.82420814  3.69764188  3.53293237  3.33874852  3.12202548
  2.89316594  2.65910506  2.42504417  2.19791842  1.97772781  1.76620612
  1.56508713  1.37263707  1.18712214  1.01200992  0.8490342   0.69992874
  0.57336248  0.47453678  0.41212054  0.39304891  0.42599081  0.51268003
  0.65658413  0.85423555  1.09696536  1.37783842  1.68125068  1.99506565
  2.30367926  2.59148747  2.84635376  3.05960924  3.22258497  3.33528095
  3.3959634   3.40636611  3.36995664  3.2971377   3.18964307  3.05960924
  2.91050379  2.75446319  2.59668882  2.44584958  2.30888062  2.1892495
  2.09215757  2.01933863  1.97079267  1.94825347  1.94651969  1.96559132
  1.99853322  2.04707918  2.10429406  2.16844408  2.23779546  2.31234819
  2.38690091  2.46492121  2.5429415   2.6209618   2.70071588  2.77873618
  2.85849026  2.93824434  3.01626463  3.09601871  3.17403901  3.25379309
  3.33354717  3.41156746  3.49132154  3.57107562  3.6508297   3.73058378
  3.80860408  3.88835816  3.96811224  4.04439875  4.12068526  4.19177042
  4.25592044  4.30966775  4.34954479  4.37035021  4.36861642  4.33914209
  4.27845964  4.18483528  4.06000281  3.90396222  3.72364865  3.52252966
  3.31100797  3.09601871  2.88796459  2.69204696  2.51693474  2.36782928
  2.24646438  2.15284003  2.08348865  2.03667647  2.00200079  1.97772781
  1.95518861  1.92918184]",3.2857985276680566,3.4437291620793586,5.5198149999999995,0.3292700000000002
001,2,1,csm,34b.png,1,0,148,NaN,147,1,1,347,neu_feedback_onset,4,"[-0.60928306 -0.48588396 -0.34978201 -0.20642129 -0.06487526  0.0675973
  0.18555232  0.28173104  0.35431874  0.39787137  0.41238891  0.39968606
  0.35613343  0.28536042  0.18918171  0.0675973  -0.07394873 -0.23182699
 -0.4005934  -0.5748039  -0.74175562 -0.89781919 -1.03029176 -1.13009985
 -1.1917994  -1.20994633 -1.17909656 -1.10287946 -0.98310975 -0.82704618
 -0.64013284 -0.43144318 -0.20823598  0.02404468  0.25814003  0.49405008
  0.72814543  0.96042609  1.19089206  1.41772864  1.64093584  1.85506957
  2.05831515  2.24159911  2.40129206  2.53013524  2.62268457  2.67894004
  2.69708696  2.68075473  2.63538741  2.56824379  2.48476792  2.39584798
  2.30511335  2.22163749  2.1454204   2.08009146  2.02928007  1.98935683
  1.96032175  1.94217482  1.93128666  1.92584258  1.92402789  1.92584258
  1.92947197  1.93491605  1.94217482  1.9476189   1.95487767  1.96213644
  1.96939521  1.97665398  1.98391275  1.98935683  1.9966156   2.00387437
  2.01113314  2.01839191  2.02565068  2.03290945  2.04016822  2.04742699
  2.05468576  2.06194453  2.0692033   2.07646208  2.08190615  2.08916492
  2.09642369  2.10368247  2.11094124  2.11820001  2.12545878  2.13271755
  2.13997632  2.14723509  2.15449386  2.16175263  2.1690114   2.17445548
  2.18171425  2.18897302  2.19623179  2.20349056  2.21074933  2.2180081
  2.22526687  2.23252564  2.23796972  2.24522849  2.25067257  2.25611665
  2.25974603  2.26156073  2.26156073  2.25793134  2.25067257  2.23978441
  2.22345218  2.20167587  2.17627017  2.14904978  2.1200147   2.09097962
  2.06738861  2.05287107  2.04924169  2.06194453  2.09279431  2.14179101
  2.20893464  2.2924105   2.38858921  2.49384139  2.59909356  2.69890166
  2.79145098  2.86948277  2.93118232  2.97654963  3.00195533  3.01102879
  3.00558472  2.9838084   2.95114394  2.90940601  2.85859461  2.80233914
  2.74245428  2.67894004  2.61542579  2.54828217  2.48113854  2.41218022
  2.34503659  2.27607827  2.20893464  2.13997632  2.071018    2.00387437
  1.93491605  1.86595773  1.7988141   1.72985578  1.66089746  1.59375383
  1.52479551  1.45583719  1.38869356  1.31973524  1.25077692  1.18363329
  1.11467497  1.04571664  0.97857302  0.9096147   0.84065637  0.77351275
  0.70455442  0.6355961   0.56845248  0.49949415  0.43053583  0.3633922
  0.29443388  0.22547556  0.15833193  0.08937361  0.02041529 -0.04672834
 -0.11568666 -0.18464498 -0.25178861 -0.32074693 -0.38970525 -0.45866357
