sub,run,cat_cond,trial_type,picture,old,response_old,target_pos,response_pos,dot_resp_loc,cat_corr,TN_corr,TN_rt,feedback_type,trial,SP_timeseries,FB_timeseries,SP_peak_response,FB_peak_response,preStim_bl,anticipation
011,1,1,csm,32b.png,1,0,176,215,175,1,1,629,neu_feedback_onset,1,"[-1.97472999 -1.77729585 -1.56742492 -1.349781   -1.12902787 -0.90672014
 -0.68285782 -0.4605501  -0.23979697 -0.02059844  0.19549088  0.40691641
  0.61212354  0.80644848  0.98678202  1.15312416  1.30392031  1.43761587
  1.55265623  1.65370519  1.73765357  1.80916514  1.86979452  1.9179871
  1.95529749  1.98017108  1.99416248  1.99571708  1.98172568  1.95218829
  1.90710491  1.84958473  1.77807315  1.69567938  1.60706721  1.51379124
  1.42051527  1.3319031   1.24795473  1.17488855  1.10959538  1.05518439
  1.01165561  0.97900902  0.95413543  0.93703483  0.92615264  0.91993424
  0.91993424  0.92304344  0.92926184  0.93858943  0.94947163  0.96190843
  0.97745442  0.99144582  1.00699181  1.02253781  1.0396384   1.05673899
  1.07383959  1.09404938  1.11736837  1.14379657  1.17488855  1.21064434
  1.24950933  1.29148352  1.3334577   1.37543189  1.41429687  1.44694346
  1.47492625  1.49513605  1.50912744  1.51690044  1.52000964  1.52156424
  1.52467344  1.52933724  1.53711023  1.55265623  1.57442062  1.60240341
  1.6366046   1.67546959  1.71899837  1.76252716  1.80605594  1.84492093
  1.87601292  1.90088651  1.91332331  1.91332331  1.89933191  1.87290372
  1.83092953  1.77807315  1.71433457  1.6459322   1.57442062  1.50446364
  1.44383426  1.39564168  1.36454969  1.35366749  1.36454969  1.39719628
  1.45160726  1.52467344  1.61328561  1.71122537  1.81538354  1.9210963
  2.02369987  2.12163964  2.21180641  2.29575478  2.37037555  2.43877793
  2.50251651  2.56314589  2.62066607  2.67663165  2.73259723  2.78700821
  2.83986459  2.89272098  2.94402276  2.99221534  3.03729873  3.07927291
  3.1150287   3.14456609  3.16322129  3.17099428  3.16322129  3.13990229
  3.09948271  3.04196253  2.96423255  2.87251118  2.76679842  2.65020346
  2.5258355   2.39680374  2.26466279  2.13096723  1.99260788  1.84958473
  1.69878858  1.53555563  1.35522209  1.15778796  0.93858943  0.70073571
  0.4426722   0.17217189 -0.10765601 -0.38903852 -0.66420263 -0.92382074
 -1.16011986 -1.36843619 -1.53944213 -1.67158309 -1.76174986 -1.81149704
 -1.82237924 -1.80216944 -1.75397686 -1.68868368 -1.61561751 -1.54255133
 -1.48036735 -1.43683857 -1.41818337 -1.42906557 -1.47259435 -1.55187893
 -1.66381009 -1.81149704 -1.99183058 -2.20170151 -2.43800063 -2.69450954
 -2.96656445 -3.24483776 -3.52000187 -3.77961998 -4.0174737  -4.22423543
 -4.39213217 -4.51805473 -4.6004485  -4.64553189 -4.65796868 -4.64397729
 -4.6128853  -4.57246571 -4.52738233 -4.48385354 -4.44343395 -4.40456897
 -4.36414938 -4.3237298  -4.27553721 -4.21801703 -4.14806005 -4.06255708
 -3.95995352 -3.83869476 -3.69878081 -3.53710246 -3.35676892 -3.15933479
 -2.94635466 -2.72249233 -2.49552081 -2.27010389 -2.05245996 -1.85347123
 -1.67469229 -1.52078694 -1.39175518 -1.28604242 -1.20053945 -1.12902787
 -1.06528929 -1.00465991 -0.94092133 -0.87407356 -0.80256198 -0.72794121
 -0.65176583 -0.58025425 -0.51496108 -0.4605501  -0.42013051 -0.39214772
 -0.37660172 -0.37193792 -0.37349252 -0.37660172 -0.37660172 -0.37038333
 -0.35172813 -0.32063614 -0.27399816 -0.21025958 -0.1340842  -0.04391744
  0.05713153  0.1628443   0.27477546  0.38515202  0.49397398  0.59657755
  0.69296272  0.77846569]","[ 0.42583042  0.48656573  0.55185618  0.61107311  0.65814297  0.6824371
  0.67484518  0.63081208  0.54426427  0.41823851  0.25728995  0.06749211
 -0.13900793 -0.35006313 -0.55352641 -0.73725071 -0.89516251 -1.02270665
 -1.11988315 -1.19124713 -1.24135376 -1.28235009 -1.31879128 -1.36130599
 -1.41444939 -1.47822146 -1.55262221 -1.63309649 -1.71660754 -1.79404505
 -1.86237228 -1.91855243 -1.96106715 -1.98839804 -2.00813701 -2.02483922
 -2.04305981 -2.0703907  -2.10986865 -2.16453043 -2.23437603 -2.31788708
 -2.40595327 -2.49553785 -2.5790489  -2.65041289 -2.70355628 -2.73999746
 -2.75366291 -2.74758938 -2.72177687 -2.67774377 -2.61700847 -2.53957095
 -2.44694961 -2.33914444 -2.21767382 -2.08405615 -1.94284656 -1.79556344
 -1.6497987  -1.51162588 -1.38863688 -1.28842362 -1.21402287 -1.17302654
 -1.16695301 -1.19732066 -1.2641295  -1.36434276 -1.49947882 -1.66346414
 -1.85629874 -2.07494585 -2.3163687  -2.57753052 -2.85539455 -3.14692402
 -3.44756379 -3.75275871 -4.05795363 -4.35707502 -4.64404934 -4.91432146
 -5.16333622 -5.38653847 -5.58392822 -5.74943194 -5.88608638 -5.99085478
 -6.06677392 -6.1123254  -6.1290276  -6.11991731 -6.08347612 -6.02274082
 -5.93771139 -5.8314246  -5.70539884 -5.5596341  -5.40020392 -5.22558991
 -5.04186561 -4.85054939 -4.65771479 -4.46184342 -4.26900882 -4.08072937
 -3.89548668 -3.71783591 -3.54474028 -3.37619981 -3.21221448 -3.05126591
 -2.8948725  -2.73999746 -2.5881592  -2.44239446 -2.30118487 -2.16756719
 -2.0445782  -1.93221788 -1.833523   -1.75001196 -1.68168474 -1.62854134
 -1.59058178 -1.56628765 -1.55262221 -1.54958544 -1.55414059 -1.56476927
 -1.57843471 -1.59665531 -1.61639428 -1.63917002 -1.66346414 -1.69079503
 -1.72116269 -1.75760387]",2.5311211382777357,-0.2647300201717167,6.432525,-0.0414450000000004
011,1,1,csp,62a.png,1,0,312,312,311,1,1,400,pos_feedback_onset,2,"[-2.61749024e-01 -2.46023640e-01 -2.28725717e-01 -2.06710179e-01
 -1.83122102e-01 -1.56388949e-01 -1.28083256e-01 -9.82050260e-02
 -6.51817186e-02 -3.37309497e-02  8.64896146e-04  3.38882035e-02
  6.84840493e-02  1.03079895e-01  1.37675741e-01  1.73844125e-01
  2.11585048e-01  2.50898509e-01  2.91784509e-01  3.35815585e-01
  3.84564277e-01  4.39603123e-01  4.99359584e-01  5.65406198e-01
  6.40888044e-01  7.24232582e-01  8.18584888e-01  9.20799887e-01
  1.03245012e+00  1.15353558e+00  1.28248373e+00  1.41772204e+00
  1.55925050e+00  1.70549657e+00  1.85488772e+00  2.00427888e+00
  2.15524257e+00  2.30306118e+00  2.44930726e+00  2.59083572e+00
  2.72921910e+00  2.85973979e+00  2.98397033e+00  3.10033817e+00
  3.20884333e+00  3.30948579e+00  3.40069302e+00  3.48403756e+00
  3.55794686e+00  3.62399348e+00  3.68060486e+00  3.72778101e+00
  3.76552194e+00  3.78911001e+00  3.80011778e+00  3.79540017e+00
  3.77181209e+00  3.72935355e+00  3.66802455e+00  3.58625255e+00
  3.48561009e+00  3.36924225e+00  3.24186663e+00  3.10662833e+00
  2.96824494e+00  2.83300664e+00  2.70405849e+00  2.58611810e+00
  2.48233056e+00  2.39112333e+00  2.31721403e+00  2.25588503e+00
  2.21185395e+00  2.18040318e+00  2.16310526e+00  2.15996018e+00
  2.16939541e+00  2.19141095e+00  2.22286172e+00  2.26060264e+00
  2.30148864e+00  2.33765703e+00  2.36439018e+00  2.37697049e+00
  2.37225287e+00  2.34866480e+00  2.30777880e+00  2.25273995e+00
  2.19298349e+00  2.13637211e+00  2.09076849e+00  2.06403534e+00
  2.06089026e+00  2.08290580e+00  2.13165449e+00  2.20084618e+00
  2.28576326e+00  2.38011557e+00  2.47761295e+00  2.57196526e+00
  2.65688233e+00  2.73079164e+00  2.79054810e+00  2.83615172e+00
  2.86917502e+00  2.88961802e+00  2.90062579e+00  2.90377087e+00
  2.90219833e+00  2.89590818e+00  2.88647295e+00  2.87389264e+00
  2.86131233e+00  2.84873202e+00  2.83457918e+00  2.82042633e+00
  2.80627348e+00  2.79212064e+00  2.77796779e+00  2.76381495e+00
  2.74966210e+00  2.73550925e+00  2.71978387e+00  2.70563102e+00
  2.69147818e+00  2.67732533e+00  2.66317249e+00  2.64901964e+00
  2.63486679e+00  2.62071395e+00  2.60656110e+00  2.59083572e+00
  2.57668287e+00  2.56253003e+00  2.54837718e+00  2.53422433e+00
  2.52007149e+00  2.50591864e+00  2.49176580e+00  2.47761295e+00
  2.46346010e+00  2.44773472e+00  2.43358187e+00  2.41942903e+00
  2.40527618e+00  2.39112333e+00  2.37697049e+00  2.36281764e+00
  2.34866480e+00  2.33451195e+00  2.32035910e+00  2.30463372e+00
  2.29048087e+00  2.27632803e+00  2.26217518e+00  2.24802234e+00
  2.23386949e+00  2.21971664e+00  2.20556380e+00  2.19141095e+00
  2.17568557e+00  2.16153272e+00  2.14737988e+00  2.13322703e+00
  2.11907418e+00  2.10492134e+00  2.09076849e+00  2.07661565e+00
  2.06246280e+00  2.04830995e+00  2.03258457e+00  2.01843172e+00
  2.00427888e+00  1.99012603e+00  1.97597319e+00  1.96182034e+00
  1.94766749e+00  1.93351465e+00  1.91936180e+00  1.90363642e+00
  1.88948357e+00  1.87533072e+00  1.86117788e+00  1.84702503e+00
  1.83287219e+00  1.81871934e+00  1.80456649e+00  1.79041365e+00
  1.77626080e+00  1.76053542e+00  1.74638257e+00  1.73222973e+00
  1.71807688e+00  1.70392403e+00  1.68977119e+00  1.67561834e+00
  1.66146550e+00  1.64731265e+00  1.63315980e+00  1.61743442e+00
  1.60328157e+00  1.58912873e+00  1.57497588e+00  1.56082304e+00
  1.54667019e+00  1.53251734e+00  1.51836450e+00  1.50421165e+00
  1.48848627e+00  1.47433342e+00  1.46018057e+00  1.44602773e+00
  1.43187488e+00  1.41772204e+00  1.40356919e+00  1.38941634e+00
  1.37526350e+00  1.36111065e+00  1.34538527e+00  1.33123242e+00
  1.31707958e+00  1.30292673e+00  1.28877388e+00  1.27462104e+00
  1.25889565e+00  1.24474281e+00  1.23058996e+00  1.21643712e+00
  1.20385681e+00  1.19284904e+00  1.18655888e+00  1.18341381e+00
  1.18813142e+00  1.20228427e+00  1.22587235e+00  1.26204073e+00
  1.30921688e+00  1.36740081e+00  1.43344742e+00  1.50106657e+00
  1.57025827e+00  1.63473234e+00  1.69134373e+00  1.73694734e+00
  1.76997065e+00  1.79355873e+00  1.80613903e+00  1.81085665e+00
  1.80928411e+00  1.80456649e+00  1.79670380e+00  1.78569603e+00
  1.77154319e+00  1.75424526e+00  1.73222973e+00  1.70235150e+00
  1.66303803e+00  1.61271680e+00  1.54824273e+00  1.46804327e+00]","[-0.35395278 -0.34785934 -0.33871917 -0.32653229 -0.30825197 -0.2838782
 -0.25188763 -0.2107569  -0.16048601 -0.10259832 -0.03861718  0.03145739
  0.10457869  0.17922335  0.25234464  0.32089586  0.38487699  0.44124133
  0.48694214  0.52197942  0.54330647  0.54939991  0.53873639  0.51283926
  0.47170853  0.41839092  0.35440979  0.28890529  0.22644752  0.17617662
  0.14570942  0.14418606  0.17617662  0.2462512   0.35440979  0.50065238
  0.67736218  0.87844575  1.09323956  1.31108009  1.52282717  1.71629394
  1.88386358  2.01944265  2.12150779  2.18853565  2.22204957  2.2250963
  2.20224589  2.1595918   2.10322747  2.03467625  1.96155495  1.88234022
  1.80160212  1.71934066  1.63403248  1.54720094  1.45579932  1.35982762
  1.25623911  1.14351045  1.02164162  0.88758591  0.74134331  0.58139048
  0.4077274   0.22035407  0.02079387 -0.18942986 -0.40727039 -0.629681
 -0.85056825 -1.06688542 -1.27101571 -1.46143575 -1.62900539 -1.77524798
 -1.89407009 -1.98851843 -2.05706965 -2.10277046 -2.12714422 -2.13780775
 -2.13780775 -2.12866759 -2.11800406 -2.10581718 -2.0936303  -2.08449014
 -2.07839669 -2.07534997 -2.07534997 -2.07687333 -2.08296677 -2.09515366
 -2.11343398 -2.13933111 -2.1743684  -2.22159257 -2.28100362 -2.35260156
 -2.43486302 -2.52626464 -2.6237597  -2.72430148 -2.8233199  -2.91929161
 -3.00612315 -3.08381452 -3.15084238 -3.20568335 -3.24833744 -3.28185137
 -3.30470178 -3.32145874 -3.33212226 -3.3382157  -3.34126242 -3.34126242
 -3.33973906 -3.33364562 -3.32602882 -3.31384194 -3.30013169 -3.28185137
 -3.26204769 -3.23767392 -3.21025343 -3.17978623 -3.14779566 -3.11123501
 -3.073151   -3.03202027 -2.98784282 -2.94214201 -2.8964412  -2.85226375
 -2.8080863  -2.77000229]",3.0265861212474214,1.2504884274122794,6.359145000000001,-0.03989999999999938
011,1,1,csm,26b.png,1,1,340,357,NaN,0,1,360,neu_feedback_onset,3,"[ 1.34069338  1.22290719  1.08920394  0.94276705  0.78359652  0.61646746
  0.44297159  0.26947571  0.09916324 -0.06637411 -0.22236123 -0.36561471
 -0.49454284 -0.60596221 -0.70146453 -0.77786638 -0.83835118 -0.88291893
 -0.91475304 -0.93703691 -0.95295397 -0.9640959  -0.97523784 -0.98956319
 -1.00548024 -1.02458071 -1.04845628 -1.07233186 -1.09779915 -1.12008302
 -1.13600008 -1.1439586  -1.13918349 -1.11849132 -1.0818821  -1.02935582
 -0.96091249 -0.87973552 -0.78741661 -0.68873089 -0.58686175 -0.48817602
 -0.39585711 -0.31149673 -0.23986999 -0.18097689 -0.13481744 -0.10139163
 -0.07910775 -0.06478241 -0.05682388 -0.05045706 -0.04727365 -0.04249853
 -0.03454001 -0.02498977 -0.00907272  0.00843604  0.03071991  0.05459549
  0.07847107  0.10075495  0.1182637   0.13099735  0.13418076  0.12622223
  0.10712177  0.07847107  0.03867844 -0.00748101 -0.06000729 -0.11094186
 -0.15869302 -0.19848565 -0.22713635 -0.23986999 -0.23668658 -0.21599441
 -0.17779348 -0.12526721 -0.06000729  0.01321115  0.09120471  0.16760657
  0.23923331  0.30130981  0.35224438  0.38885361  0.41113748  0.4175043
  0.41272919  0.39999554  0.38248678  0.36338632  0.34746927  0.33951074
  0.33791904  0.34746927  0.36497803  0.38885361  0.4159126   0.44297159
  0.46684717  0.48435592  0.49390616  0.49390616  0.48276422  0.46048034
  0.42705453  0.38248678  0.32518539  0.25515036  0.17238168  0.07369596
 -0.03931512 -0.16665155 -0.30672161 -0.4531585  -0.6027788  -0.74603228
 -0.87814382 -0.98956319 -1.07392357 -1.12644984 -1.1423669  -1.12167473
 -1.06596504 -0.98001296 -0.86700188 -0.73648204 -0.59482027 -0.44997509
 -0.30831332 -0.17620178 -0.05523217  0.05141208  0.14213928  0.21854114
  0.28220935  0.33314392  0.37611996  0.41113748  0.43978818  0.46525546
  0.48913104  0.50982321  0.52892367  0.54961584  0.56871631  0.58622506
  0.60532553  0.62442599  0.64193475  0.66103521  0.67854397  0.69764444
  0.7167449   0.73425366  0.75335412  0.77086288  0.78996334  0.8074721
  0.82657257  0.84567303  0.86318179  0.88228225  0.89979101  0.91889147
  0.93799194  0.95550069  0.97460116  0.99210992  1.01121038  1.02871914
  1.0478196   1.06692007  1.08442882  1.10352929  1.12103805  1.14013851
  1.15923897  1.17674773  1.1958482   1.21335695  1.23245742  1.25155788
  1.26906664  1.2881671   1.30567586  1.32477633  1.34228508  1.36138555
  1.38048601  1.39799477  1.41709523  1.43460399  1.45370446  1.47280492
  1.49031368  1.50941414  1.5269229   1.54602336  1.56353212  1.58263259
  1.60173305  1.61924181  1.63834227  1.65585103  1.67495149  1.69405196
  1.71156071  1.73066118  1.74816994  1.7672704   1.78637086  1.80387962
  1.82298009  1.84048884  1.85958931  1.87709807  1.89619853  1.91529899
  1.93280775  1.95190822  1.96941697  1.98851744  2.0076179   2.02512666
  2.04422712  2.06173588  2.08083635  2.0983451   2.11744557  2.13654603
  2.15405479  2.17315525  2.19066401  2.20976448  2.22886494  2.2463737
  2.26547416  2.28298292  2.30208338  2.32118385  2.33869261  2.35779307
  2.37530183  2.39440229  2.41191105  2.43101151  2.45011198  2.46762073
  2.4867212   2.50422996  2.52333042  2.54243088  2.55993964  2.57904011
  2.59654886  2.61564933]","[ 3.18413336e-01  2.18245175e-01  1.22630112e-01  3.30858471e-02
 -4.73522216e-02 -1.17166394e-01 -1.73321273e-01 -2.15816856e-01
 -2.40100047e-01 -2.44653145e-01 -2.27958451e-01 -1.91533666e-01
 -1.35378787e-01 -6.55646145e-02  1.33557548e-02  9.07584247e-02
  1.60572598e-01  2.13692077e-01  2.42528366e-01  2.45563765e-01
  2.19762875e-01  1.69678794e-01  1.04417719e-01  3.15681477e-02
 -3.52106263e-02 -8.22593081e-02 -9.89540016e-02 -7.31531116e-02
  1.21415953e-03  1.25665511e-01  2.97165545e-01  5.12678861e-01
  7.61581564e-01  1.03173206e+00  1.31098875e+00  1.58721004e+00
  1.84673664e+00  2.08198005e+00  2.28686947e+00  2.45533411e+00
  2.58889165e+00  2.69057751e+00  2.76646249e+00  2.81958196e+00
  2.86055985e+00  2.89394924e+00  2.92430322e+00  2.95313951e+00
  2.98045810e+00  3.00625899e+00  3.02447139e+00  3.03054218e+00
  3.01840059e+00  2.98349350e+00  2.92430322e+00  2.83627666e+00
  2.72093150e+00  2.58433856e+00  2.43256862e+00  2.27169248e+00
  2.11081634e+00  1.95904640e+00  1.82397115e+00  1.71166140e+00
  1.62363483e+00  1.55989145e+00  1.51739587e+00  1.48855958e+00
  1.46731179e+00  1.44302860e+00  1.40508611e+00  1.34437814e+00
  1.25635157e+00  1.13341792e+00  9.77094880e-01  7.87382454e-01
  5.67316040e-01  3.24484134e-01  6.34398354e-02 -2.09746059e-01
 -4.92038149e-01 -7.81918736e-01 -1.07635242e+00 -1.37685691e+00
 -1.68494989e+00 -1.99911366e+00 -2.32238364e+00 -2.65020671e+00
 -2.98106518e+00 -3.31192365e+00 -3.63671133e+00 -3.94632201e+00
 -4.23316720e+00 -4.48662300e+00 -4.69454782e+00 -4.84480006e+00
 -4.92675583e+00 -4.93434432e+00 -4.86301245e+00 -4.71579561e+00
 -4.50179999e+00 -4.23316720e+00 -3.93266271e+00 -3.62001663e+00
 -3.32406525e+00 -3.06453865e+00 -2.86572003e+00 -2.74126868e+00
 -2.70484389e+00 -2.75796337e+00 -2.90366251e+00 -3.13587052e+00
 -3.44699890e+00 -3.82794145e+00 -4.26503888e+00 -4.74614960e+00
 -5.25761430e+00 -5.78729139e+00 -6.32000389e+00 -6.84512788e+00
 -7.35203948e+00 -7.82859710e+00 -8.26569453e+00 -8.65877868e+00
 -9.00026104e+00 -9.28862393e+00 -9.52083194e+00 -9.69840277e+00
 -9.82285412e+00 -9.89570370e+00 -9.92150459e+00 -9.90329219e+00
 -9.84561962e+00 -9.75455765e+00 -9.63162400e+00 -9.48440716e+00
 -9.31594252e+00 -9.13078319e+00 -8.93348227e+00 -8.72707515e+00]",2.431087308295191,2.207417907638887,6.282570000000001,
011,1,1,csm,44b.png,1,0,60,146,62,1,1,589,neu_feedback_onset,4,"[ 3.14763396e-01  2.65497421e-01  2.06994075e-01  1.40792920e-01
  6.99730808e-02  2.23236451e-03 -6.24292283e-02 -1.17853451e-01
 -1.59421617e-01 -1.87133729e-01 -1.96371099e-01 -1.87133729e-01
 -1.64040303e-01 -1.25551259e-01 -7.78248456e-02 -2.70193084e-02
  2.37862288e-02  6.68939573e-02  9.92247537e-02  1.14620371e-01
  1.11541248e-01  8.84478216e-02  4.68796548e-02 -1.47028145e-02
 -9.32204629e-02 -1.85594167e-01 -2.88744803e-01 -4.02672371e-01
 -5.21218625e-01 -6.45923125e-01 -7.73706749e-01 -9.01490373e-01
 -1.03081356e+00 -1.15859718e+00 -1.28484124e+00 -1.40492706e+00
 -1.52039419e+00 -1.62816351e+00 -1.72823502e+00 -1.81752960e+00
 -1.89450769e+00 -1.96070885e+00 -2.01613307e+00 -2.06078036e+00
 -2.09772984e+00 -2.12544195e+00 -2.14853538e+00 -2.17008924e+00
 -2.19010354e+00 -2.21011785e+00 -2.23321127e+00 -2.25938382e+00
 -2.29017506e+00 -2.32250585e+00 -2.35791577e+00 -2.39486525e+00
 -2.43027517e+00 -2.46260597e+00 -2.48723896e+00 -2.50263458e+00
 -2.50417414e+00 -2.48723896e+00 -2.45028948e+00 -2.38716745e+00
 -2.30095199e+00 -2.18856398e+00 -2.05616167e+00 -1.90836375e+00
 -1.75440757e+00 -1.60199096e+00 -1.46343041e+00 -1.34642371e+00
 -1.25866869e+00 -1.20632360e+00 -1.19246754e+00 -1.21710053e+00
 -1.27868300e+00 -1.37413582e+00 -1.49884033e+00 -1.64817781e+00
 -1.81599004e+00 -1.99611876e+00 -2.18240573e+00 -2.36869270e+00
 -2.55190055e+00 -2.72587103e+00 -2.88444588e+00 -3.02454600e+00
 -3.14463182e+00 -3.24008465e+00 -3.31090448e+00 -3.36017046e+00
 -3.38634301e+00 -3.39250126e+00 -3.38326389e+00 -3.36171002e+00
 -3.33091879e+00 -3.29242974e+00 -3.25086158e+00 -3.20467473e+00
 -3.15540875e+00 -3.10152409e+00 -3.04148118e+00 -2.97220090e+00
 -2.89368326e+00 -2.80438867e+00 -2.70123804e+00 -2.58423135e+00
 -2.45490816e+00 -2.31480804e+00 -2.16547056e+00 -2.00843526e+00
 -1.84986040e+00 -1.69128554e+00 -1.53578981e+00 -1.38953144e+00
 -1.25251045e+00 -1.12934551e+00 -1.02003663e+00 -9.27662922e-01
 -8.50684836e-01 -7.90641928e-01 -7.44455076e-01 -7.10584718e-01
 -6.89030854e-01 -6.75174798e-01 -6.70556113e-01 -6.70556113e-01
 -6.75174798e-01 -6.81333045e-01 -6.90570415e-01 -7.01347347e-01
 -7.12124280e-01 -7.22901212e-01 -7.35217706e-01 -7.49073761e-01
 -7.61390255e-01 -7.76785872e-01 -7.92181490e-01 -8.07577107e-01
 -8.24512286e-01 -8.42987027e-01 -8.63001329e-01 -8.81476070e-01
 -9.03029934e-01 -9.23044237e-01 -9.43058540e-01 -9.64612404e-01
 -9.86166268e-01 -1.00772013e+00 -1.02773443e+00 -1.04928830e+00
 -1.07084216e+00 -1.09239603e+00 -1.11394989e+00 -1.13396419e+00
 -1.15551806e+00 -1.17707192e+00 -1.19862579e+00 -1.22017965e+00
 -1.24019395e+00 -1.26174782e+00 -1.28330168e+00 -1.30485555e+00
 -1.32640941e+00 -1.34796328e+00 -1.36797758e+00 -1.38953144e+00
 -1.41108531e+00 -1.43263917e+00 -1.45419303e+00 -1.47420734e+00
 -1.49576120e+00 -1.51731507e+00 -1.53886893e+00 -1.56042279e+00
 -1.58197666e+00 -1.60199096e+00 -1.62354483e+00 -1.64509869e+00
 -1.66665255e+00 -1.68820642e+00 -1.70822072e+00 -1.72977459e+00
 -1.75132845e+00 -1.77288231e+00 -1.79443618e+00 -1.81599004e+00
 -1.83600434e+00 -1.85755821e+00 -1.87911207e+00 -1.90066594e+00
 -1.92221980e+00 -1.94223410e+00 -1.96378797e+00 -1.98534183e+00
 -2.00689570e+00 -2.02844956e+00 -2.05000343e+00 -2.07001773e+00
 -2.09157159e+00 -2.11312546e+00 -2.13467932e+00 -2.15623319e+00
 -2.17624749e+00 -2.19780135e+00 -2.21935522e+00 -2.24090908e+00
 -2.26246294e+00 -2.28401681e+00 -2.30403111e+00 -2.32558498e+00
 -2.34713884e+00 -2.36869270e+00 -2.39024657e+00 -2.41026087e+00
 -2.43181474e+00 -2.45336860e+00 -2.47492246e+00 -2.49647633e+00
 -2.51649063e+00 -2.53804449e+00 -2.55959836e+00 -2.58115222e+00
 -2.60270609e+00 -2.62425995e+00 -2.64427425e+00 -2.66582812e+00
 -2.68738198e+00 -2.70893585e+00 -2.73048971e+00 -2.75050401e+00
 -2.77205788e+00 -2.79361174e+00 -2.81516561e+00 -2.83671947e+00
 -2.85827334e+00 -2.87828764e+00 -2.89984150e+00 -2.92139537e+00
 -2.94294923e+00 -2.96450309e+00 -2.98451740e+00 -3.00607126e+00
 -3.02762513e+00 -3.04917899e+00 -3.07073285e+00 -3.09228672e+00
 -3.11230102e+00 -3.13385489e+00 -3.15540875e+00 -3.17696261e+00
 -3.19851648e+00 -3.21853078e+00 -3.24008465e+00 -3.26163851e+00
 -3.28319237e+00 -3.30474624e+00 -3.32630010e+00 -3.34631440e+00]","[-0.91401265 -0.90621723 -0.87815373 -0.82982215 -0.76122248 -0.67235472
 -0.56789613 -0.44784671 -0.3168837  -0.1765662  -0.03001236  0.12121874
  0.27400891  0.42679908  0.57958926  0.73082035  0.87893328  1.02392803
  1.16580462  1.2998858   1.42928972  1.55089823  1.66471132  1.76916991
  1.86583308  1.95314175  2.02953684  2.09969559  2.15894076  2.20883143
  2.25092668  2.28366743  2.31173093  2.33511718  2.35538527  2.37877152
  2.40527594  2.43645761  2.47543469  2.52064811  2.5689797   2.61887037
  2.66720195  2.70461995  2.73112437  2.73736071  2.72176987  2.6812337
  2.6157522   2.52532536  2.41463044  2.28522652  2.14646809  1.99835517
  1.85024224  1.7036884   1.56025273  1.42461247  1.29209038  1.16424554
  1.0364007   0.90699678  0.7729156   0.6325981   0.48448517  0.33325408
  0.17890482  0.0307919  -0.10640744 -0.22489778 -0.31532462 -0.37456979
 -0.39795604 -0.38236521 -0.33091545 -0.24828403 -0.13914819 -0.01286244
  0.12277782  0.25841808  0.38626292  0.49851692  0.59362101  0.66689793
  0.71834768  0.74797027  0.75732477  0.74797027  0.72458402  0.68716602
  0.64039351  0.58738468  0.52813951  0.46889434  0.40964917  0.35352216
  0.3036315   0.26153624  0.22723641  0.20385016  0.18981841  0.18514116
  0.18825932  0.19917291  0.21476374  0.23191366  0.25374083  0.27400891
  0.29583608  0.31766325  0.3410495   0.36599483  0.39249925  0.42056275
  0.45174442  0.48292609  0.51410776  0.54373034  0.57023476  0.58738468
  0.59673918  0.59518009  0.58270743  0.55620301  0.51878501  0.4720125
  0.4158855   0.35352216  0.28648158  0.21788191  0.14772315  0.0775644
  0.00896473 -0.05963494 -0.12667553 -0.19371611 -0.25919762 -0.32312004
 -0.38548337 -0.44628763]",-1.3673784327039584e-14,2.0612252057015596,6.495355000000001,0.12496500000000044
011,1,1,csm,63b.png,1,1,44,331,44,1,1,316,neu_feedback_onset,5,"[-0.51967213 -0.45260711 -0.3708205  -0.27921949 -0.18271129 -0.08456736
  0.00703365  0.09045599  0.15915675  0.21150018  0.24585056  0.26220788
  0.26057215  0.24094336  0.20659298  0.16079248  0.10681332  0.04465549
 -0.0207738  -0.08620309 -0.14836091 -0.20234008 -0.24323338 -0.26613364
 -0.26613364 -0.23832619 -0.18107556 -0.09111029  0.03320536  0.1869642
  0.37016621  0.57626847  0.80036379  1.0342735   1.27309041  1.51027158
  1.74090983  1.96336941  2.17437887  2.37230247  2.55877595  2.73543503
  2.90555118  3.06912441  3.22779044  3.383185    3.53857956  3.68906693
  3.83791856  3.98022727  4.11435731  4.2403087   4.35153849  4.45131815
  4.5347405   4.60180552  4.65578469  4.69504226  4.72121398  4.73593557
  4.74247849  4.74084276  4.7326641   4.71957824  4.70322092  4.68522787
  4.66396335  4.6410631   4.61979858  4.59689832  4.57399807  4.55273355
  4.53146903  4.51020452  4.48730426  4.46440401  4.43986803  4.41206058
  4.38098167  4.34335983  4.30083079  4.25012309  4.19123673  4.12253597
  4.04238509  3.95078409  3.84773296  3.73486743  3.61382325  3.48623613
  3.35537755  3.2261547   3.10020332  2.9824306   2.87774374  2.78777846
  2.71744198  2.66509854  2.63401963  2.62256951  2.62911244  2.65037695
  2.68636306  2.73052783  2.78287127  2.83848616  2.89737252  2.95462315
  3.01350951  3.07076014  3.12801077  3.18853286  3.24905496  3.31448425
  3.383185    3.45352149  3.52712944  3.60073739  3.67270961  3.73650316
  3.79211806  3.83628283  3.86409028  3.87717614  3.87063321  3.84773296
  3.81011112  3.75940342  3.69724559  3.62854484  3.55657262  3.4846004
  3.41589964  3.35047035  3.29321973  3.24414776  3.20161872  3.16563261
  3.13618943  3.11165345  3.09202466  3.07403161  3.06094575  3.04785989
  3.03640976  3.02495964  3.01350951  3.00369512  2.99388073  2.98406633
  2.97425194  2.96443755  2.95462315  2.94480876  2.93335863  2.92354424
  2.91372985  2.90391545  2.89410106  2.88428667  2.87447227  2.86465788
  2.85484348  2.84502909  2.8352147   2.8254003   2.81558591  2.80577152
  2.79432139  2.784507    2.77469261  2.76487821  2.75506382  2.74524942
  2.73543503  2.72562064  2.71580624  2.70599185  2.69617746  2.68636306
  2.67654867  2.66509854  2.65528415  2.64546976  2.63565536  2.62584097
  2.61602658  2.60621218  2.59639779  2.5865834   2.576769    2.56695461
  2.55714022  2.54732582  2.53751143  2.5260613   2.51624691  2.50643252
  2.49661812  2.48680373  2.47698934  2.46717494  2.45736055  2.44754616
  2.43773176  2.42791737  2.41810298  2.40828858  2.39683846  2.38702406
  2.37720967  2.36739528  2.35758088  2.34776649  2.3379521   2.3281377
  2.31832331  2.30850892  2.29869452  2.28888013  2.27906574  2.26925134
  2.25780122  2.24798682  2.23817243  2.22835804  2.21854364  2.20872925
  2.19891486  2.18910046  2.17928607  2.16947167  2.15965728  2.14984289
  2.14002849  2.12857837  2.11876398  2.10894958  2.09913519  2.08932079
  2.0795064   2.06969201  2.05987761  2.05006322  2.04024883  2.03043443
  2.02062004  2.01080565  2.00099125  1.98954113  1.97972673  1.96991234
  1.96009795  1.95028355  1.94046916  1.93065477  1.92084037  1.91102598
  1.90121159  1.89139719]","[ -0.24083399  -0.23315678  -0.22394413  -0.2116606   -0.19784163
  -0.18248722  -0.16406192  -0.14256574  -0.11799867  -0.08882529
  -0.05504558  -0.01665954   0.02786826   0.07853783   0.13381372
   0.19369594   0.25818448   0.3257439    0.39483877   0.46239819
   0.52688673   0.58830439   0.64204484   0.68657264   0.72035235
   0.74338397   0.75413206   0.75566751   0.74952574   0.73724221
   0.72342324   0.7111397    0.70499794   0.70806882   0.71881691
   0.73724221   0.76027383   0.78177001   0.79558898   0.79098266
   0.76027383   0.69271441   0.58369806   0.42401215   0.21365668
  -0.04890381  -0.36059842  -0.7152854   -1.10528752  -1.5229276
  -1.95592208  -2.39812922  -2.83726547  -3.27025996  -3.69097091
  -4.0978629   -4.48786502  -4.86404818  -5.22487692  -5.57035124
  -5.90047115  -6.2137012   -6.50697052  -6.77720821  -7.01673708
  -7.22248623  -7.38677847  -7.50807834  -7.58177953  -7.61095292
  -7.60020483  -7.55567703  -7.49118849  -7.41595185  -7.34532155
  -7.28851021  -7.25780139  -7.26087227  -7.30232919  -7.38370758
  -7.50807834  -7.67237058  -7.87197796  -8.10536506  -8.36331923
  -8.64276957  -8.93450344  -9.23237908  -9.52871928  -9.81584683
 -10.09069085 -10.34557413 -10.57742579 -10.78624582 -10.9704988
 -11.12864926 -11.26376811 -11.37892622 -11.47258815 -11.54628934
 -11.60002979 -11.63534494 -11.64916391 -11.64148671 -11.61077788
 -11.55703743 -11.4818008  -11.38506799 -11.27144532 -11.14400368
 -11.00581395 -10.86455334 -10.72329272 -10.58663844 -10.45766135
 -10.33943236 -10.2334869  -10.14136042 -10.06151746  -9.99549348
  -9.9371467   -9.88801258  -9.84348478  -9.79895697  -9.74982285
  -9.69301152  -9.62545209  -9.54100281  -9.44273456  -9.32604101
  -9.1924576   -9.04659067  -8.89151108  -8.73028973  -8.56906838
  -8.41091791  -8.26198009  -8.12379036  -7.9994196   -7.88886782]",4.239245469430611,-0.33718294093849077,6.11347,0.05682000000000098
011,1,1,csp,44a.png,1,1,24,38,23,1,1,311,pos_feedback_onset,6,"[-1.88849976 -1.82649932 -1.7360122  -1.61703839 -1.47292927 -1.30368484
 -1.11265647 -0.89984416 -0.66859929 -0.41724618 -0.1474605   0.13908206
  0.44405717  0.76411348  1.09589959  1.43941552  1.78628282  2.13482581
  2.47666605  2.81012785  3.13018416  3.43348359  3.71835045  3.98143338
  4.22273238  4.44392312  4.63997855  4.81592573  4.96841329  5.09911691
  5.2080366   5.29852372  5.37057828  5.42755165  5.4744709   5.51133603
  5.54484977  5.57836352  5.61020159  5.64539102  5.68393183  5.72247264
  5.75933777  5.79285152  5.81966252  5.83809508  5.84647352  5.8481492
  5.84144645  5.83306802  5.82468958  5.81966252  5.8213382   5.8347437
  5.85652764  5.89004139  5.93193358  5.98387989  6.03917757  6.10117801
  6.16820551  6.23858438  6.315666    6.396099    6.48491043  6.57874893
  6.67761449  6.77648005  6.87031855  6.95410292  7.01777904  7.05631986
  7.05967123  7.02280611  6.94237311  6.81837224  6.65080349  6.44469394
  6.20842201  5.94869045  5.6755534   5.39738928  5.11922516  4.8477638
  4.58635655  4.33835481  4.10208288  3.88256782  3.67980964  3.49715971
  3.33629371  3.20391441  3.10169747  3.03802135  3.01288604  3.02796722
  3.08326491  3.17040066  3.28099603  3.40332121  3.52397071  3.62786333
  3.69991789  3.73175595  3.7116477   3.63791746  3.51056521  3.33126665
  3.10672453  2.84196592  2.54872061  2.23201568  1.90525663  1.57347052
  1.24671146  0.9350336   0.64178829  0.37702968  0.14410912 -0.05194631
 -0.20778524 -0.32508337 -0.4004893  -0.43735442 -0.43735442 -0.40216499
 -0.33513749 -0.23962331 -0.11897381  0.026811    0.19270406  0.37702968
  0.5747608   0.78254604  0.99535835  1.20817065  1.41763158  1.61703839
  1.8030397   1.97228413  2.12142031  2.25212393  2.36439499  2.4565578
  2.53196374  2.59396417  2.6442348   2.68612698  2.71964073  2.74980311
  2.77493842  2.79839804  2.82018198  2.84196592  2.86207417  2.8838581
  2.90396635  2.9240746   2.94418285  2.9642911   2.98439935  3.0045076
  3.02461585  3.0447241   3.06483235  3.0849406   3.10504885  3.1251571
  3.14526535  3.16537359  3.18548184  3.20559009  3.22569834  3.24580659
  3.26591484  3.28602309  3.30613134  3.32623959  3.34634784  3.36645609
  3.38656434  3.40667259  3.42678084  3.44688909  3.46699734  3.48710559
  3.50721383  3.52732208  3.54743033  3.56753858  3.58764683  3.60775508
  3.62786333  3.64797158  3.66807983  3.68818808  3.70829633  3.72840458
  3.74851283  3.76862108  3.78872933  3.80883758  3.82894583  3.84905407
  3.86916232  3.88927057  3.90937882  3.92948707  3.94959532  3.96970357
  3.98981182  4.00992007  4.03002832  4.05013657  4.07024482  4.09035307
  4.11046132  4.13056957  4.15067782  4.17078606  4.19089431  4.21100256
  4.23111081  4.25121906  4.27132731  4.29143556  4.31154381  4.33165206
  4.35176031  4.37186856  4.39197681  4.41208506  4.43219331  4.45230156
  4.47240981  4.49251806  4.5126263   4.53273455  4.5528428   4.57295105
  4.5930593   4.61316755  4.6332758   4.65338405  4.6734923   4.69360055
  4.7137088   4.73381705  4.7539253   4.77403355  4.7941418   4.81425005
  4.8343583   4.85446654  4.87457479  4.89468304  4.91479129  4.93489954
  4.95500779  4.97511604]","[ 2.37656343e-01  3.50390762e-02 -1.32539114e-01 -2.57461038e-01
 -3.38203257e-01 -3.77812648e-01 -3.76289209e-01 -3.39726695e-01
 -2.77265733e-01 -1.96523514e-01 -1.03593790e-01 -7.61719048e-03
  8.53125333e-02  1.67578190e-01  2.36132905e-01  2.87929800e-01
  3.24492314e-01  3.42773571e-01  3.47343886e-01  3.42773571e-01
  3.30586067e-01  3.16875124e-01  3.06211057e-01  3.01640743e-01
  3.03164181e-01  3.12304809e-01  3.24492314e-01  3.38203257e-01
  3.47343886e-01  3.45820448e-01  3.30586067e-01  2.97070429e-01
  2.45273533e-01  1.75195381e-01  9.29297238e-02  1.52343810e-03
 -8.98828476e-02 -1.78242257e-01 -2.52890724e-01 -3.13828248e-01
 -3.54961076e-01 -3.77812648e-01 -3.82382962e-01 -3.71718895e-01
 -3.48867324e-01 -3.18398562e-01 -2.84882924e-01 -2.52890724e-01
 -2.23945400e-01 -2.02617267e-01 -1.88906324e-01 -1.85859448e-01
 -1.93476638e-01 -2.14804771e-01 -2.48320410e-01 -2.94023552e-01
 -3.53437638e-01 -4.21992352e-01 -4.99687695e-01 -5.80429914e-01
 -6.61172133e-01 -7.35820600e-01 -8.01328438e-01 -8.53125333e-01
 -8.86640971e-01 -9.03398790e-01 -9.00351914e-01 -8.83594095e-01
 -8.53125333e-01 -8.16562819e-01 -7.78476867e-01 -7.41914352e-01
 -7.14492467e-01 -6.97734648e-01 -6.96211209e-01 -7.08398714e-01
 -7.37344038e-01 -7.80000305e-01 -8.33320638e-01 -8.97305038e-01
 -9.65859752e-01 -1.03746134e+00 -1.10906293e+00 -1.17761765e+00
 -1.24160205e+00 -1.29796926e+00 -1.34824271e+00 -1.39089898e+00
 -1.42746150e+00 -1.45945370e+00 -1.49144590e+00 -1.52648497e+00
 -1.56761780e+00 -1.61789126e+00 -1.68035222e+00 -1.75500069e+00
 -1.84183666e+00 -1.94086013e+00 -2.04597736e+00 -2.15261803e+00
 -2.25468838e+00 -2.34914154e+00 -2.42836032e+00 -2.49082129e+00
 -2.53043068e+00 -2.55023537e+00 -2.54871193e+00 -2.52890724e+00
 -2.49386816e+00 -2.44816502e+00 -2.39484469e+00 -2.34000091e+00
 -2.28211027e+00 -2.22726650e+00 -2.17394616e+00 -2.12519614e+00
 -2.07796956e+00 -2.03226642e+00 -1.98961015e+00 -1.94695389e+00
 -1.90734450e+00 -1.86925854e+00 -1.83421947e+00 -1.80070383e+00
 -1.77023507e+00 -1.74281318e+00 -1.71843817e+00 -1.69711004e+00
 -1.67578190e+00 -1.65445377e+00 -1.63160220e+00 -1.60722719e+00
 -1.57828187e+00 -1.54476623e+00 -1.50668028e+00 -1.46402401e+00
 -1.41832087e+00 -1.36957085e+00 -1.32082083e+00 -1.27511769e+00]",5.793898821991726,0.10792356189449792,5.9677,0.19587999999999894
011,1,1,csm,17b.png,1,1,236,227,238,1,1,340,neu_feedback_onset,7,"[ 5.76498778e-01  4.37316631e-01  3.17113868e-01  2.12727258e-01
  1.27320032e-01  5.93105739e-02  2.37242296e-03 -4.19128055e-02
 -7.67083422e-02 -1.06759033e-01 -1.30483263e-01 -1.51044262e-01
 -1.66860415e-01 -1.76350106e-01 -1.81094952e-01 -1.79513337e-01
 -1.68442030e-01 -1.49462646e-01 -1.20993571e-01 -8.30348034e-02
 -3.55863443e-02  2.13518066e-02  8.46164187e-02  1.55789107e-01
  2.31706642e-01  3.09205792e-01  3.89868172e-01  4.68948938e-01
  5.46448087e-01  6.17620776e-01  6.82467004e-01  7.39405154e-01
  7.88435229e-01  8.26393996e-01  8.56444687e-01  8.80168917e-01
  8.97566685e-01  9.11801223e-01  9.24454145e-01  9.37107067e-01
  9.52923220e-01  9.71902604e-01  9.94045218e-01  1.01776945e+00
  1.04465691e+00  1.07154437e+00  1.09685021e+00  1.12057444e+00
  1.14113544e+00  1.15536998e+00  1.16485967e+00  1.16802290e+00
  1.16644129e+00  1.16011483e+00  1.14746190e+00  1.13322737e+00
  1.11741121e+00  1.10001344e+00  1.08419729e+00  1.07154437e+00
  1.06363629e+00  1.06047306e+00  1.06363629e+00  1.07470760e+00
  1.09210537e+00  1.11741121e+00  1.15062513e+00  1.19332875e+00
  1.24552205e+00  1.30878666e+00  1.38312258e+00  1.47169304e+00
  1.57291642e+00  1.68837434e+00  1.81806679e+00  1.95883055e+00
  2.11224724e+00  2.27199038e+00  2.43647838e+00  2.60096637e+00
  2.75754628e+00  2.90305489e+00  3.03274734e+00  3.14187880e+00
  3.22728603e+00  3.28580579e+00  3.31743810e+00  3.32218295e+00
  3.30320356e+00  3.26208156e+00  3.20514341e+00  3.13555234e+00
  3.05805319e+00  2.98055404e+00  2.90621812e+00  2.83820866e+00
  2.77968890e+00  2.72907721e+00  2.68953682e+00  2.65315967e+00
  2.62152737e+00  2.58673183e+00  2.54560983e+00  2.49499814e+00
  2.43173353e+00  2.35581599e+00  2.26566392e+00  2.16602216e+00
  2.05847232e+00  1.94775925e+00  1.83862779e+00  1.73582280e+00
  1.64250749e+00  1.56026350e+00  1.49225404e+00  1.43689750e+00
  1.39261227e+00  1.35781674e+00  1.32934766e+00  1.30720505e+00
  1.28664405e+00  1.27082790e+00  1.25659336e+00  1.24710367e+00
  1.24235882e+00  1.24394044e+00  1.25184851e+00  1.26608305e+00
  1.28664405e+00  1.31353151e+00  1.34200059e+00  1.36888805e+00
  1.39103066e+00  1.40684681e+00  1.41159166e+00  1.40368358e+00
  1.38154097e+00  1.34832705e+00  1.30404182e+00  1.25184851e+00
  1.19807359e+00  1.14746190e+00  1.10475829e+00  1.07787083e+00
  1.06838114e+00  1.08103406e+00  1.11741121e+00  1.17593098e+00
  1.25343013e+00  1.34200059e+00  1.43689750e+00  1.52388635e+00
  1.59664065e+00  1.64092588e+00  1.65199718e+00  1.62194649e+00
  1.55077381e+00  1.44006073e+00  1.29771536e+00  1.13480898e+00
  9.65576143e-01  8.04251382e-01  6.65069235e-01  5.59101010e-01
  4.94254782e-01  4.73693783e-01  4.91091552e-01  5.40121626e-01
  6.04967854e-01  6.69814081e-01  7.18844156e-01  7.33078693e-01
  7.01446387e-01  6.12875930e-01  4.65785707e-01  2.63338948e-01
  1.18621148e-02 -2.74410255e-01 -5.81243624e-01 -8.88076993e-01
 -1.18225744e+00 -1.44638720e+00 -1.67255818e+00 -1.85444394e+00
 -1.99046286e+00 -2.08535978e+00 -2.14546116e+00 -2.18025670e+00
 -2.19923608e+00 -2.21188900e+00 -2.22296031e+00 -2.23719485e+00
 -2.25459262e+00 -2.27040877e+00 -2.27673523e+00 -2.26724554e+00
 -2.23245000e+00 -2.16602216e+00 -2.06479878e+00 -1.92877986e+00
 -1.75796541e+00 -1.56184511e+00 -1.34674543e+00 -1.12690090e+00
 -9.14964453e-01 -7.18844156e-01 -5.51192933e-01 -4.21500478e-01
 -3.32930021e-01 -2.90226408e-01 -2.88644793e-01 -3.26603560e-01
 -3.97776249e-01 -4.92673167e-01 -5.98641392e-01 -7.04609618e-01
 -7.99506536e-01 -8.69097609e-01 -9.08637992e-01 -9.07056377e-01
 -8.61189533e-01 -7.74200691e-01 -6.50834697e-01 -4.97418013e-01
 -3.29766791e-01 -1.62115569e-01 -1.18621148e-02  1.06759033e-01
  1.76350106e-01  1.89003029e-01  1.36809724e-01  1.97701913e-02
 -1.57370723e-01 -3.85123326e-01 -6.49253082e-01 -9.40270298e-01
 -1.23919559e+00 -1.53653927e+00 -1.82281164e+00 -2.09168624e+00
 -2.34158146e+00 -2.57249729e+00 -2.78601536e+00 -2.99004373e+00
 -3.18458241e+00 -3.37595787e+00 -3.56258847e+00 -3.74447423e+00
 -3.91845191e+00 -4.07977668e+00 -4.22212205e+00 -4.34232482e+00
 -4.43722173e+00 -4.50206796e+00 -4.54160834e+00 -4.55426127e+00
 -4.54477158e+00 -4.51788412e+00 -4.47834373e+00 -4.42931366e+00]","[-1.29580412 -1.12635345 -0.96512853 -0.81706483 -0.68216236 -0.56042109
 -0.4534862  -0.35477707 -0.26264855 -0.16887487 -0.06852059  0.04170461
  0.16673617  0.31150957  0.47931509  0.6717979   0.88731283  1.1291502
  1.39237456  1.67534073  1.97640358  2.28733735  2.60485172  2.92401124
  3.23823531  3.54094331  3.82719979  4.09371445  4.33226152  4.542841
  4.72216259  4.86858113  4.98209663  5.06106394  5.10877335  5.12193457
  5.10548305  5.05941878  4.98374178  4.88174235  4.75342048  4.60206648
  4.4293255   4.24013299  4.03448897  3.82061919  3.59852364  3.37642809
  3.15926801  2.95033368  2.75620572  2.57688413  2.41894952  2.28075674
  2.16395093  2.0652418   1.9862745   1.92375871  1.87440415  1.83656565
  1.80859806  1.78721108  1.77569502  1.77075956  1.77240471  1.78063047
  1.79708199  1.82175928  1.85137202  1.88427506  1.92211356  1.95830691
  1.99450026  2.0274033   2.05372574  2.07346756  2.08333847  2.08333847
  2.07346756  2.05208058  2.02082269  1.97640358  1.92211356  1.85795262
  1.78227562  1.69837286  1.60624434  1.50753521  1.40224547  1.29531058
  1.18508538  1.07486018  0.96628014  0.85770009  0.75405551  0.65370122
  0.55992755  0.46944418  0.38554142  0.30986441  0.23912287  0.17660709
  0.12231707  0.07460765  0.03676915  0.00715641 -0.01258541 -0.02410148
 -0.02245633 -0.01258541  0.00880156  0.04170461  0.08118826  0.13054283
  0.1831877   0.23912287  0.29341289  0.34441261  0.38883172  0.42502507
  0.44970235  0.46450872  0.46615387  0.45628296  0.43654113  0.40857355
  0.37402535  0.33618685  0.29505805  0.25392924  0.21280044  0.17496194
  0.14041374  0.110801    0.08776887  0.07131735  0.06309159  0.06309159
  0.0729625   0.09270433]",2.522320545973599,3.5045031928291173,6.32265,-0.08986000000000072
011,1,1,csp,43a.png,1,1,84,136,NaN,0,1,296,neg_feedback_onset,8,"[-4.45508802e-01 -4.04613924e-01 -3.55540070e-01 -2.96651446e-01
 -2.32855436e-01 -1.64152041e-01 -9.38128503e-02 -2.34736600e-02
  4.19581449e-02  1.02482564e-01  1.56463804e-01  1.97358682e-01
  2.28438789e-01  2.46432535e-01  2.49704126e-01  2.38253560e-01
  2.12080838e-01  1.72821755e-01  1.18840516e-01  5.17729156e-02
 -2.34736600e-02 -1.08535006e-01 -2.00139533e-01 -2.93379855e-01
 -3.86620177e-01 -4.74953114e-01 -5.56742870e-01 -6.27082060e-01
 -6.84334890e-01 -7.25229768e-01 -7.46495104e-01 -7.49766695e-01
 -7.33408743e-01 -6.97421251e-01 -6.41804217e-01 -5.68193436e-01
 -4.81496295e-01 -3.81712792e-01 -2.72114519e-01 -1.55973065e-01
 -3.49242259e-02  8.44888181e-02  2.03901862e-01  3.18407521e-01
  4.29641589e-01  5.37604067e-01  6.39023365e-01  7.37171072e-01
  8.30411394e-01  9.23651716e-01  1.01362045e+00  1.10195338e+00
  1.19028632e+00  1.27534767e+00  1.35877322e+00  1.43892718e+00
  1.51580955e+00  1.59269192e+00  1.66630270e+00  1.73991348e+00
  1.81352426e+00  1.89040663e+00  1.96728900e+00  2.04907876e+00
  2.13086852e+00  2.21429407e+00  2.29771962e+00  2.37787358e+00
  2.45639175e+00  2.53163832e+00  2.60361331e+00  2.67558829e+00
  2.74756328e+00  2.82280985e+00  2.90459961e+00  2.99129675e+00
  3.08617287e+00  3.18922796e+00  3.29719044e+00  3.41006030e+00
  3.52129437e+00  3.63089265e+00  3.73231194e+00  3.82391647e+00
  3.90079884e+00  3.96132326e+00  4.00221814e+00  4.02348347e+00
  4.02348347e+00  4.00385393e+00  3.96132326e+00  3.89752725e+00
  3.81246590e+00  3.70613922e+00  3.58181879e+00  3.43786882e+00
  3.27592510e+00  3.09598764e+00  2.89969223e+00  2.68867465e+00
  2.46129913e+00  2.22083725e+00  1.96728900e+00  1.70392599e+00
  1.43238400e+00  1.15429883e+00  8.74577863e-01  5.96492692e-01
  3.21679111e-01  5.50445059e-02 -2.00139533e-01 -4.43873007e-01
 -6.72884324e-01 -8.87173485e-01 -1.09001208e+00 -1.27976431e+00
 -1.45970178e+00 -1.63309606e+00 -1.79994716e+00 -1.96189088e+00
 -2.12219880e+00 -2.28087093e+00 -2.43790726e+00 -2.59167200e+00
 -2.74052936e+00 -2.88284354e+00 -3.01370715e+00 -3.13312019e+00
 -3.23617528e+00 -3.31960083e+00 -3.38176105e+00 -3.42102013e+00
 -3.43901388e+00 -3.43410649e+00 -3.41120536e+00 -3.37358207e+00
 -3.32614401e+00 -3.27870596e+00 -3.24108267e+00 -3.21981733e+00
 -3.22472472e+00 -3.26561959e+00 -3.34740935e+00 -3.47336557e+00
 -3.64512406e+00 -3.85777743e+00 -4.10478249e+00 -4.37632448e+00
 -4.65931704e+00 -4.93903801e+00 -5.20403682e+00 -5.43959131e+00
 -5.63588673e+00 -5.78801567e+00 -5.88943497e+00 -5.94505201e+00
 -5.95813837e+00 -5.94014462e+00 -5.89761395e+00 -5.84690430e+00
 -5.79783044e+00 -5.76020716e+00 -5.74221341e+00 -5.75039239e+00
 -5.78310829e+00 -5.84199691e+00 -5.92051508e+00 -6.01211961e+00
 -6.11026731e+00 -6.20677923e+00 -6.29511216e+00 -6.37035874e+00
 -6.43251895e+00 -6.47832122e+00 -6.51103712e+00 -6.53557405e+00
 -6.55356779e+00 -6.56828995e+00 -6.58301210e+00 -6.59773426e+00
 -6.61082062e+00 -6.61899960e+00 -6.61736380e+00 -6.59937006e+00
 -6.56174677e+00 -6.49631496e+00 -6.40307464e+00 -6.27875421e+00
 -6.12662526e+00 -5.94505201e+00 -5.74057762e+00 -5.51647368e+00
 -5.27274021e+00 -5.01592038e+00 -4.74601418e+00 -4.46302162e+00
 -4.16694271e+00 -3.85450584e+00 -3.52734681e+00 -3.18382984e+00
 -2.82559071e+00 -2.45426521e+00 -2.07803233e+00 -1.70016366e+00
 -1.33374555e+00 -9.85321192e-01 -6.64705348e-01 -3.83348587e-01
 -1.47794089e-01  3.86865547e-02  1.74457550e-01  2.61154691e-01
  3.02049569e-01  3.10228545e-01  2.92234799e-01  2.61154691e-01
  2.26802994e-01  2.02266067e-01  1.92451296e-01  2.00630272e-01
  2.28438789e-01  2.72605257e-01  3.24950701e-01  3.77296145e-01
  4.19826818e-01  4.45999540e-01  4.45999540e-01  4.14919433e-01
  3.52759218e-01  2.61154691e-01  1.41741647e-01  4.33485708e-03
 -1.46158294e-01 -2.99923036e-01 -4.52051982e-01 -5.97637748e-01
 -7.30137153e-01 -8.51185992e-01 -9.57512675e-01 -1.05238879e+00
 -1.13417855e+00 -1.20778933e+00 -1.27158534e+00 -1.32883817e+00
 -1.37954782e+00 -1.42371429e+00 -1.46297337e+00 -1.49732507e+00
 -1.52676938e+00 -1.55457790e+00 -1.58075062e+00 -1.60692334e+00
 -1.63146027e+00 -1.65763299e+00 -1.68053412e+00 -1.70179946e+00
 -1.71815741e+00 -1.72797218e+00 -1.72470059e+00 -1.71161423e+00]","[-0.11795977 -0.100659   -0.08493103 -0.07077586 -0.05976628 -0.0487567
 -0.04089272 -0.03460153 -0.02988314 -0.02673755 -0.02359195 -0.02044636
 -0.01415517 -0.00629119  0.00943678  0.03460153  0.06920306  0.11953256
  0.18401724  0.26265708  0.3554521   0.4576839   0.56935248  0.68573945
  0.80212642  0.9169406   1.02703638  1.13084097  1.22992718  1.3211494
  1.40922603  1.49415706  1.5775153   1.66244633  1.74580456  1.8307356
  1.91252104  1.99116088  2.06036395  2.11855743  2.16259574  2.18776049
  2.19405168  2.17832371  2.14372218  2.08867429  2.01947123  1.93768579
  1.85118196  1.76310533  1.68131989  1.60897123  1.55235054  1.51460342
  1.49572986  1.49572986  1.51460342  1.54605936  1.59009767  1.63728158
  1.68446548  1.726931    1.75681414  1.77411491  1.77254211  1.75366855
  1.71592142  1.66087353  1.59009767  1.50673943  1.41394442  1.31485821
  1.21577201  1.1182586   1.02389078  0.93738696  0.85717431  0.78482566
  0.72191378  0.66529309  0.61496359  0.57092528  0.52845976  0.49071263
  0.45453831  0.41993677  0.38533524  0.35073371  0.31770497  0.28467624
  0.2516475   0.21861877  0.18559003  0.1525613   0.11953256  0.08650383
  0.05347509  0.02044636 -0.01100958 -0.04246552 -0.07392145 -0.1022318
 -0.12739655 -0.14784291 -0.16042528 -0.16042528 -0.14469732 -0.10695019
 -0.04089272  0.05819349  0.19502682  0.37589846  0.59766282  0.86031991
  1.15600572  1.47685629  1.80871644  2.13900379  2.45199037  2.73194822
  2.97101335  3.15660339  3.28557273  3.35792139  3.37207656  3.33747503
  3.25883519  3.1487394   3.01347887  2.86720876  2.71464746  2.56837735
  2.43154401  2.30886586  2.20506126  2.12013023  2.05407276  2.00688885
  1.97700571  1.95970494]",3.047240945260564,1.8709292957889323,6.113235,
011,1,1,csp,65a.png,1,1,80,348,79,1,1,364,pos_feedback_onset,9,"[ 4.66312708e-01  4.80568192e-01  4.91655790e-01  4.99575503e-01
  4.96407618e-01  4.78984249e-01  4.44137512e-01  3.88699520e-01
  3.12670274e-01  2.17633716e-01  1.03589848e-01 -2.31255623e-02
 -1.57760685e-01 -2.92395808e-01 -4.20695161e-01 -5.36322972e-01
 -6.36111358e-01 -7.16892431e-01 -7.77082251e-01 -8.19848702e-01
 -8.46775726e-01 -8.61031210e-01 -8.68950923e-01 -8.73702751e-01
 -8.78454579e-01 -8.83206407e-01 -8.89542177e-01 -8.95877948e-01
 -9.02213718e-01 -9.02213718e-01 -8.97461890e-01 -8.84790349e-01
 -8.62615153e-01 -8.30936300e-01 -7.89753792e-01 -7.40651571e-01
 -6.85213579e-01 -6.23439817e-01 -5.58498169e-01 -4.90388636e-01
 -4.17527275e-01 -3.39914087e-01 -2.57549071e-01 -1.67264341e-01
 -7.06438410e-02  3.54803148e-02  1.51108126e-01  2.74655651e-01
  4.06122889e-01  5.45509839e-01  6.88064676e-01  8.33787397e-01
  9.81094061e-01  1.12523284e+00  1.26778768e+00  1.40559068e+00
  1.53705792e+00  1.66060545e+00  1.77623326e+00  1.88077347e+00
  1.97422609e+00  2.05342322e+00  2.11994881e+00  2.17063497e+00
  2.20706565e+00  2.22607296e+00  2.23082479e+00  2.22290508e+00
  2.20231382e+00  2.17221891e+00  2.13578823e+00  2.09302178e+00
  2.04867139e+00  2.00273705e+00  1.95680272e+00  1.91403627e+00
  1.87285376e+00  1.83325519e+00  1.79840845e+00  1.76672960e+00
  1.73980258e+00  1.71921132e+00  1.70495584e+00  1.69703613e+00
  1.69862007e+00  1.71129161e+00  1.73346681e+00  1.76672960e+00
  1.80949605e+00  1.86176616e+00  1.92195598e+00  1.98848157e+00
  2.05659110e+00  2.12628458e+00  2.19597805e+00  2.26250364e+00
  2.32586135e+00  2.38605117e+00  2.44148916e+00  2.49217532e+00
  2.54127754e+00  2.58562794e+00  2.62522650e+00  2.66165718e+00
  2.69175209e+00  2.71392729e+00  2.72659883e+00  2.72501489e+00
  2.70917546e+00  2.67591267e+00  2.62681045e+00  2.56345274e+00
  2.48742350e+00  2.40664242e+00  2.32744529e+00  2.25458393e+00
  2.19914594e+00  2.16271526e+00  2.15479554e+00  2.17538680e+00
  2.22607296e+00  2.30368615e+00  2.40664242e+00  2.52543812e+00
  2.65848930e+00  2.79470836e+00  2.92934349e+00  3.05922678e+00
  3.17802248e+00  3.28731452e+00  3.38551896e+00  3.47421975e+00
  3.55500082e+00  3.63261401e+00  3.70705932e+00  3.78150462e+00
  3.85594992e+00  3.92722734e+00  3.99375293e+00  4.05077486e+00
  4.09037343e+00  4.10779680e+00  4.09670920e+00  4.04919092e+00
  3.96524196e+00  3.84011050e+00  3.67538046e+00  3.47580369e+00
  3.24454807e+00  2.99428514e+00  2.73293460e+00  2.47158407e+00
  2.22132113e+00  1.99164945e+00  1.78732086e+00  1.61783900e+00
  1.48161993e+00  1.37866366e+00  1.30580230e+00  1.25670008e+00
  1.22343728e+00  1.19651026e+00  1.16958323e+00  1.13473650e+00
  1.08405033e+00  1.01594080e+00  9.27240012e-01  8.19531913e-01
  6.94400446e-01  5.58181380e-01  4.15626544e-01  2.73071708e-01
  1.36852643e-01  6.96934754e-03 -1.11826349e-01 -2.19534448e-01
 -3.22490718e-01 -4.22279103e-01 -5.26819316e-01 -6.42447128e-01
 -7.73914366e-01 -9.25972858e-01 -1.09862260e+00 -1.29027966e+00
 -1.48985643e+00 -1.69101714e+00 -1.87633843e+00 -2.03314875e+00
 -2.14560868e+00 -2.20104667e+00 -2.19154301e+00 -2.11076194e+00
 -1.96028739e+00 -1.74645514e+00 -1.48035278e+00 -1.17306791e+00
 -8.43607841e-01 -5.07812005e-01 -1.79935882e-01  1.27348987e-01
  4.04538946e-01  6.43714282e-01  8.43291053e-01  1.00168531e+00
  1.12048101e+00  1.20284603e+00  1.25194825e+00  1.27253950e+00
  1.26620373e+00  1.23769277e+00  1.19175843e+00  1.12998467e+00
  1.05553936e+00  9.73174348e-01  8.84473561e-01  7.91020946e-01
  6.91232561e-01  5.88276290e-01  4.77400307e-01  3.60188553e-01
  2.30305257e-01  8.61664787e-02 -7.53956689e-02 -2.57549071e-01
 -4.60293726e-01 -6.82045694e-01 -9.22804972e-01 -1.17781973e+00
 -1.44233815e+00 -1.71319234e+00 -1.98404653e+00 -2.25173283e+00
 -2.51149942e+00 -2.76334630e+00 -3.00568952e+00 -3.23852909e+00
 -3.46344894e+00 -3.68203302e+00 -3.89428133e+00 -4.10336176e+00
 -4.30927430e+00 -4.51360290e+00 -4.71634756e+00 -4.91750827e+00
 -5.12025292e+00 -5.32141364e+00 -5.52257435e+00 -5.72215112e+00
 -5.92331183e+00 -6.12288860e+00 -6.32088143e+00 -6.51570638e+00
 -6.70894738e+00 -6.89585260e+00 -7.07483812e+00 -7.24273604e+00
 -7.39637847e+00 -7.53101360e+00 -7.64347352e+00 -7.73059037e+00]","[-0.90952761 -0.91586909 -0.89050315 -0.83342978 -0.75099046 -0.64635594
 -0.52428234 -0.39428188 -0.25635457 -0.11842725  0.0179147   0.15267127
  0.2842571   0.41584293  0.54742877  0.68059997  0.81694191  0.95962535
  1.10706489  1.25767518  1.40987084  1.56365187  1.71267679  1.85694559
  1.99011679  2.1121904   2.21841028  2.30877646  2.38328892  2.44353303
  2.49267955  2.53548458  2.57511886  2.61792389  2.66865578  2.73207064
  2.80975384  2.90012001  3.00475453  3.12048665  3.24097488  3.36304848
  3.48195134  3.59292734  3.69439111  3.78475729  3.86402586  3.9337822
  3.99719706  4.05427044  4.10500232  4.14939272  4.18585627  4.21122221
  4.22073444  4.21439295  4.19061238  4.14939272  4.09549009  4.02890449
  3.95439203  3.8782942   3.800611    3.72768391  3.6563422   3.59134197
  3.52951248  3.47243911  3.42012185  3.36938996  3.31865808  3.27109693
  3.22353579  3.17756002  3.13158425  3.08560847  3.03804733  2.99207156
  2.94609578  2.89853464  2.8509735   2.80341235  2.75426584  2.70353395
  2.64963132  2.59255795  2.53231383  2.46889898  2.400728    2.32938629
  2.25487383  2.18036137  2.10743428  2.03926331  1.97743382  1.92828731
  1.89182376  1.87121393  1.86487245  1.87121393  1.88865302  1.91401896
  1.94097028  1.96475085  1.98218994  1.98853142  1.98060457  1.95840937
  1.92353119  1.87438468  1.81572593  1.75231108  1.6841401   1.61438376
  1.54621279  1.48121256  1.41938307  1.3623097   1.30840707  1.26084592
  1.21645552  1.17523586  1.13877232  1.10706489  1.0785282   1.05474763
  1.0341378   1.01511335  0.99767426  0.98182055  0.9675522   0.95169849
  0.93743014  0.92474717  0.91364957  0.90572272  0.90413734  0.90730809
  0.91682032  0.9342594 ]",2.9878701673910517,3.629628690150247,6.31336,0.1114449999999998
011,1,1,csm,13b.png,1,1,344,232,342,1,1,344,neu_feedback_onset,10,"[ 0.41474091  0.326889    0.23903708  0.15437978  0.07611171  0.00583017
 -0.0516729  -0.09799482 -0.13153828 -0.15230328 -0.16188712 -0.16028982
 -0.14910866 -0.13153828 -0.10757867 -0.08042444 -0.05007559 -0.01653213
  0.01860863  0.05534671  0.0952794   0.13680939  0.1799367   0.223064
  0.26619131  0.30452669  0.33966746  0.3700163   0.3907813   0.40355976
  0.40675437  0.40196245  0.3907813   0.37161361  0.35084861  0.33168092
  0.31411054  0.306124    0.3077213   0.32369438  0.35723784  0.40835168
  0.47703591  0.56329052  0.66072628  0.7693432   0.88115473  0.99136895
  1.09519394  1.18624047  1.25971662  1.31402508  1.34597123  1.35395777
  1.339582    1.30284393  1.24374355  1.16387817  1.06324779  0.94344972
  0.80448396  0.64794782  0.4754386   0.29015092  0.09368209 -0.10757867
 -0.31203404 -0.5148921  -0.71136093 -0.89984322 -1.08033898 -1.24965358
 -1.40938434 -1.56112856 -1.70169163 -1.83586547 -1.95885815 -2.07386429
 -2.17928659 -2.27033313 -2.34540658 -2.40450696 -2.44284234 -2.46041273
 -2.45721811 -2.43166119 -2.38693658 -2.32464158 -2.24797082 -2.1601189
 -2.06428045 -1.96205276 -1.85822777 -1.75280547 -1.64898048 -1.54994741
 -1.45410895 -1.36625704 -1.28639166 -1.21611012 -1.15541244 -1.10110398
 -1.05318475 -1.01005745 -0.96852745 -0.92380284 -0.87588361 -0.81997785
 -0.75768285 -0.68899862 -0.61392517 -0.5356571  -0.45579172 -0.37912095
 -0.30564481 -0.24015519 -0.17945751 -0.12355174 -0.0724379  -0.01972675
  0.03777632  0.10166863  0.1799367   0.27417785  0.38598938  0.5169686
  0.66392089  0.82684627  0.99935549  1.17505932  1.35076315  1.51848045
  1.67501659  1.81398235  1.93537773  2.0360081   2.11747079  2.18136309
  2.22768501  2.26122847  2.28359078  2.29796655  2.30435578  2.30755039
  2.30595309  2.30275847  2.29796655  2.29317462  2.2883827   2.28199347
  2.27560424  2.26921501  2.26282578  2.25803386  2.25164463  2.2452554
  2.23886617  2.23247694  2.22608771  2.21969848  2.21330925  2.20692002
  2.20053079  2.19573886  2.18934963  2.1829604   2.17657117  2.17018194
  2.16379271  2.15740348  2.15101425  2.14462502  2.13823579  2.13344387
  2.12705464  2.12066541  2.11427618  2.10788695  2.10149772  2.09510849
  2.08871925  2.08233002  2.07594079  2.06955156  2.06475964  2.05837041
  2.05198118  2.04559195  2.03920272  2.03281349  2.02642426  2.02003503
  2.0136458   2.00725657  2.00246465  1.99607542  1.98968618  1.98329695
  1.97690772  1.97051849  1.96412926  1.95774003  1.9513508   1.94496157
  1.94016965  1.93378042  1.92739119  1.92100196  1.91461273  1.9082235
  1.90183427  1.89544504  1.88905581  1.88266658  1.87787465  1.87148542
  1.86509619  1.85870696  1.85231773  1.8459285   1.83953927  1.83315004
  1.82676081  1.82037158  1.81557966  1.80919043  1.8028012   1.79641197
  1.79002274  1.78363351  1.77724428  1.77085505  1.76446582  1.75807659
  1.75168736  1.74689543  1.7405062   1.73411697  1.72772774  1.72133851
  1.71494928  1.70856005  1.70217082  1.69578159  1.68939236  1.68460044
  1.67821121  1.67182198  1.66543275  1.65904352  1.65265429  1.64626506
  1.63987583  1.63348659  1.62709736  1.62230544  1.61591621  1.60952698
  1.60313775  1.59674852]","[-3.26492608e-01 -2.49153439e-01 -1.80912996e-01 -1.21771279e-01
 -7.47611964e-02 -4.13992020e-02 -1.86523877e-02 -9.55366201e-03
 -9.55366201e-03 -1.41030249e-02 -2.16852963e-02 -2.47182049e-02
 -2.01688420e-02 -1.97139057e-03  2.83576952e-02  7.68842324e-02
  1.37542404e-01  2.10332210e-01  2.90704287e-01  3.71076364e-01
  4.46899078e-01  5.10590159e-01  5.59116696e-01  5.87929327e-01
  5.93995144e-01  5.80347056e-01  5.46985061e-01  4.98458524e-01
  4.40833261e-01  3.78658636e-01  3.16484010e-01  2.60375201e-01
  2.10332210e-01  1.70904398e-01  1.39058858e-01  1.16312044e-01
  9.81145924e-02  7.99171409e-02  5.86867809e-02  2.53247866e-02
 -2.32017506e-02 -9.75080107e-02 -2.05176265e-01 -3.50755877e-01
 -5.41829117e-01 -7.85978257e-01 -1.08623621e+00 -1.44108651e+00
 -1.84749626e+00 -2.29939964e+00 -2.78163210e+00 -3.28206201e+00
 -3.78249193e+00 -4.26624085e+00 -4.71966068e+00 -5.12910334e+00
 -5.48850300e+00 -5.79482677e+00 -6.04807463e+00 -6.25431242e+00
 -6.41808948e+00 -6.54395519e+00 -6.63645890e+00 -6.69863352e+00
 -6.73351197e+00 -6.73806133e+00 -6.71076516e+00 -6.64859053e+00
 -6.55305391e+00 -6.41960593e+00 -6.25431242e+00 -6.06020627e+00
 -5.84790267e+00 -5.62953325e+00 -5.41722965e+00 -5.22615641e+00
 -5.06996162e+00 -4.96229336e+00 -4.91225037e+00 -4.92286555e+00
 -4.99868827e+00 -5.13668561e+00 -5.33079176e+00 -5.57342444e+00
 -5.85396849e+00 -6.16332516e+00 -6.48784638e+00 -6.81691696e+00
 -7.14295463e+00 -7.45534421e+00 -7.74801989e+00 -8.01339939e+00
 -8.24844980e+00 -8.45165468e+00 -8.61998110e+00 -8.75191263e+00
 -8.84896570e+00 -8.91114033e+00 -8.93843651e+00 -8.92933778e+00
 -8.88687706e+00 -8.80953789e+00 -8.69883673e+00 -8.55477357e+00
 -8.38038133e+00 -8.17566000e+00 -7.94667540e+00 -7.69646044e+00
 -7.42653158e+00 -7.14295463e+00 -6.84876250e+00 -6.55153746e+00
 -6.25279596e+00 -5.95708738e+00 -5.66744461e+00 -5.38538411e+00
 -5.11697170e+00 -4.86220738e+00 -4.62109115e+00 -4.39968882e+00
 -4.19496749e+00 -4.00996007e+00 -3.84466655e+00 -3.70060340e+00
 -3.57473769e+00 -3.46858589e+00 -3.37759863e+00 -3.30329237e+00
 -3.24263420e+00 -3.19259121e+00 -3.15013049e+00 -3.11525204e+00
 -3.08643941e+00 -3.06217614e+00 -3.04094578e+00 -3.02123188e+00
 -3.00455088e+00 -2.98786988e+00 -2.97270534e+00 -2.95905725e+00]",1.9005963547843756,0.1705252846005684,6.260535,0.23623499999999975
011,1,1,csp,33a.png,1,1,300,245,300,1,1,345,pos_feedback_onset,11,"[-0.64053516 -0.62335845 -0.59056655 -0.54372098 -0.48126021 -0.40474577
 -0.3173007  -0.22048651 -0.11586472 -0.00968142  0.09650188  0.19800063
  0.29169178  0.37289078  0.43847458  0.4884432   0.51811206  0.5290427
  0.51967358  0.49468927  0.45408977  0.40099812  0.33853736  0.26983051
  0.19643911  0.12304771  0.04965631 -0.02217357 -0.09088042 -0.16114878
 -0.23141714 -0.30324702 -0.37976146 -0.46252198 -0.55309009 -0.65302732
 -0.76077214 -0.87476304 -0.99187698 -1.10899092 -1.2214203  -1.32604208
 -1.41817171 -1.49624767 -1.5555854  -1.59930793 -1.62429224 -1.63522288
 -1.63209984 -1.61804616 -1.5961849  -1.56495451 -1.53060109 -1.49000159
 -1.44627906 -1.39787196 -1.34478031 -1.28388106 -1.21517422 -1.13397522
 -1.04028407 -0.93097773 -0.80761772 -0.66864251 -0.52029819 -0.36726931
 -0.21580195 -0.07526522  0.04653327  0.14022442  0.20112367  0.22454646
  0.21049278  0.16052417  0.07776365 -0.02841965 -0.1549027  -0.29231639
 -0.43597615 -0.58119744 -0.7248572  -0.86383241 -0.99812305 -1.12460611
 -1.2464046  -1.36195702 -1.47126336 -1.57120059 -1.66020718 -1.73672162
 -1.79762087 -1.83978189 -1.86164316 -1.86164316 -1.83978189 -1.79918239
 -1.73984466 -1.66645326 -1.5805697  -1.49000159 -1.39787196 -1.30730385
 -1.2214203  -1.14334434 -1.07151445 -1.00749217 -0.94815444 -0.89350127
 -0.8388481  -0.78263341 -0.7248572  -0.66083491 -0.59368959 -0.52029819
 -0.44222223 -0.36258475 -0.27826272 -0.1955022  -0.1143032  -0.03622724
  0.03560264  0.10118644  0.15583961  0.19643911  0.22454646  0.23235405
  0.22142342  0.18863152  0.13241683  0.05121783 -0.05340396 -0.17988701
 -0.32510829 -0.4890678  -0.66708099 -0.85602481 -1.05277622 -1.2542122
 -1.45720969 -1.66333022 -1.86788923 -2.06932521 -2.2645151  -2.4518974
 -2.62366451 -2.77357035 -2.89536885 -2.97969088 -3.02029038 -3.00935975
 -2.94533746 -2.82978504 -2.66582553 -2.459705   -2.22547712 -1.97407254
 -1.72110643 -1.482194   -1.26982739 -1.09337572 -0.96533115 -0.88725519
 -0.86227089 -0.88881671 -0.96376963 -1.08244509 -1.23703549 -1.41973323
 -1.62273072 -1.83509733 -2.04902546 -2.25514599 -2.44408981 -2.60961084
 -2.74233997 -2.83759264 -2.89224581 -2.90473796 -2.87663062 -2.80792377
 -2.70486351 -2.5736959  -2.4191055  -2.24733839 -2.06776369 -1.88506594
 -1.70392972 -1.52747805 -1.3603955  -1.20424358 -1.05746078 -0.9200471
 -0.79512556 -0.67957314 -0.57338984 -0.48126021 -0.40162273 -0.33916196
 -0.29387791 -0.2688936  -0.26733208 -0.28763183 -0.32823133 -0.38600754
 -0.45939894 -0.54059794 -0.62648149 -0.71236505 -0.79200252 -0.86227089
 -0.92160861 -0.96689267 -1.00124609 -1.02310736 -1.03403799 -1.03872255
 -1.03872255 -1.03559951 -1.03559951 -1.03872255 -1.04965319 -1.07307597
 -1.11367547 -1.1730132  -1.25733524 -1.36976462 -1.50873982 -1.67738389
 -1.87257379 -2.09118647 -2.32853739 -2.58150349 -2.84383871 -3.11085849
 -3.37787827 -3.64021349 -3.8931796  -4.13365355 -4.35695079 -4.55682524
 -4.72703083 -4.862883   -4.95657415 -5.00185821 -4.99405061 -4.93158985
 -4.81291439 -4.64114728 -4.4225346  -4.16488393 -3.88224896 -3.58556032
 -3.2904332  -3.01248278 -2.76420124 -2.55651919 -2.39880575 -2.29418397
 -2.24421535 -2.24577687]","[ 5.74601711e-01  5.47351465e-01  5.18587317e-01  4.88309266e-01
  4.56517313e-01  4.18669749e-01  3.74766575e-01  3.21779986e-01
  2.58196079e-01  1.82500952e-01  9.46946042e-02 -6.73686633e-03
 -1.17251752e-01 -2.36850053e-01 -3.62503965e-01 -4.86643973e-01
 -6.06242274e-01 -7.16757160e-01 -8.13646923e-01 -8.89342050e-01
 -9.40814737e-01 -9.68064983e-01 -9.68064983e-01 -9.42328639e-01
 -8.92369855e-01 -8.25758143e-01 -7.47035211e-01 -6.65284474e-01
 -5.88075444e-01 -5.21463732e-01 -4.74532753e-01 -4.53338117e-01
 -4.62421533e-01 -5.01782999e-01 -5.75964223e-01 -6.83451304e-01
 -8.19702533e-01 -9.83204008e-01 -1.16790012e+00 -1.36622135e+00
 -1.57513990e+00 -1.78557236e+00 -1.99297701e+00 -2.19281214e+00
 -2.38053606e+00 -2.55312095e+00 -2.71208072e+00 -2.86044316e+00
 -3.00123610e+00 -3.13900123e+00 -3.28130807e+00 -3.43269833e+00
 -3.59922761e+00 -3.78089591e+00 -3.98073105e+00 -4.19570521e+00
 -4.42581840e+00 -4.66652890e+00 -4.91329502e+00 -5.16157503e+00
 -5.40682725e+00 -5.64450995e+00 -5.86705362e+00 -6.06991656e+00
 -6.24552926e+00 -6.38480829e+00 -6.48321196e+00 -6.53317074e+00
 -6.53165684e+00 -6.47867025e+00 -6.37875268e+00 -6.24250145e+00
 -6.08202778e+00 -5.91398460e+00 -5.75653873e+00 -5.62937092e+00
 -5.54762018e+00 -5.52793945e+00 -5.58092604e+00 -5.70960776e+00
 -5.91701240e+00 -6.20011218e+00 -6.55285147e+00 -6.96311906e+00
 -7.42031763e+00 -7.90930815e+00 -8.41495160e+00 -8.91908115e+00
 -9.40655777e+00 -9.86375634e+00 -1.02770517e+01 -1.06373605e+01
 -1.09386271e+01 -1.11778237e+01 -1.13549503e+01 -1.14745486e+01
 -1.15396465e+01 -1.15608411e+01 -1.15441882e+01 -1.14972572e+01
 -1.14291316e+01 -1.13443530e+01 -1.12474633e+01 -1.11369484e+01
 -1.10158362e+01 -1.08826128e+01 -1.07357642e+01 -1.05737766e+01
 -1.03981639e+01 -1.02074122e+01 -1.00060632e+01 -9.80017243e+00
 -9.59276778e+00 -9.39444655e+00 -9.20975044e+00 -9.04776287e+00
 -8.91151164e+00 -8.80402456e+00 -8.72530163e+00 -8.67231504e+00
 -8.63900918e+00 -8.61781455e+00 -8.60116162e+00 -8.57845308e+00
 -8.54211942e+00 -8.48459112e+00 -8.40435429e+00 -8.29838111e+00
 -8.16818549e+00 -8.01528133e+00 -7.84421034e+00 -7.66254204e+00
 -7.47481812e+00 -7.28558031e+00 -7.10239810e+00 -6.92678540e+00
 -6.76328393e+00 -6.61340758e+00 -6.47867025e+00 -6.35907195e+00]",-0.048255162698905125,-6.755707104844078e-15,6.40402,0.3259150000000002
011,1,1,csp,28a.png,1,1,352,356,353,1,1,613,neg_feedback_onset,12,"[ 4.14268552e-01  3.68000026e-01  3.26688843e-01  2.87030106e-01
  2.45718922e-01  2.02755291e-01  1.56486765e-01  1.06913344e-01
  5.40350286e-02  1.15671315e-03 -5.17216023e-02 -9.96425756e-02
 -1.45911102e-01 -1.83917391e-01 -2.18618785e-01 -2.46710390e-01
 -2.69844653e-01 -2.92978916e-01 -3.14460732e-01 -3.39247442e-01
 -3.65686600e-01 -3.97083100e-01 -4.35089389e-01 -4.74748126e-01
 -5.19364204e-01 -5.63980283e-01 -6.08596362e-01 -6.51559993e-01
 -6.91218729e-01 -7.25920124e-01 -7.57316624e-01 -7.82103334e-01
 -8.01932702e-01 -8.18457176e-01 -8.28371860e-01 -8.34981650e-01
 -8.34981650e-01 -8.30024308e-01 -8.18457176e-01 -8.00280255e-01
 -7.75493545e-01 -7.47401940e-01 -7.16005440e-01 -6.86261387e-01
 -6.56517335e-01 -6.35035519e-01 -6.20163493e-01 -6.15206151e-01
 -6.21815940e-01 -6.36687967e-01 -6.61474677e-01 -6.89566282e-01
 -7.19310335e-01 -7.45749492e-01 -7.65578861e-01 -7.75493545e-01
 -7.75493545e-01 -7.63926413e-01 -7.42444598e-01 -7.12700545e-01
 -6.77999151e-01 -6.39992861e-01 -6.01986572e-01 -5.62327836e-01
 -5.22669099e-01 -4.81357915e-01 -4.36741836e-01 -3.87168416e-01
 -3.27680311e-01 -2.56625075e-01 -1.72350259e-01 -7.15509706e-02
  4.24678971e-02  1.69706344e-01  3.08511922e-01  4.53927289e-01
  6.02647551e-01  7.51367813e-01  8.95130733e-01  1.02897897e+00
  1.15126007e+00  1.26032160e+00  1.35120620e+00  1.42556634e+00
  1.48009710e+00  1.51810339e+00  1.53462786e+00  1.53297541e+00
  1.51149360e+00  1.47018241e+00  1.40738941e+00  1.32476705e+00
  1.22066286e+00  1.09672931e+00  9.52966391e-01  7.91026550e-01
  6.10909788e-01  4.14268552e-01  2.02755291e-01 -2.19775499e-02
 -2.59929969e-01 -5.07797073e-01 -7.63926413e-01 -1.02666554e+00
 -1.29105712e+00 -1.55544870e+00 -1.81323049e+00 -2.06109759e+00
 -2.29409267e+00 -2.50560593e+00 -2.69233248e+00 -2.85096743e+00
 -2.98151077e+00 -3.08065761e+00 -3.15336529e+00 -3.19963382e+00
 -3.22276808e+00 -3.22607298e+00 -3.21120095e+00 -3.18310934e+00
 -3.14014571e+00 -3.08396250e+00 -3.01455971e+00 -2.93193735e+00
 -2.83609540e+00 -2.72868632e+00 -2.61136256e+00 -2.48742901e+00
 -2.35853811e+00 -2.23129967e+00 -2.10736611e+00 -1.99169480e+00
 -1.88593817e+00 -1.79505356e+00 -1.71738854e+00 -1.65459554e+00
 -1.60502212e+00 -1.56866828e+00 -1.54222912e+00 -1.52405220e+00
 -1.51248507e+00 -1.50752772e+00 -1.50422283e+00 -1.50587528e+00
 -1.50752772e+00 -1.51083262e+00 -1.51578996e+00 -1.52074730e+00
 -1.52570464e+00 -1.53066199e+00 -1.53561933e+00 -1.54057667e+00
 -1.54718646e+00 -1.55214380e+00 -1.55710114e+00 -1.56205849e+00
 -1.56701583e+00 -1.57362562e+00 -1.57858296e+00 -1.58354030e+00
 -1.58849764e+00 -1.59345499e+00 -1.60006478e+00 -1.60502212e+00
 -1.60997946e+00 -1.61493680e+00 -1.61989414e+00 -1.62650393e+00
 -1.63146128e+00 -1.63641862e+00 -1.64137596e+00 -1.64633330e+00
 -1.65129064e+00 -1.65790043e+00 -1.66285778e+00 -1.66781512e+00
 -1.67277246e+00 -1.67772980e+00 -1.68433959e+00 -1.68929693e+00
 -1.69425428e+00 -1.69921162e+00 -1.70416896e+00 -1.71077875e+00
 -1.71573609e+00 -1.72069343e+00 -1.72565078e+00 -1.73060812e+00
 -1.73721791e+00 -1.74217525e+00 -1.74713259e+00 -1.75208993e+00
 -1.75704727e+00 -1.76200462e+00 -1.76861441e+00 -1.77357175e+00
 -1.77852909e+00 -1.78348643e+00 -1.78844377e+00 -1.79505356e+00
 -1.80001091e+00 -1.80496825e+00 -1.80992559e+00 -1.81488293e+00
 -1.82149272e+00 -1.82645006e+00 -1.83140741e+00 -1.83636475e+00
 -1.84132209e+00 -1.84627943e+00 -1.85288922e+00 -1.85784656e+00
 -1.86280391e+00 -1.86776125e+00 -1.87271859e+00 -1.87932838e+00
 -1.88428572e+00 -1.88924306e+00 -1.89420041e+00 -1.89915775e+00
 -1.90576754e+00 -1.91072488e+00 -1.91568222e+00 -1.92063956e+00
 -1.92559691e+00 -1.93220669e+00 -1.93716404e+00 -1.94212138e+00
 -1.94707872e+00 -1.95203606e+00 -1.95699341e+00 -1.96360319e+00
 -1.96856054e+00 -1.97351788e+00 -1.97847522e+00 -1.98343256e+00
 -1.99004235e+00 -1.99499969e+00 -1.99995704e+00 -2.00491438e+00
 -2.00987172e+00 -2.01648151e+00 -2.02143885e+00 -2.02639619e+00
 -2.03135354e+00 -2.03631088e+00 -2.04292067e+00 -2.04787801e+00
 -2.05283535e+00 -2.05779269e+00 -2.06275004e+00 -2.06770738e+00
 -2.07431717e+00 -2.07927451e+00 -2.08423185e+00 -2.08918919e+00
 -2.09414654e+00 -2.10075633e+00 -2.10571367e+00 -2.11067101e+00]","[-3.07550904 -2.83573825 -2.55355901 -2.23386461 -1.88807271 -1.52433877
 -1.15081828 -0.77892888 -0.41030166 -0.05309211  0.29269979  0.62544294
  0.94513734  1.25341408  1.55027317  1.83734569  2.11300055  2.37886885
  2.6333195   2.87472139  3.09981234  3.31185455  3.50758581  3.68863723
  3.85827099  4.014856    4.16328555  4.30355962  4.43567822  4.56127245
  4.67871121  4.78147012  4.866287    4.92500638  4.94947279  4.93316185
  4.86954919  4.75374153  4.58247667  4.35738572  4.07846866  3.75388098
  3.39014705  2.99542234  2.57460012  2.13909805  1.69380943  1.24199643
  0.78855233  0.33510824 -0.11507367 -0.5603623  -1.00075764 -1.43136642
 -1.84566427 -2.24038898 -2.6073851  -2.93197278 -3.20762765 -3.41640766
 -3.54852627 -3.59093471 -3.53547751 -3.37726141 -3.11791748 -2.76233902
 -2.32194368 -1.8114113  -1.25031501 -0.65496574 -0.04819882  0.55041263
  1.12618876  1.66444974  2.14888462  2.57296902  2.93180967  3.2188822
  3.43744877  3.5891405   3.68048176  3.71636582  3.70821036  3.66253973
  3.5907716   3.49943034  3.39504033  3.28738814  3.18136704  3.08023922
  2.98889796  2.91223655  2.85025498  2.80784654  2.78501123  2.78174904
  2.79969107  2.83883732  2.89592561  2.97095593  3.059035    3.15853172
  3.26618392  3.3770983   3.48801268  3.59566488  3.6951616   3.77997849
  3.84848443  3.89741724  3.91862146  3.91372818  3.87947521  3.81586255
  3.72615239  3.61034472  3.47496393  3.32816548  3.17321157  3.01825765
  2.86982811  2.73444732  2.61863965  2.52403621  2.45226808  2.40333526
  2.37886885  2.37397557  2.38702432  2.41475292  2.45389917  2.50120089
  2.5517648   2.6055909   2.66104809  2.71650528  2.77196248  2.82741967
  2.88287686  2.93670296]",0.4857782118206263,2.9978281985139037,6.051629999999999,0.18493999999999922
011,1,1,csp,10a.png,1,1,288,188,289,1,1,287,pos_feedback_onset,13,"[ 1.74046935e+00  1.66485654e+00  1.55659275e+00  1.41224103e+00
  1.23523832e+00  1.02558462e+00  7.90153838e-01  5.35819849e-01
  2.71175023e-01  4.81172411e-03 -2.54677683e-01 -4.95263889e-01
 -7.13509947e-01 -9.04260438e-01 -1.06579689e+00 -1.19468236e+00
 -1.29779073e+00 -1.37855896e+00 -1.44042398e+00 -1.49197817e+00
 -1.54181388e+00 -1.59336807e+00 -1.65179615e+00 -1.72053506e+00
 -1.80130329e+00 -1.89238235e+00 -1.98689836e+00 -2.08313284e+00
 -2.16905649e+00 -2.23607693e+00 -2.27903876e+00 -2.28419417e+00
 -2.24295082e+00 -2.15187176e+00 -2.00236462e+00 -1.79099245e+00
 -1.51431832e+00 -1.17577916e+00 -7.75374971e-01 -3.19979653e-01
  1.83532905e-01  7.24851868e-01  1.29538487e+00  1.87966565e+00
  2.46394644e+00  3.03791639e+00  3.58610924e+00  4.09993264e+00
  4.56907574e+00  4.98666465e+00  5.34926243e+00  5.65343213e+00
  5.89917376e+00  6.09164272e+00  6.22912055e+00  6.31676267e+00
  6.35628755e+00  6.35456908e+00  6.31160725e+00  6.23599445e+00
  6.13116760e+00  6.00400060e+00  5.86652277e+00  5.72732647e+00
  5.59672253e+00  5.48502179e+00  5.40253509e+00  5.35613632e+00
  5.34926243e+00  5.38363189e+00  5.45580775e+00  5.56063460e+00
  5.68608312e+00  5.82356095e+00  5.95932031e+00  6.08476883e+00
  6.18615873e+00  6.25833459e+00  6.29614100e+00  6.29442252e+00
  6.25317917e+00  6.17756637e+00  6.06930257e+00  5.93354322e+00
  5.77888066e+00  5.61218878e+00  5.43862302e+00  5.26849421e+00
  5.10523928e+00  4.95401367e+00  4.82169125e+00  4.70827204e+00
  4.61547450e+00  4.54158017e+00  4.48658904e+00  4.44362722e+00
  4.40753928e+00  4.37316983e+00  4.33364495e+00  4.28037229e+00
  4.20475948e+00  4.09993264e+00  3.95901786e+00  3.77857820e+00
  3.55689520e+00  3.29396885e+00  2.99667304e+00  2.67016319e+00
  2.32990555e+00  1.98792945e+00  1.65626418e+00  1.35381295e+00
  1.08916812e+00  8.70922064e-01  7.05948666e-01  5.94247928e-01
  5.30664430e-01  5.08324283e-01  5.13479701e-01  5.37538322e-01
  5.68470834e-01  5.92529455e-01  6.04558765e-01  5.95966400e-01
  5.66752361e-01  5.16916647e-01  4.46459258e-01  3.63972559e-01
  2.71175023e-01  1.74940541e-01  8.04245315e-02 -8.93605906e-03
 -8.97042852e-02 -1.56724728e-01 -2.11715861e-01 -2.52959210e-01
 -2.75299358e-01 -2.78736304e-01 -2.59833102e-01 -2.11715861e-01
 -1.34384580e-01 -1.75284235e-02  1.38852610e-01  3.38195466e-01
  5.82218617e-01  8.69203591e-01  1.19227650e+00  1.54628191e+00
  1.91747206e+00  2.29553609e+00  2.66672624e+00  3.01729471e+00
  3.33521220e+00  3.60673091e+00  3.82669545e+00  3.98479495e+00
  4.08102943e+00  4.11539889e+00  4.08962180e+00  4.01229052e+00
  3.89199742e+00  3.73733485e+00  3.56205062e+00  3.37645555e+00
  3.18914200e+00  3.01042082e+00  2.84716589e+00  2.70453264e+00
  2.58767649e+00  2.49659742e+00  2.43473240e+00  2.40208141e+00
  2.39864447e+00  2.42270309e+00  2.47425728e+00  2.55158856e+00
  2.65297846e+00  2.77670851e+00  2.91934176e+00  3.07572279e+00
  3.23897771e+00  3.40223264e+00  3.55861367e+00  3.69952845e+00
  3.81810308e+00  3.90918214e+00  3.96932870e+00  3.99854273e+00
  3.99854273e+00  3.97276564e+00  3.92808535e+00  3.87309421e+00
  3.81294766e+00  3.75451958e+00  3.70124692e+00  3.65828510e+00
  3.62391564e+00  3.60157550e+00  3.58610924e+00  3.57923535e+00
  3.57751688e+00  3.57923535e+00  3.58610924e+00  3.59470160e+00
  3.60501244e+00  3.61704175e+00  3.63250801e+00  3.65141121e+00
  3.67546983e+00  3.70640234e+00  3.74592722e+00  3.79919988e+00
  3.86450185e+00  3.94527008e+00  4.04494150e+00  4.16179766e+00
  4.29240160e+00  4.43847180e+00  4.59141588e+00  4.74607844e+00
  4.89386711e+00  5.02962647e+00  5.14476416e+00  5.22896933e+00
  5.27880504e+00  5.28567893e+00  5.24959100e+00  5.16710430e+00
  5.03650036e+00  4.86465307e+00  4.65156244e+00  4.40582081e+00
  4.13430209e+00  3.84559865e+00  3.54658436e+00  3.24928855e+00
  2.95714816e+00  2.67875555e+00  2.42098462e+00  2.18555383e+00
  1.97933708e+00  1.80061590e+00  1.65110876e+00  1.53253413e+00
  1.44489201e+00  1.38990088e+00  1.36240531e+00  1.36412379e+00
  1.39333782e+00  1.44489201e+00  1.51706787e+00  1.60299152e+00
  1.69750753e+00  1.79717895e+00  1.89685038e+00  1.99136639e+00
  2.07729004e+00  2.15462132e+00  2.22164176e+00  2.27835137e+00]","[-8.17759848e-01 -7.28146492e-01 -6.35495395e-01 -5.41325427e-01
 -4.45636589e-01 -3.49947751e-01 -2.55777783e-01 -1.66164427e-01
 -7.95888114e-02  9.11322268e-04  7.68548446e-02  1.48241756e-01
  2.16590926e-01  2.81902355e-01  3.48732654e-01  4.20119565e-01
  4.96063088e-01  5.81119833e-01  6.73770930e-01  7.75535250e-01
  8.86412793e-01  1.00184695e+00  1.11879997e+00  1.23423412e+00
  1.34207393e+00  1.44080051e+00  1.52281951e+00  1.58813094e+00
  1.63673479e+00  1.66559333e+00  1.67774430e+00  1.67622542e+00
  1.66407446e+00  1.64281027e+00  1.61850835e+00  1.58964981e+00
  1.55927240e+00  1.52737612e+00  1.48940436e+00  1.44383825e+00
  1.38612117e+00  1.31017765e+00  1.21296994e+00  1.08842256e+00
  9.36535517e-01  7.54271064e-01  5.46185813e-01  3.16836375e-01
  7.22982332e-02 -1.78315390e-01 -4.27410144e-01 -6.62835063e-01
 -8.76995796e-01 -1.06381686e+00 -1.21722278e+00 -1.33721354e+00
 -1.42227029e+00 -1.47694962e+00 -1.50580816e+00 -1.51340251e+00
 -1.50428929e+00 -1.48454397e+00 -1.45872318e+00 -1.42986464e+00
 -1.39644949e+00 -1.36151547e+00 -1.32658145e+00 -1.28860969e+00
 -1.25063793e+00 -1.21418503e+00 -1.17925101e+00 -1.15039248e+00
 -1.13064716e+00 -1.12153394e+00 -1.12609055e+00 -1.14735474e+00
 -1.18684537e+00 -1.24304357e+00 -1.31443048e+00 -1.40252497e+00
 -1.49973268e+00 -1.60453474e+00 -1.71237454e+00 -1.82021434e+00
 -1.92197866e+00 -2.01614863e+00 -2.10120538e+00 -2.17563003e+00
 -2.23942259e+00 -2.29258305e+00 -2.33966804e+00 -2.38371528e+00
 -2.42472478e+00 -2.46725315e+00 -2.51585701e+00 -2.56901747e+00
 -2.62977229e+00 -2.69812146e+00 -2.77102724e+00 -2.84545189e+00
 -2.91683881e+00 -2.98366910e+00 -3.03986731e+00 -3.07935794e+00
 -3.10214100e+00 -3.10517874e+00 -3.08847117e+00 -3.05353715e+00
 -3.00341442e+00 -2.94569734e+00 -2.88342366e+00 -2.82418771e+00
 -2.77406498e+00 -2.73761209e+00 -2.72090452e+00 -2.72546113e+00
 -2.75280080e+00 -2.80444239e+00 -2.87886704e+00 -2.97303701e+00
 -3.08391455e+00 -3.20998080e+00 -3.34667914e+00 -3.49249070e+00
 -3.64285888e+00 -3.79778366e+00 -3.95422732e+00 -4.11218985e+00
 -4.27015237e+00 -4.42811490e+00 -4.58607743e+00 -4.74403995e+00
 -4.90200248e+00 -5.05996501e+00 -5.21337092e+00 -5.36373909e+00
 -5.50803179e+00 -5.64321126e+00 -5.76623976e+00 -5.87559843e+00]",4.3677995985647495,1.0197696177306799,5.819119999999999,0.2037500000000012
011,1,1,csm,51b.png,1,1,356,51,356,1,1,285,neu_feedback_onset,14,"[-4.53122472e-01 -5.03031147e-01 -5.32010378e-01 -5.35230292e-01
 -5.09470976e-01 -4.54732429e-01 -3.74234566e-01 -2.71197301e-01
 -1.50450506e-01 -2.16539252e-02  1.08752613e-01  2.31109365e-01
  3.37366545e-01  4.22694280e-01  4.80652741e-01  5.08022015e-01
  5.04802100e-01  4.70992997e-01  4.11424579e-01  3.29316758e-01
  2.29499408e-01  1.16802399e-01 -7.24480769e-04 -1.18251361e-01
 -2.29338412e-01 -3.27545805e-01 -4.08043668e-01 -4.64392173e-01
 -4.91761446e-01 -4.85321617e-01 -4.43462728e-01 -3.61354908e-01
 -2.38998156e-01 -7.63924722e-02  1.24852186e-01  3.59905946e-01
  6.23938938e-01  9.10511330e-01  1.21479325e+00  1.52873492e+00
  1.84267659e+00  2.15178838e+00  2.44802052e+00  2.72493317e+00
  2.97769646e+00  3.20309047e+00  3.39628535e+00  3.55406116e+00
  3.67641791e+00  3.76174564e+00  3.81004436e+00  3.81970411e+00
  3.79555475e+00  3.73759629e+00  3.64582872e+00  3.52508193e+00
  3.37535590e+00  3.19826060e+00  2.99701594e+00  2.77001197e+00
  2.51885864e+00  2.24677586e+00  1.95215368e+00  1.64143193e+00
  1.31461060e+00  9.78129536e-01  6.36818596e-01  2.93897698e-01
 -4.58032842e-02 -3.77454480e-01 -6.99445933e-01 -1.01016769e+00
 -1.30961974e+00 -1.59619213e+00 -1.86988486e+00 -2.12747803e+00
 -2.37058157e+00 -2.59275568e+00 -2.79239038e+00 -2.96304585e+00
 -3.09989221e+00 -3.20131952e+00 -3.26410785e+00 -3.28986717e+00
 -3.28020743e+00 -3.24317841e+00 -3.19004982e+00 -3.12887144e+00
 -3.07413290e+00 -3.04032379e+00 -3.03710388e+00 -3.07252294e+00
 -3.15302080e+00 -3.28020743e+00 -3.45247285e+00 -3.66659717e+00
 -3.91614055e+00 -4.19466315e+00 -4.49250525e+00 -4.80644691e+00
 -5.12843837e+00 -5.45203978e+00 -5.77725114e+00 -6.09763264e+00
 -6.41157430e+00 -6.71907614e+00 -7.01530828e+00 -7.29866076e+00
 -7.56269375e+00 -7.80418734e+00 -8.01509174e+00 -8.19057708e+00
 -8.32420353e+00 -8.40953127e+00 -8.44334037e+00 -8.42402088e+00
 -8.35318276e+00 -8.23243597e+00 -8.06500041e+00 -7.85892588e+00
 -7.62226217e+00 -7.35983913e+00 -7.07809661e+00 -6.78347443e+00
 -6.48080247e+00 -6.17491059e+00 -5.86579879e+00 -5.55507704e+00
 -5.24435529e+00 -4.93524349e+00 -4.62613170e+00 -4.32184978e+00
 -4.02078777e+00 -3.72455563e+00 -3.43315337e+00 -3.14980089e+00
 -2.87127828e+00 -2.59758555e+00 -2.32711273e+00 -2.05824986e+00
 -1.79099696e+00 -1.51891418e+00 -1.24522145e+00 -9.63478924e-01
 -6.76906532e-01 -3.82284352e-01 -8.28323012e-02  2.23059579e-01
  5.32171374e-01  8.42893125e-01  1.15200492e+00  1.45789680e+00
  1.75734885e+00  2.04553120e+00  2.32405381e+00  2.58969676e+00
  2.83924013e+00  3.07268394e+00  3.29002817e+00  3.48805291e+00
  3.66836812e+00  3.82936385e+00  3.97104009e+00  4.09178688e+00
  4.19160423e+00  4.27049214e+00  4.33006056e+00  4.37030949e+00
  4.39123893e+00  4.39606881e+00  4.38801902e+00  4.36547962e+00
  4.33489043e+00  4.29786141e+00  4.25600252e+00  4.21253368e+00
  4.16906483e+00  4.12720594e+00  4.08695701e+00  4.04831804e+00
  4.01289898e+00  3.98069983e+00  3.94850069e+00  3.91952146e+00
  3.89054223e+00  3.86317295e+00  3.83580368e+00  3.81004436e+00
  3.78267509e+00  3.75691577e+00  3.72954650e+00  3.70378718e+00
  3.67802787e+00  3.65226855e+00  3.62489928e+00  3.59913996e+00
  3.57338064e+00  3.54762133e+00  3.52186201e+00  3.49449274e+00
  3.46873342e+00  3.44297411e+00  3.41721479e+00  3.38984552e+00
  3.36408620e+00  3.33832688e+00  3.31256757e+00  3.28519829e+00
  3.25943898e+00  3.23367966e+00  3.20792035e+00  3.18055107e+00
  3.15479176e+00  3.12903244e+00  3.10327312e+00  3.07590385e+00
  3.05014453e+00  3.02438522e+00  2.99862590e+00  2.97286659e+00
  2.94549731e+00  2.91973800e+00  2.89397868e+00  2.86821936e+00
  2.84085009e+00  2.81509077e+00  2.78933146e+00  2.76357214e+00
  2.73620287e+00  2.71044355e+00  2.68468424e+00  2.65892492e+00
  2.63155565e+00  2.60579633e+00  2.58003701e+00  2.55427770e+00
  2.52851838e+00  2.50114911e+00  2.47538979e+00  2.44963047e+00
  2.42387116e+00  2.39650188e+00  2.37074257e+00  2.34498325e+00
  2.31922394e+00  2.29185466e+00  2.26609535e+00  2.24033603e+00
  2.21457671e+00  2.18720744e+00  2.16144812e+00  2.13568881e+00
  2.10992949e+00  2.08256022e+00  2.05680090e+00  2.03104159e+00
  2.00528227e+00  1.97952295e+00  1.95215368e+00  1.92639436e+00]","[ -0.70397469  -0.63170907  -0.56251859  -0.49332812  -0.4256752
  -0.35648472  -0.28729424  -0.21502863  -0.13968789  -0.06280958
   0.01714386   0.09863487   0.18166345   0.26622959   0.34925816
   0.4338243    0.51531531   0.59526876   0.67368463   0.74748781
   0.81975342   0.89048147   0.95813438   1.02578729   1.09651534
   1.17185608   1.25334709   1.3440635    1.4440053    1.5531725
   1.67002753   1.79303283   1.91911325   2.04058098   2.15282332
   2.25122755   2.32964343   2.38192068   2.40498417   2.39729634
   2.35578206   2.28505401   2.18357464   2.05441908   1.90066246
   1.72691748   1.5347217    1.32715027   1.10574073   0.87664337
   0.63985817   0.39692272   0.15244969  -0.09202334  -0.3349588
  -0.57328156  -0.80545405  -1.02993872  -1.24673555  -1.45276943
  -1.6495779   -1.83408584  -2.00936839  -2.17235041  -2.32456946
  -2.46602555  -2.59671868  -2.72126154  -2.83811657  -2.95035891
  -3.06106367  -3.17330601  -3.2916986   -3.41777903  -3.55769756
  -3.71145418  -3.88212402  -4.07124467  -4.2788161   -4.5017632
  -4.74008597  -4.99070926  -5.24748281  -5.5073315   -5.76410506
  -6.01472835  -6.25612624  -6.4852236   -6.69894531  -6.89882891
  -7.08333686  -7.25093157  -7.40315063  -7.53845645  -7.65377392
  -7.74910302  -7.8182935   -7.86134536  -7.87210832  -7.85211996
  -7.79984271  -7.72142683  -7.61994746  -7.50770513  -7.39238766
  -7.2862956   -7.20172945  -7.14791464  -7.13253898  -7.1632903
  -7.23863104  -7.36163634  -7.52769349  -7.73372736  -7.97205012
  -8.23804907  -8.52249882  -8.81617397  -9.11138668  -9.39891156
  -9.67106077  -9.92322163 -10.1477063  -10.3429772  -10.50749679
 -10.64434018 -10.75504495 -10.84268622 -10.9118767  -10.96722908
 -11.01028094 -11.04103226 -11.05948305 -11.05948305 -11.03949469
 -10.99183014 -10.91341427 -10.7980968  -10.64587775 -10.4567571 ]",3.5924988871170163,1.250579470262279,6.2113450000000014,0.020850000000000257
011,2,1,csm,9b.png,1,0,100,215,100,1,1,525,neu_feedback_onset,1,"[-3.66200350e-01 -2.60194986e-01 -1.62220331e-01 -7.06702430e-02
  1.12429932e-02  8.03070943e-02  1.38128202e-01  1.79887891e-01
  2.03980020e-01  2.13616871e-01  2.05586161e-01  1.83100175e-01
  1.49371195e-01  1.02793081e-01  4.97903985e-02 -9.63685132e-03
 -7.06702430e-02 -1.33309777e-01 -1.94343168e-01 -2.50558134e-01
 -2.97136249e-01 -3.32471371e-01 -3.51745073e-01 -3.51745073e-01
 -3.29259087e-01 -2.82680972e-01 -2.10404587e-01 -1.15642216e-01
  1.60614189e-03  1.33309777e-01  2.74650263e-01  4.17596891e-01
  5.54118951e-01  6.74579592e-01  7.74160389e-01  8.48042916e-01
  8.93014889e-01  9.10682450e-01  9.07470166e-01  8.88196463e-01
  8.62498193e-01  8.41618349e-01  8.35193781e-01  8.51255200e-01
  8.93014889e-01  9.63685132e-01  1.06326593e+00  1.18533271e+00
  1.32185477e+00  1.46640754e+00  1.60774803e+00  1.73784552e+00
  1.84866931e+00  1.93379483e+00  1.99000980e+00  2.01731421e+00
  2.01892035e+00  1.99482822e+00  1.95306853e+00  1.89845971e+00
  1.83903246e+00  1.78281749e+00  1.73623938e+00  1.70572268e+00
  1.69769197e+00  1.71214725e+00  1.75390694e+00  1.81975876e+00
  1.90809656e+00  2.01410193e+00  2.13135028e+00  2.25341707e+00
  2.37387771e+00  2.48309536e+00  2.57946387e+00  2.65655868e+00
  2.71437979e+00  2.75132105e+00  2.76898861e+00  2.77220090e+00
  2.76095790e+00  2.74329034e+00  2.72080436e+00  2.69831837e+00
  2.68225695e+00  2.67262010e+00  2.67583238e+00  2.69189380e+00
  2.72080436e+00  2.76577633e+00  2.82038515e+00  2.88623697e+00
  2.95690721e+00  3.02757746e+00  3.09503542e+00  3.15285652e+00
  3.19622235e+00  3.22352677e+00  3.22995133e+00  3.21710220e+00
  3.18497936e+00  3.13518896e+00  3.06933715e+00  2.99224233e+00
  2.90551067e+00  2.81074830e+00  2.70956136e+00  2.60355600e+00
  2.49273221e+00  2.37869613e+00  2.26144778e+00  2.14419942e+00
  2.03016334e+00  1.92255184e+00  1.82618333e+00  1.74748237e+00
  1.68966126e+00  1.65432614e+00  1.64308315e+00  1.65593229e+00
  1.68644898e+00  1.73302710e+00  1.78602978e+00  1.83903246e+00
  1.88721672e+00  1.92094570e+00  1.94021940e+00  1.94021940e+00
  1.91933955e+00  1.87918601e+00  1.82457718e+00  1.75390694e+00
  1.67359985e+00  1.58526204e+00  1.49049967e+00  1.39413116e+00
  1.29455036e+00  1.19496956e+00  1.09699491e+00  9.99020253e-01
  9.05864024e-01  8.15920078e-01  7.30794558e-01  6.53699748e-01
  5.86241789e-01  5.28420681e-01  4.80236424e-01  4.40082877e-01
  4.09566181e-01  3.83867911e-01  3.62988066e-01  3.42108222e-01
  3.22834519e-01  3.01954675e-01  2.81074830e-01  2.58588844e-01
  2.36102857e-01  2.15223013e-01  1.99161594e-01  1.84706317e-01
  1.75069466e-01  1.70251040e-01  1.67038756e-01  1.67038756e-01
  1.65432614e-01  1.63826472e-01  1.59008047e-01  1.50977337e-01
  1.39734344e-01  1.26885209e-01  1.09217648e-01  8.99439456e-02
  6.90641011e-02  4.81842566e-02  2.56982702e-02  4.81842566e-03
 -1.60614189e-02 -3.37289796e-02 -4.81842566e-02 -5.94272498e-02
 -6.74579592e-02 -6.90641011e-02 -6.42456755e-02 -5.62149660e-02
 -4.17596891e-02 -2.56982702e-02 -8.03070943e-03  9.63685132e-03
  2.40921283e-02  3.37289796e-02  3.85474053e-02  3.37289796e-02
  2.24859864e-02  0.00000000e+00 -3.05166958e-02 -6.90641011e-02
 -1.15642216e-01 -1.68644898e-01 -2.24859864e-01 -2.84287114e-01
 -3.43714364e-01 -3.98323188e-01 -4.49719728e-01 -4.93085559e-01
 -5.26814539e-01 -5.50906667e-01 -5.63755802e-01 -5.63755802e-01
 -5.54118951e-01 -5.34845248e-01 -5.05934694e-01 -4.68993431e-01
 -4.27233742e-01 -3.82261769e-01 -3.37289796e-01 -2.92317823e-01
 -2.47345851e-01 -2.07192303e-01 -1.70251040e-01 -1.34915918e-01
 -1.04399223e-01 -7.54886687e-02 -4.81842566e-02 -2.24859864e-02
  1.60614189e-03  2.89105540e-02  5.62149660e-02  8.67316619e-02
  1.20460641e-01  1.60614189e-01  2.07192303e-01  2.61801128e-01
  3.27652945e-01  3.99929330e-01  4.83448708e-01  5.71786512e-01
  6.66548883e-01  7.61311254e-01  8.51255200e-01  9.33168436e-01
  1.00223254e+00  1.05202294e+00  1.07932735e+00  1.07932735e+00
  1.05041679e+00  9.89383402e-01  8.96227173e-01  7.69341964e-01
  6.15152343e-01  4.33658309e-01  2.31284432e-01  1.28491351e-02
 -2.13616871e-01 -4.44901303e-01 -6.71367309e-01 -8.89802605e-01
 -1.09699491e+00 -1.28812579e+00 -1.46158912e+00 -1.61899102e+00]","[-0.56601102 -0.38392884 -0.19873414 -0.01353944  0.1623177   0.32572479
  0.465788    0.57783858  0.65409521  0.68366412  0.66498902  0.5918449
  0.46267549  0.28059331  0.05337965 -0.20807169 -0.48819812 -0.76988081
 -1.0328884  -1.26165832 -1.43751547 -1.54956604 -1.58847249 -1.55579107
 -1.45307804 -1.2881147  -1.07490736 -0.82901861 -0.56756727 -0.30455968
 -0.05711467  0.16387396  0.34906866  0.49224439  0.5918449   0.64942644
  0.66654528  0.64942644  0.6027387   0.5327071   0.44400039  0.34284363
  0.23390557  0.12029874  0.00669191 -0.10380241 -0.20807169 -0.30144716
 -0.38237258 -0.44773541 -0.49597941 -0.52710457 -0.54111089 -0.53799837
 -0.52087953 -0.49131063 -0.45707296 -0.41972277 -0.38704135 -0.36214122
 -0.35124742 -0.35902871 -0.38548509 -0.43372909 -0.50220444 -0.58935488
 -0.68895539 -0.79478093 -0.89905022 -0.98931318 -1.05934478 -1.09980749
 -1.10136375 -1.06401356 -0.9846444  -0.86792506 -0.72163681 -0.55511721
 -0.38392884 -0.21896549 -0.07578976  0.03470455  0.10473616  0.12652377
  0.10006739  0.025367   -0.09446486 -0.25164691 -0.43839786 -0.64693643
 -0.86792506 -1.09513872 -1.31923986 -1.53555972 -1.73631699 -1.91995543
 -2.08180626 -2.22186947 -2.33858882 -2.43352055 -2.50822093 -2.56580248
 -2.61093396 -2.64984041 -2.6871906  -2.72920956 -2.77900982 -2.83970388
 -2.91440426 -3.0015547  -3.09959895 -3.20231198 -3.305025   -3.39995674
 -3.47932589 -3.53690744 -3.56492008 -3.5602513  -3.5197886  -3.44508822
 -3.33926268 -3.21009327 -3.06536128 -2.912848   -2.76033472 -2.61715899
 -2.48643332 -2.37127023 -2.27322598 -2.18918805 -2.11604393 -2.04912484
 -1.98531826 -1.91839917 -1.84525505 -1.76588589 -1.67717919 -1.5806912
 -1.47953443 -1.37526515]",2.6759528436742146,-0.39117348449856026,6.2261,0.0016300000000004644
011,2,1,csm,53b.png,1,1,216,131,215,1,1,227,neu_feedback_onset,2,"[ 0.87824774  0.76602185  0.65379596  0.5431733   0.43736032  0.33475379
  0.23856017  0.14717624  0.05899875 -0.02436905 -0.1045304  -0.17988207
 -0.25202728 -0.32096604 -0.38669835 -0.4492242  -0.5085436  -0.56305331
 -0.61275335 -0.65604048 -0.69131147 -0.71535988 -0.72497924 -0.71856633
 -0.69451793 -0.6512308  -0.59030817 -0.51335328 -0.42517579 -0.3305854
 -0.23759824 -0.15102398 -0.07887877 -0.02597228  0.00609226  0.01571162
  0.00609226 -0.0211626  -0.05803682 -0.10132394 -0.14300785 -0.17827884
 -0.20393047 -0.21675629 -0.21835951 -0.20713693 -0.18950143 -0.16545302
 -0.14140462 -0.11895944 -0.10292717 -0.09330781 -0.09170458 -0.09651426
 -0.10613363 -0.11895944 -0.13178526 -0.14140462 -0.14300785 -0.13659494
 -0.12056267 -0.09491104 -0.05803682 -0.01154323  0.03976003  0.09587297
  0.15519237  0.216115    0.27703762  0.33956347  0.40369255  0.47102809
  0.54477653  0.62333465  0.7099089   0.80129284  0.89748646  0.99207685
  1.08346079  1.16362214  1.22775122  1.27103835  1.28707062  1.27264157
  1.22614799  1.14598664  1.03215753  0.8878671   0.71632181  0.52393458
  0.31551507  0.0974762  -0.12056267 -0.33218863 -0.52778232 -0.70093083
 -0.84361803 -0.95103424 -1.01836977 -1.04402141 -1.02798914 -0.9782891
 -0.89973098 -0.80193413 -0.69612115 -0.59511785 -0.51014682 -0.45563711
 -0.43639838 -0.46365324 -0.53740168 -0.65924693 -0.82598254 -1.03119559
 -1.26847318 -1.52819595 -1.79914131 -2.07008667 -2.33301589 -2.57830962
 -2.79955494 -2.99194218 -3.15547133 -3.28693594 -3.38954247 -3.46970382
 -3.52902322 -3.5755168  -3.61399425 -3.64926524 -3.68613946 -3.72461691
 -3.76950726 -3.8192073  -3.87371702 -3.93303642 -3.99395904 -4.05488167
 -4.11740752 -4.17833014 -4.23925277 -4.29857217 -4.35789156 -4.41560774
 -4.47492713 -4.53104008 -4.58715302 -4.63845628 -4.68655309 -4.72984022
 -4.76671444 -4.79877898 -4.82443061 -4.84847902 -4.87252742 -4.89817905
 -4.92864037 -4.96711781 -5.01521462 -5.06972434 -5.13064697 -5.19477605
 -5.25890512 -5.31982775 -5.37594069 -5.42083105 -5.45770527 -5.4833569
 -5.49778594 -5.50259562 -5.49778594 -5.48656335 -5.46892786 -5.44487945
 -5.42083105 -5.39517942 -5.37273424 -5.35509874 -5.34547938 -5.34227293
 -5.34708261 -5.35990842 -5.37433747 -5.39036974 -5.39838587 -5.39678264
 -5.37594069 -5.33105034 -5.26050835 -5.16110828 -5.03285012 -4.8773371
 -4.69777568 -4.49897554 -4.29055603 -4.07732684 -3.86730411 -3.66690074
 -3.48092641 -3.31579403 -3.17471006 -3.06248417 -2.97751314 -2.92300342
 -2.90216147 -2.91178083 -2.95186151 -3.02080027 -3.11699389 -3.23402945
 -3.37030375 -3.51940386 -3.6765201  -3.83203312 -3.98433968 -4.12542365
 -4.24887213 -4.34666898 -4.41400451 -4.44125937 -4.42041742 -4.34346252
 -4.20718823 -4.00678486 -3.74385563 -3.42641669 -3.06569062 -2.67931292
 -2.28652231 -1.90816075 -1.56507017 -1.27328286 -1.04081495 -0.87568257
 -0.77788573 -0.73780505 -0.75063087 -0.80193413 -0.87888903 -0.97347942
 -1.07287949 -1.16907311 -1.25885382 -1.33741194 -1.40314425 -1.45444751
 -1.49132173 -1.51376691 -1.5249895  -1.5249895  -1.51376691 -1.49452819
 -1.46887655 -1.43681202 -1.40154102 -1.36627003 -1.32939581 -1.29412481
 -1.26206027 -1.23320219]","[-1.69958454e-01 -1.29249842e-01 -8.22783671e-02 -3.06097445e-02
  2.41903096e-02  7.89903638e-02  1.32224702e-01  1.79196177e-01
  2.18339073e-01  2.43390526e-01  2.51219105e-01  2.40259095e-01
  2.07379062e-01  1.51013292e-01  7.27275005e-02 -2.59125970e-02
 -1.43341285e-01 -2.71729983e-01 -4.06381545e-01 -5.39467390e-01
 -6.63158941e-01 -7.68061902e-01 -8.43216262e-01 -8.82359158e-01
 -8.76096295e-01 -8.19730525e-01 -7.06998985e-01 -5.39467390e-01
 -3.21832890e-01 -5.87926295e-02  2.38693379e-01  5.56533693e-01
  8.80636871e-01  1.19378004e+00  1.48343747e+00  1.73551772e+00
  1.93749506e+00  2.08310663e+00  2.16922100e+00  2.19896960e+00
  2.17235243e+00  2.10032950e+00  1.99229511e+00  1.85764355e+00
  1.70890055e+00  1.55859183e+00  1.41767740e+00  1.29242013e+00
  1.19534575e+00  1.12801997e+00  1.09670566e+00  1.09827137e+00
  1.13115140e+00  1.19221432e+00  1.27206583e+00  1.36287735e+00
  1.45525458e+00  1.53980324e+00  1.60869473e+00  1.65253478e+00
  1.66819193e+00  1.64940334e+00  1.59930044e+00  1.51475178e+00
  1.40358596e+00  1.26893440e+00  1.11862568e+00  9.58922662e-01
  7.97653931e-01  6.37950916e-01  4.87642196e-01  3.48293487e-01
  2.19904789e-01  1.05607533e-01  2.27028796e-03 -9.32383779e-02
 -1.84049896e-01 -2.71729983e-01 -3.62541501e-01 -4.56484451e-01
 -5.58255980e-01 -6.66290373e-01 -7.83719060e-01 -9.08976327e-01
 -1.03736503e+00 -1.16888516e+00 -1.29883957e+00 -1.42566255e+00
 -1.54309124e+00 -1.65269135e+00 -1.74820001e+00 -1.83118295e+00
 -1.90164017e+00 -1.95800594e+00 -2.00028026e+00 -2.03159458e+00
 -2.05038317e+00 -2.05821175e+00 -2.05351460e+00 -2.03785744e+00
 -2.00967456e+00 -1.96896595e+00 -1.91729732e+00 -1.85936584e+00
 -1.79673720e+00 -1.73880572e+00 -1.69183424e+00 -1.66521707e+00
 -1.66521707e+00 -1.70279425e+00 -1.78108005e+00 -1.90477160e+00
 -2.07543462e+00 -2.29150341e+00 -2.54828080e+00 -2.84106967e+00
 -3.16360713e+00 -3.50963033e+00 -3.87131068e+00 -4.24238534e+00
 -4.62128857e+00 -5.00019180e+00 -5.37596360e+00 -5.74390682e+00
 -6.09932432e+00 -6.43595322e+00 -6.75222782e+00 -7.04031953e+00
 -7.29709693e+00 -7.51629714e+00 -7.69792018e+00 -7.84040032e+00
 -7.94217185e+00 -8.00636620e+00 -8.03611480e+00 -8.03141765e+00
 -8.00010334e+00 -7.94373757e+00 -7.86701749e+00 -7.77464026e+00]",0.3050940933911598,0.890970595073793,6.237420000000001,0.051005000000000855
011,2,1,csm,34b.png,1,1,204,227,205,1,1,371,neu_feedback_onset,3,"[-9.58707632e-01 -8.29979380e-01 -6.96483414e-01 -5.56630498e-01
 -4.13599107e-01 -2.70567715e-01 -1.30714799e-01  1.19192826e-03
  1.20384754e-01  2.20506728e-01  3.01557850e-01  3.60359644e-01
  3.96912111e-01  4.12804488e-01  4.11215250e-01  3.95322874e-01
  3.68305833e-01  3.33342604e-01  2.90433186e-01  2.44345294e-01
  1.95078926e-01  1.41044844e-01  8.38322877e-02  2.50304935e-02
 -3.85390138e-02 -1.03697759e-01 -1.70445741e-01 -2.37193724e-01
 -3.03941707e-01 -3.69100452e-01 -4.34259197e-01 -4.99417942e-01
 -5.64576687e-01 -6.36092382e-01 -7.13965029e-01 -8.01373101e-01
 -9.01495075e-01 -1.01433095e+00 -1.14305920e+00 -1.28450136e+00
 -1.43865741e+00 -1.60393813e+00 -1.77557580e+00 -1.95515966e+00
 -2.13792199e+00 -2.32704128e+00 -2.52251751e+00 -2.72752917e+00
 -2.94207626e+00 -3.17251572e+00 -3.42043680e+00 -3.68425026e+00
 -3.96713456e+00 -4.26591125e+00 -4.57899107e+00 -4.90319556e+00
 -5.23375700e+00 -5.56908615e+00 -5.90123682e+00 -6.22703055e+00
 -6.54169961e+00 -6.83570858e+00 -7.10270051e+00 -7.33472921e+00
 -7.52067002e+00 -7.65257675e+00 -7.72250321e+00 -7.72250321e+00
 -7.64939827e+00 -7.50318841e+00 -7.28864132e+00 -7.01052473e+00
 -6.67996329e+00 -6.30967091e+00 -5.91236149e+00 -5.50551664e+00
 -5.10343951e+00 -4.71566551e+00 -4.35490856e+00 -4.03070407e+00
 -3.75099824e+00 -3.51738030e+00 -3.33461797e+00 -3.20112200e+00
 -3.11530317e+00 -3.07398299e+00 -3.06921527e+00 -3.09782155e+00
 -3.15185563e+00 -3.22337133e+00 -3.30442245e+00 -3.39183052e+00
 -3.47606012e+00 -3.55711124e+00 -3.63021618e+00 -3.69219645e+00
 -3.74305205e+00 -3.78278299e+00 -3.81138927e+00 -3.83204936e+00
 -3.84476326e+00 -3.84953098e+00 -3.85112021e+00 -3.84635250e+00
 -3.83840631e+00 -3.82728165e+00 -3.80980003e+00 -3.78913994e+00
 -3.76371214e+00 -3.73351663e+00 -3.69696416e+00 -3.65405474e+00
 -3.60478837e+00 -3.54916505e+00 -3.48718478e+00 -3.41725833e+00
 -3.33779644e+00 -3.25038837e+00 -3.15344487e+00 -3.04696595e+00
 -2.93095160e+00 -2.80699106e+00 -2.67667357e+00 -2.54317760e+00
 -2.40968164e+00 -2.27777491e+00 -2.15540361e+00 -2.04097849e+00
 -1.94085652e+00 -1.85503768e+00 -1.78193275e+00 -1.71995248e+00
 -1.66432916e+00 -1.61347356e+00 -1.55943948e+00 -1.49904844e+00
 -1.42912199e+00 -1.34648163e+00 -1.25112737e+00 -1.14464844e+00
 -1.02704485e+00 -9.04673551e-01 -7.80713011e-01 -6.61520185e-01
 -5.50273548e-01 -4.51740811e-01 -3.69100452e-01 -3.07120182e-01
 -2.67389240e-01 -2.53086101e-01 -2.64210765e-01 -3.00763231e-01
 -3.65921976e-01 -4.58097762e-01 -5.74112113e-01 -7.15554267e-01
 -8.76067272e-01 -1.05088342e+00 -1.23841346e+00 -1.43071122e+00
 -1.62141975e+00 -1.80736055e+00 -1.98217670e+00 -2.14110047e+00
 -2.27936415e+00 -2.39378926e+00 -2.48119733e+00 -2.54158836e+00
 -2.57178388e+00 -2.57337312e+00 -2.54794531e+00 -2.49708971e+00
 -2.42875249e+00 -2.34452289e+00 -2.25234711e+00 -2.16017132e+00
 -2.07276325e+00 -1.99806908e+00 -1.93926728e+00 -1.90112558e+00
 -1.88205473e+00 -1.88205473e+00 -1.89953634e+00 -1.92973186e+00
 -1.96787356e+00 -2.01078298e+00 -2.05210316e+00 -2.09024486e+00
 -2.12361885e+00 -2.14745742e+00 -2.16493903e+00 -2.17129598e+00
 -2.17129598e+00 -2.16493903e+00 -2.15222513e+00 -2.13792199e+00
 -2.12361885e+00 -2.11090495e+00 -2.10454800e+00 -2.10454800e+00
 -2.11408343e+00 -2.13156504e+00 -2.15858208e+00 -2.19195607e+00
 -2.23168702e+00 -2.27459643e+00 -2.31750585e+00 -2.35882603e+00
 -2.40014621e+00 -2.43828791e+00 -2.47960809e+00 -2.52251751e+00
 -2.57178388e+00 -2.63217491e+00 -2.70210137e+00 -2.78474173e+00
 -2.87691751e+00 -2.97703949e+00 -3.08192918e+00 -3.18522962e+00
 -3.28217312e+00 -3.36799196e+00 -3.43950765e+00 -3.49195250e+00
 -3.52532649e+00 -3.53962963e+00 -3.53804039e+00 -3.51896954e+00
 -3.48718478e+00 -3.44586460e+00 -3.39977671e+00 -3.34733187e+00
 -3.29647626e+00 -3.24403142e+00 -3.19317581e+00 -3.14549868e+00
 -3.09941079e+00 -3.05650137e+00 -3.01200272e+00 -2.96750406e+00
 -2.92141617e+00 -2.86897133e+00 -2.81334801e+00 -2.74977850e+00
 -2.67826280e+00 -2.60039016e+00 -2.51298209e+00 -2.42239554e+00
 -2.32545204e+00 -2.22691930e+00 -2.12679733e+00 -2.02985383e+00
 -1.93608881e+00 -1.85026997e+00 -1.77239733e+00 -1.70564934e+00
 -1.65002602e+00 -1.60870584e+00 -1.58168880e+00 -1.56738566e+00]","[  0.84380693   0.7796629    0.71395438   0.6419879    0.56845694
   0.48866802   0.40262114   0.30562285   0.19923762   0.08190098
  -0.0448226   -0.17780413  -0.31235015  -0.44220271  -0.55797486
  -0.65027969  -0.71285924  -0.73789105  -0.72381066  -0.66592458
  -0.56892628  -0.43594475  -0.2779314   -0.10427317   0.07564302
   0.25243024   0.41513705   0.55594103   0.6701487    0.75619557
   0.81408165   0.84380693   0.8485004    0.83598449   0.81095267
   0.77809841   0.74367966   0.7108254    0.68579358   0.67171319
   0.66858421   0.67640665   0.69518051   0.72021233   0.74680864
   0.76714699   0.77184046   0.75306659   0.69830949   0.59974671
   0.4495558    0.24304331  -0.0166618   -0.32955953  -0.68469844
  -1.07112713  -1.4732007   -1.87840325  -2.27265438  -2.64500267
  -2.98606119  -3.29270096  -3.56492198  -3.80272424  -4.01080123
  -4.19228191  -4.34873077  -4.48640577  -4.60687139  -4.70856315
  -4.79304554  -4.86031855  -4.91507565  -4.95575235  -4.9901711
  -5.02302536  -5.06213758  -5.11533019  -5.19199013  -5.29524638
  -5.43292138  -5.60345064  -5.80526967  -6.03524949  -6.28713216
  -6.55309522  -6.82688073  -7.10223073  -7.37601623  -7.64510827
  -7.90794236  -8.162954    -8.41170769  -8.65420343  -8.88887672
  -9.11416308  -9.32693353  -9.52562359  -9.70553978  -9.86198864
  -9.99184119 -10.09353295 -10.16706392 -10.2108696  -10.22651448
 -10.21556306 -10.18114431 -10.12482272 -10.05129176  -9.9636804
  -9.86042415  -9.74778097  -9.62418637  -9.49276932  -9.35509433
  -9.21272586  -9.06566393  -8.91547303  -8.76215314  -8.60570428
  -8.44612644  -8.28185514  -8.11289037  -7.93766764  -7.75618697
  -7.56688384  -7.37288726  -7.1741972   -6.97237817  -6.77055914
  -6.5703046   -6.37317903  -6.18231142  -5.99770177  -5.82091455
  -5.65194978  -5.49080746  -5.33748757  -5.19355462  -5.05744411]",-0.06897532335267956,0.30171162876562524,6.292325,0.25192000000000103
011,2,1,csp,2a.png,1,1,124,52,126,1,1,292,pos_feedback_onset,4,"[ 0.44841885  0.42245648  0.38838086  0.34456936  0.28777667  0.22124809
  0.14660627  0.06547386 -0.01403591 -0.09030038 -0.15682896 -0.211999
