sub,run,cat_cond,trial_type,picture,old,response_old,target_pos,response_pos,dot_resp_loc,cat_corr,TN_corr,TN_rt,feedback_type,trial,SP_timeseries,FB_timeseries,SP_peak_response,FB_peak_response,preStim_bl,anticipation
009,1,1,csp,7a.png,1,1,292,306,289,1,1,383,pos_feedback_onset,1,"[ 2.01902040e+00  1.66465173e+00  1.33377711e+00  1.03227006e+00
  7.56214912e-01  5.11485167e-01  2.94165153e-01  1.02297033e-01
 -6.41191932e-02 -2.08999202e-01 -3.38216508e-01 -4.51771109e-01
 -5.51620845e-01 -6.45597067e-01 -7.29784099e-01 -8.08097618e-01
 -8.82495460e-01 -9.51019789e-01 -1.01367060e+00 -1.06849007e+00
 -1.11352034e+00 -1.14876142e+00 -1.17225548e+00 -1.18204467e+00
 -1.17421332e+00 -1.15071926e+00 -1.10764683e+00 -1.04499601e+00
 -9.62766817e-01 -8.62917081e-01 -7.45446803e-01 -6.14271660e-01
 -4.69391651e-01 -3.14722452e-01 -1.52221901e-01  1.41943252e-02
  1.84526228e-01  3.54858130e-01  5.25190033e-01  6.97479773e-01
  8.69769514e-01  1.04597493e+00  1.22413818e+00  1.40817495e+00
  1.59612740e+00  1.79386903e+00  1.99552634e+00  2.20305716e+00
  2.41450366e+00  2.62595016e+00  2.83543882e+00  3.03905397e+00
  3.23287993e+00  3.41691670e+00  3.58724860e+00  3.74191780e+00
  3.88483997e+00  4.01209944e+00  4.13152755e+00  4.24116648e+00
  4.35080541e+00  4.46044433e+00  4.57791461e+00  4.70517408e+00
  4.84613841e+00  5.00472328e+00  5.18092870e+00  5.37671250e+00
  5.58815900e+00  5.81526820e+00  6.05216659e+00  6.29493850e+00
  6.53575257e+00  6.77069312e+00  6.98997098e+00  7.18967045e+00
  7.36391803e+00  7.50488236e+00  7.61256345e+00  7.68500345e+00
  7.72220237e+00  7.72807589e+00  7.70458183e+00  7.66150940e+00
  7.60277426e+00  7.54012344e+00  7.47943046e+00  7.42852668e+00
  7.39328559e+00  7.37762289e+00  7.38349640e+00  7.41090614e+00
  7.45789425e+00  7.51858722e+00  7.58515371e+00  7.65563588e+00
  7.72024453e+00  7.77506400e+00  7.81422076e+00  7.83771481e+00
  7.84358833e+00  7.83771481e+00  7.82205211e+00  7.80247373e+00
  7.79072670e+00  7.78876886e+00  7.80443157e+00  7.84358833e+00
  7.91015482e+00  8.00217320e+00  8.11964348e+00  8.26060781e+00
  8.41723485e+00  8.58560891e+00  8.75789865e+00  8.92823055e+00
  9.08877327e+00  9.23952679e+00  9.37070193e+00  9.48229870e+00
  9.57040141e+00  9.63501006e+00  9.67220898e+00  9.68395601e+00
  9.66829330e+00  9.62913654e+00  9.56648573e+00  9.48621437e+00
  9.39223815e+00  9.29043058e+00  9.19058084e+00  9.09856246e+00
  9.02416462e+00  8.97521867e+00  8.95564029e+00  8.97130299e+00
  9.02612245e+00  9.11814084e+00  9.24735814e+00  9.40594302e+00
  9.58997979e+00  9.78772142e+00  9.99329440e+00  1.01929939e+01
  1.03789885e+01  1.05434469e+01  1.06765799e+01  1.07705561e+01
  1.08195020e+01  1.08234177e+01  1.07823031e+01  1.06922426e+01
  1.05630253e+01  1.03966090e+01  1.02008252e+01  9.98546305e+00
  9.75639601e+00  9.52537113e+00  9.30021977e+00  9.08681543e+00
  8.89298947e+00  8.72265757e+00  8.57777756e+00  8.46226512e+00
  8.37416241e+00  8.31151160e+00  8.27627051e+00  8.26060781e+00
  8.26256565e+00  8.28018619e+00  8.30955376e+00  8.34675268e+00
  8.38786728e+00  8.43485539e+00  8.48380134e+00  8.53470513e+00
  8.59148243e+00  8.65413324e+00  8.72461541e+00  8.80684460e+00
  8.90473650e+00  9.02024894e+00  9.15533976e+00  9.31588247e+00
  9.49796140e+00  9.70353439e+00  9.92868575e+00  1.01753733e+01
  1.04377236e+01  1.07118209e+01  1.09937496e+01  1.12795939e+01
  1.15654383e+01  1.18454091e+01  1.21195064e+01  1.23798989e+01
  1.26285443e+01  1.28595692e+01  1.30729735e+01  1.32667995e+01
  1.34410471e+01  1.35937584e+01  1.37288492e+01  1.38482773e+01
  1.39559584e+01  1.40577660e+01  1.41576157e+01  1.42633390e+01
  1.43788514e+01  1.45061109e+01  1.46470752e+01  1.48037023e+01
  1.49720763e+01  1.51502396e+01  1.53303607e+01  1.55065661e+01
  1.56749402e+01  1.58296094e+01  1.59647002e+01  1.60802126e+01
  1.61722310e+01  1.62407553e+01  1.62838278e+01  1.63014483e+01
  1.62916591e+01  1.62525024e+01  1.61800624e+01  1.60762969e+01
  1.59333748e+01  1.57571694e+01  1.55418072e+01  1.52951196e+01
  1.50229801e+01  1.47293044e+01  1.44277974e+01  1.41243325e+01
  1.38345725e+01  1.35643908e+01  1.33274925e+01  1.31258351e+01
  1.29672503e+01  1.28536957e+01  1.27851713e+01  1.27577616e+01
  1.27675508e+01  1.28086654e+01  1.28713162e+01  1.29496297e+01
  1.30338168e+01  1.31140881e+01  1.31845703e+01  1.32354741e+01
  1.32609260e+01  1.32570103e+01  1.32217692e+01  1.31552027e+01
  1.30592686e+01  1.29378827e+01  1.27988762e+01  1.26500805e+01]","[-3.33561662 -3.04989044 -2.74145754 -2.41221016 -2.06782496 -1.70830195
 -1.33931781 -0.96654922 -0.58999618 -0.21344313  0.16310991  0.5358785
  0.90675487  1.27763124  1.65039983  2.02316842  2.39782924  2.77627451
  3.15661201  3.5369495   3.91917923  4.30140895  4.67985422  5.05640727
  5.43106809  5.80005223  6.16525191  6.52666715  6.88051347  7.22489867
  7.55603828  7.86636341  8.15208959  8.40375569  8.61379282  8.77841651
  8.89384232  8.95439356  8.96196247  8.92222571  8.83896775  8.72164972
  8.57973274  8.42457018  8.26373094  8.10856838  7.96286695  7.83041111
  7.7149853   7.61091285  7.51251708  7.41033685  7.2986955   7.16434743
  7.00161596  6.80860887  6.58532616  6.33744451  6.07631727  5.81708226
  5.57298506  5.36105571  5.19264757  5.07911398  5.02234719  5.02423942
  5.08100621  5.18697089  5.33267232  5.50864937  5.70165645  5.90034022
  6.09523954  6.27121659  6.41691802  6.52666715  6.59289507  6.61181733
  6.58154171  6.50774488  6.39231907  6.24094097  6.06117946  5.8624957
  5.64488966  5.4178225   5.18507866  4.94476591  4.70256094  4.45846374
  4.21058209  3.96270043  3.71481878  3.4650449   3.21716325  2.96738937
  2.71950772  2.47351829  2.22563664  1.98153944  1.73933447  1.5046984
  1.27763124  1.06380966  0.86891034  0.69671774  0.55290854  0.43937496
  0.35800923  0.30691911  0.28232017  0.2842124   0.30502689  0.33908696
  0.38071594  0.4280216   0.47532726  0.52263292  0.56993858  0.61913646
  0.66833435  0.72320891  0.78376016  0.85188031  0.92378491  1.00136619
  1.08462415  1.16788211  1.24735561  1.32304467  1.38927259  1.44414715
  1.48199168  1.50280617  1.50280617  1.48199168  1.44225493  1.38359591
  1.30790686  1.21897222]",14.905411953579653,7.148925783097885,5.107675,-0.2511599999999987
009,1,1,csp,8a.png,1,1,116,304,106,1,1,338,pos_feedback_onset,2,"[ 0.33822826  0.31754151  0.29309354  0.26300373  0.22727209  0.1858986
  0.13700266  0.08246488  0.02228526 -0.03601374 -0.09619336 -0.14885052
 -0.19398524 -0.22783627 -0.2466424  -0.24852301 -0.2315975  -0.19774646
 -0.14885052 -0.09055152 -0.02284945  0.04485262  0.10691285  0.16145063
  0.2009435   0.22351086  0.23103331  0.22351086  0.20658534  0.18213737
  0.1576894   0.13512205  0.12195776  0.11631592  0.12195776  0.13700266
  0.15580879  0.17837615  0.19906289  0.21222718  0.21786902  0.21410779
  0.19718228  0.17273431  0.14076389  0.10503224  0.06930059  0.03921078
  0.01664343  0.00724036  0.01100159  0.03168833  0.0711812   0.12759959
  0.20470473  0.30061599  0.417214    0.55449876  0.71247025  0.88736726
  1.08107041  1.28793784  1.50608895  1.73176252  1.96119731  2.18875149
  2.40878322  2.62129249  2.81687625  2.99929571  3.16102843  3.30207441
  3.42055303  3.5164643   3.59168882  3.64246537  3.67067457  3.67631641
  3.6612715   3.62742047  3.57288269  3.49953878  3.40926935  3.30395502
  3.18735701  3.05947533  2.92407119  2.78678644  2.64762107  2.51409755
  2.38621586  2.26773724  2.16054229  2.06463103  1.98376467  1.91418199
  1.85776359  1.81450949  1.78065846  1.7580911   1.74680742  1.7430462
  1.74868804  1.76185233  1.78441969  1.81074827  1.8445993   1.87845034
  1.91418199  1.94803302  1.97624222  1.99692896  2.00821264  2.01009325
  2.00069018  1.97812283  1.94803302  1.91230137  1.8728085   1.83519624
  1.80510643  1.78441969  1.78065846  1.79194214  1.81827072  1.86340543
  1.91794321  1.98188405  2.0458249   2.10976574  2.16618413  2.21319946
  2.25081172  2.27902092  2.30158827  2.32227502  2.34484237  2.37305157
  2.41066383  2.45767915  2.51221693  2.57239655  2.63069555  2.68147211
  2.71908437  2.73412927  2.72096498  2.67959149  2.60436697  2.49905264
  2.37117095  2.22260252  2.06463103  1.90854015  1.7580911   1.62644819
  1.51737263  1.43838689  1.38949095  1.37256543  1.38384911  1.42334198
  1.48164099  1.55498489  1.63773187  1.72424007  1.80886765  1.8878534
  1.95555547  2.01197386  2.05710858  2.09095961  2.11540758  2.1323331
  2.14549739  2.16054229  2.17746781  2.19815455  2.22824436  2.26585662
  2.31099134  2.3636485   2.42570873  2.49529142  2.57051594  2.65326291
  2.74165172  2.83568238  2.93535487  3.03878858  3.14410291  3.25129786
  3.36037341  3.46568774  3.56724085  3.66315211  3.75530215  3.84181035
  3.92267671  4.00166246  4.0787676   4.15587273  4.23485848  4.31384423
  4.3965912   4.48121879  4.56396576  4.64671274  4.72381787  4.79716178
  4.86486385  4.92880469  4.9871037   5.04352209  5.1037017   5.17140377
  5.2466283   5.33689772  5.44221205  5.56257129  5.69233359  5.82961834
  5.96314186  6.08726233  6.18693482  6.2565175   6.2847267   6.26592056
  6.19633788  6.08162049  5.92364899  5.73182646  5.5211978   5.30116607
  5.08677619  4.89119243  4.72005664  4.57901067  4.46993511  4.38906875
  4.33265036  4.29127687  4.25366461  4.21417174  4.16339518  4.09569311
  4.00918491  3.90387058  3.78163074  3.64810721  3.50518062  3.36225403
  3.21932744  3.08204268  2.954161    2.83380176  2.72472621  2.6231731
  2.53102306  2.44827609]","[-1.42470165e+00 -1.25499549e+00 -1.09266786e+00 -9.39563394e-01
 -7.93837453e-01 -6.55490040e-01 -5.26365789e-01 -4.00930801e-01
 -2.81029711e-01 -1.59283988e-01 -3.38490003e-02  9.89645157e-02
  2.44690457e-01  4.05173455e-01  5.84102776e-01  7.81478417e-01
  9.99145013e-01  1.23156867e+00  1.48059401e+00  1.73699788e+00
  2.00078028e+00  2.26456268e+00  2.52650045e+00  2.78105969e+00
  3.02639576e+00  3.26066405e+00  3.48570917e+00  3.69784187e+00
  3.90075141e+00  4.09074852e+00  4.26783321e+00  4.43200547e+00
  4.58142068e+00  4.71054493e+00  4.81753360e+00  4.90054205e+00
  4.95219175e+00  4.97432733e+00  4.96141491e+00  4.91529910e+00
  4.83597992e+00  4.72530199e+00  4.58695458e+00  4.42278231e+00
  4.24200836e+00  4.05016662e+00  3.85279097e+00  3.65541533e+00
  3.46910748e+00  3.29386743e+00  3.13891833e+00  3.00610481e+00
  2.89727151e+00  2.81241843e+00  2.75154557e+00  2.71096366e+00
  2.68882808e+00  2.67960492e+00  2.67960492e+00  2.68513881e+00
  2.69251734e+00  2.70174050e+00  2.70727440e+00  2.71280830e+00
  2.71465293e+00  2.71280830e+00  2.70911903e+00  2.70174050e+00
  2.69067271e+00  2.67222639e+00  2.64824617e+00  2.61688742e+00
  2.57261625e+00  2.51727729e+00  2.44902590e+00  2.36970671e+00
  2.27563047e+00  2.17417570e+00  2.06165314e+00  1.94728595e+00
  1.82738486e+00  1.70748376e+00  1.59127194e+00  1.47690474e+00
  1.36622681e+00  1.26292741e+00  1.16700654e+00  1.08030883e+00
  1.00652354e+00  9.43806048e-01  8.94000979e-01  8.60797601e-01
  8.44195911e-01  8.44195911e-01  8.58952968e-01  8.86622451e-01
  9.27204358e-01  9.77009427e-01  1.03050376e+00  1.08584272e+00
  1.13933706e+00  1.18545286e+00  1.22050087e+00  1.23894719e+00
  1.23710256e+00  1.20943308e+00  1.15224948e+00  1.05817324e+00
  9.29048991e-01  7.57498199e-01  5.45365500e-01  2.92650893e-01
  4.88827524e-03 -3.12388457e-01 -6.48111512e-01 -9.87523830e-01
 -1.31955762e+00 -1.62945582e+00 -1.90246138e+00 -2.12566188e+00
 -2.29536804e+00 -2.40420133e+00 -2.45216177e+00 -2.44662787e+00
 -2.39497817e+00 -2.30459120e+00 -2.19022400e+00 -2.05925512e+00
 -1.92459697e+00 -1.79178345e+00 -1.66634847e+00 -1.55382591e+00
 -1.45237114e+00 -1.36382879e+00 -1.29004351e+00 -1.22548138e+00
 -1.17198705e+00 -1.13140514e+00 -1.10189102e+00 -1.08344470e+00]",5.180712808761409,3.6034428214755687,5.317415,-0.25204000000000093
009,1,1,csp,57a.png,1,1,344,306,345,1,1,395,pos_feedback_onset,3,"[  0.41280842   0.42584251   0.43515258   0.43887661   0.43329057
   0.41839446   0.39232627   0.355086     0.30481163   0.24150317
   0.16329859   0.07392194  -0.03035082  -0.14765768  -0.27799863
  -0.41764965  -0.56661074  -0.72301989  -0.88501507  -1.04701026
  -1.20900544  -1.36913861  -1.52182373  -1.66706079  -1.80298779
  -1.93146673  -2.04877358  -2.15677037  -2.25731911  -2.34669576
  -2.42862436  -2.50124289  -2.56827538  -2.62413579  -2.67441016
  -2.71537446  -2.74702869  -2.77309688  -2.78799299  -2.79730306
  -2.79730306  -2.79171702  -2.78054494  -2.7619248   -2.74144265
  -2.71723647  -2.69116828  -2.66510009  -2.64275593  -2.62599781
  -2.62041177  -2.62413579  -2.64461794  -2.68372023  -2.74330466
  -2.82523326  -2.93136804  -3.06357101  -3.21811814  -3.39687144
  -3.59424489  -3.81023847  -4.03926614  -4.2794659   -4.52711371
  -4.77662354  -5.02799537  -5.27564319  -5.51956697  -5.75790471
  -5.9887944   -6.21037402  -6.4263676   -6.63677514  -6.83973463
  -7.03710807  -7.2326195   -7.42626892  -7.61991833  -7.81542976
  -8.01280321  -8.21390068  -8.42058419  -8.63285374  -8.85070933
  -9.07601298  -9.3106267   -9.55268847  -9.80592232 -10.07032825
 -10.34776828 -10.63824241 -10.94361264 -11.26387898 -11.60090345
 -11.95468604 -12.32150272 -12.70321551 -13.09423837 -13.4945713
 -13.89676624 -14.3008232  -14.69929411 -15.09031697 -15.47016775
 -15.83884645 -16.19076702 -16.52779148 -16.84991984 -17.1590141
 -17.45693628 -17.74368638 -18.02298842 -18.29670442 -18.56483438
 -18.83110233 -19.09364625 -19.35060413 -19.60197597 -19.84589975
 -20.07865146 -20.29836906 -20.50132855 -20.68752991 -20.85138711
 -20.99476216 -21.11393103 -21.20889372 -21.27778823 -21.32061454
 -21.33923468 -21.33178662 -21.29640836 -21.23682393 -21.14930929
 -21.03758847 -20.90166147 -20.73966629 -20.55905097 -20.35609148
 -20.13637388 -19.90176016 -19.65411235 -19.39715447 -19.13461055
 -18.8683426  -18.59835063 -18.32649664 -18.05464265 -17.78092665
 -17.50348662 -17.22232256 -16.93557247 -16.64323633 -16.34159012
 -16.03063385 -15.71036751 -15.37892908 -15.03631858 -14.684398
 -14.32316736 -13.95262665 -13.57463788 -13.19106308 -12.80190223
 -12.41274139 -12.02358054 -11.63814372 -11.25829294 -10.88402821
 -10.51907354 -10.16342894  -9.81337037  -9.47075987  -9.13187339
  -8.79671094  -8.46527252  -8.1356961   -7.80798171  -7.48585335
  -7.16931104  -6.8639408   -6.56788064  -6.28485457  -6.01672461
  -5.75790471  -5.50839489  -5.26260909  -5.01682329  -4.76172743
  -4.49359747  -4.20498536  -3.89216707  -3.5551426   -3.19018793
  -2.79916507  -2.38579805  -1.95381089  -1.51065165  -1.06376838
  -0.62247115  -0.19420802   0.20984893   0.58038964   0.90810404
   1.19113011   1.41829577   1.59146304   1.7087699    1.77394037
   1.78883648   1.76276829   1.70318386   1.62125526   1.52256854
   1.42015779   1.31960905   1.22837038   1.15016581   1.08871936
   1.04216902   1.0123768    0.99561868   0.98817063   0.99003264
   0.99375667   0.99934271   1.00306674   0.99934271   0.99003264
   0.96768848   0.93231022   0.88017384   0.80941732   0.71631664
   0.60087179   0.46122077   0.29363955   0.10371416  -0.11227942
  -0.34875515  -0.601989    -0.87198098  -1.15128302  -1.4361711
  -1.72664523  -2.01898137  -2.30945549  -2.5980676   -2.88295569
  -3.16411974  -3.43969776  -3.70410369  -3.95361352  -4.18450321
  -4.39304873  -4.57366405  -4.72076313  -4.83248394  -4.9088265 ]","[-2.17942825 -1.93169296 -1.67478229 -1.41053132 -1.14444527 -0.8801943
 -0.62511871 -0.38105357 -0.1479989   0.07221025  0.27957386  0.47592701
  0.65943463  0.83193179  0.9934185   1.14572982  1.28886577  1.42099125
  1.54577643  1.66138623  1.77149081  1.87609015  1.98068949  2.08712391
  2.19722848  2.31467336  2.43945854  2.5734191   2.7128849   2.85785592
  3.00466201  3.14779795  3.28542867  3.41021385  3.5221535   3.61574238
  3.68914543  3.74052757  3.77172386  3.77906417  3.76254848  3.72584696
  3.66712452  3.59005132  3.49646243  3.39002801  3.27625329  3.15513826
  3.03402323  2.91657835  2.80463871  2.70003936  2.60094525  2.50919144
  2.4192727   2.33118905  2.23943524  2.14034112  2.03574178  1.92013198
  1.7953468   1.65955116  1.51641522  1.36777404  1.21179257  1.05214094
  0.89248931  0.7310026   0.5695159   0.40802919  0.24837756  0.09056101
 -0.06725554 -0.22140194 -0.37371327 -0.52235444 -0.66916054 -0.80862633
 -0.94258689 -1.07104222 -1.19215725 -1.30960213 -1.4197067  -1.52981127
 -1.64175092 -1.75736072 -1.8821459  -2.01977662 -2.17392302 -2.34642018
 -2.53910318 -2.75013694 -2.97768639 -3.21808137 -3.47132189 -3.72823256
 -3.9869783  -4.24205389 -4.4879541  -4.72284385 -4.943053   -5.14674646
 -5.33392423 -5.50091616 -5.65139241 -5.7835179  -5.8991277  -5.99822181
 -6.08263532 -6.15236821 -6.2074205  -6.2459571  -6.27348324 -6.28632877
 -6.28816385 -6.27898847 -6.26247278 -6.24045187 -6.21843095 -6.19641004
 -6.17805928 -6.1688839  -6.16704882 -6.17805928 -6.19824512 -6.22944141
 -6.26797801 -6.31385492 -6.35973182 -6.40377365 -6.44231025 -6.46800132
 -6.47901177 -6.47167147 -6.44414533 -6.39826842 -6.33220568 -6.24779217
 -6.15053314 -6.04042856]",0.10338830618207935,2.880840244689072,5.37053,0.1990400000000001
009,1,1,csm,39b.png,1,1,300,283,NaN,0,1,460,neu_feedback_onset,4,"[-5.41851330e-01 -4.60761874e-01 -3.81603119e-01 -3.02444364e-01
 -2.21354908e-01 -1.42196153e-01 -6.49681000e-02  1.03292522e-02
  7.79037989e-02  1.37755540e-01  1.87953775e-01  2.24637101e-01
  2.47805517e-01  2.57459023e-01  2.51666919e-01  2.32359906e-01
  1.99537983e-01  1.53201151e-01  9.91415137e-02  3.54283695e-02
 -3.60075799e-02 -1.09374231e-01 -1.86602284e-01 -2.63830338e-01
 -3.39127690e-01 -4.10563639e-01 -4.80068887e-01 -5.45712733e-01
 -6.05564474e-01 -6.61554813e-01 -7.13683749e-01 -7.61951283e-01
 -8.04426712e-01 -8.41110037e-01 -8.73931960e-01 -8.99031078e-01
 -9.18338091e-01 -9.29922299e-01 -9.33783702e-01 -9.27991598e-01
 -9.12545987e-01 -8.87446870e-01 -8.54624947e-01 -8.10218816e-01
 -7.60020581e-01 -6.98238138e-01 -6.30663592e-01 -5.55366240e-01
 -4.72346082e-01 -3.81603119e-01 -2.85068052e-01 -1.80810180e-01
 -7.07602040e-02  4.50818762e-02  1.64785359e-01  2.88350245e-01
  4.13845832e-01  5.41272120e-01  6.68698408e-01  7.96124696e-01
  9.21620283e-01  1.04711587e+00  1.17261146e+00  1.29810704e+00
  1.42553333e+00  1.55295962e+00  1.68231661e+00  1.81360430e+00
  1.94682269e+00  2.08004109e+00  2.21325948e+00  2.34068577e+00
  2.46038925e+00  2.57236993e+00  2.66890499e+00  2.74999445e+00
  2.80984619e+00  2.84846022e+00  2.86583653e+00  2.86004443e+00
  2.83301461e+00  2.78860848e+00  2.73068744e+00  2.66311289e+00
  2.58974624e+00  2.51637959e+00  2.44494364e+00  2.37929979e+00
  2.32137875e+00  2.27118052e+00  2.23256649e+00  2.20167527e+00
  2.17850685e+00  2.16692265e+00  2.16113054e+00  2.16692265e+00
  2.18236826e+00  2.20746737e+00  2.24222000e+00  2.28662613e+00
  2.34261647e+00  2.40826031e+00  2.47969626e+00  2.56078572e+00
  2.64573658e+00  2.73261814e+00  2.82143040e+00  2.91024266e+00
  2.99519352e+00  3.07628298e+00  3.15351103e+00  3.22494698e+00
  3.29059082e+00  3.35044257e+00  3.40643290e+00  3.45856184e+00
  3.50489867e+00  3.54737410e+00  3.58212673e+00  3.61108725e+00
  3.63039426e+00  3.63618636e+00  3.63039426e+00  3.60722584e+00
  3.56861182e+00  3.51455218e+00  3.44697763e+00  3.36781888e+00
  3.28479872e+00  3.19984786e+00  3.12261981e+00  3.05504526e+00
  2.99905492e+00  2.96044089e+00  2.93920318e+00  2.93148037e+00
  2.93534178e+00  2.94499528e+00  2.95851019e+00  2.96816370e+00
  2.97009440e+00  2.95851019e+00  2.92954967e+00  2.88321284e+00
  2.81949970e+00  2.73647954e+00  2.63801377e+00  2.52796380e+00
  2.41019101e+00  2.28855683e+00  2.17271475e+00  2.06845688e+00
  1.98157532e+00  1.91979287e+00  1.88890165e+00  1.89469376e+00
  1.93909989e+00  2.02405075e+00  2.14954633e+00  2.30979454e+00
  2.50093398e+00  2.71331112e+00  2.94306458e+00  3.17667944e+00
  3.40643290e+00  3.62460215e+00  3.82153369e+00  3.98950471e+00
  4.12658450e+00  4.23084237e+00  4.29841692e+00  4.33123884e+00
  4.33510025e+00  4.31193183e+00  4.26559500e+00  4.20381256e+00
  4.13237661e+00  4.05514855e+00  3.97985120e+00  3.91034595e+00
  3.85242491e+00  3.80994948e+00  3.78678107e+00  3.78678107e+00
  3.81188018e+00  3.86787052e+00  3.95282138e+00  4.07252487e+00
  4.22311957e+00  4.40653620e+00  4.62084404e+00  4.86411241e+00
  5.13247990e+00  5.42015440e+00  5.72327451e+00  6.03797883e+00
  6.35654455e+00  6.67704097e+00  6.99560669e+00  7.30838031e+00
  7.61343112e+00  7.91075912e+00  8.19843362e+00  8.47645461e+00
  8.74289140e+00  9.00160538e+00  9.24680445e+00  9.48041931e+00
  9.70051926e+00  9.90517360e+00  1.00924516e+01  1.02642841e+01
  1.04187402e+01  1.05577507e+01  1.06813155e+01  1.07913655e+01
  1.08917620e+01  1.09825049e+01  1.10655251e+01  1.11408225e+01
  1.12122584e+01  1.12740409e+01  1.13261698e+01  1.13686452e+01
  1.13956750e+01  1.14091899e+01  1.14072592e+01  1.13860215e+01
  1.13512689e+01  1.12991400e+01  1.12392882e+01  1.11697830e+01
  1.10964163e+01  1.10249804e+01  1.09612672e+01  1.09052769e+01
  1.08647322e+01  1.08357716e+01  1.08222567e+01  1.08222567e+01
  1.08280488e+01  1.08396331e+01  1.08473559e+01  1.08473559e+01
  1.08338409e+01  1.08010190e+01  1.07430980e+01  1.06620085e+01
  1.05558200e+01  1.04303244e+01  1.02893832e+01  1.01407192e+01
  9.99205516e+00  9.85111397e+00  9.72175698e+00  9.61170700e+00
  9.51903334e+00  9.44759739e+00  9.39546845e+00  9.35492372e+00]","[-0.21720589 -0.32562813 -0.41959407 -0.4936826  -0.54427964 -0.56777113
 -0.56235002 -0.52259519 -0.4503137  -0.34731257 -0.21539885 -0.06360771
  0.10263972  0.27430827  0.44236274  0.59415387  0.72064649  0.8182265
  0.87785873  0.89954318  0.88327985  0.83087576  0.75317316  0.65197907
  0.53632868  0.41345014  0.29237864  0.17672825  0.07192009 -0.01662474
 -0.0870992  -0.13588921 -0.15938069 -0.15757365 -0.12866106 -0.07083586
  0.01228785  0.11709602  0.24178159  0.37730939  0.51645127  0.65197907
  0.77666464  0.88147281  0.96098245  1.0115795   1.03326394  1.02603579
  0.99170208  0.93206985  0.85617429  0.76401538  0.66282129  0.55439905
  0.44416977  0.33213346  0.21829011  0.10444676 -0.01120363 -0.13227513
 -0.25876775 -0.39429554 -0.54066557 -0.70149189 -0.87316044 -1.05386417
 -1.24179605 -1.43153497 -1.61404574 -1.78571429 -1.9411195  -2.0766473
 -2.19049065 -2.28084251 -2.34950993 -2.40010698 -2.43444069 -2.45612513
 -2.47058143 -2.47780958 -2.47961662 -2.47961662 -2.47780958 -2.47419551
 -2.47058143 -2.46696736 -2.46154625 -2.45793217 -2.4543181  -2.44889698
 -2.44528291 -2.4398618  -2.43624772 -2.43263365 -2.42721254 -2.42359846
 -2.41817735 -2.41456328 -2.40914216 -2.40552809 -2.40191401 -2.3964929
 -2.39287883 -2.38745772 -2.38384364 -2.38022957 -2.37480845 -2.37119438
 -2.36577327 -2.36215919 -2.35854512 -2.35312401 -2.34950993 -2.34408882
 -2.34047474 -2.33505363 -2.33143956 -2.32782548 -2.32240437 -2.3187903
 -2.31336918 -2.30975511 -2.30614104 -2.30071992 -2.29710585 -2.29168474
 -2.28807066 -2.28445659 -2.27903548 -2.2754214  -2.27000029 -2.26638621
 -2.2609651  -2.25735103 -2.25373695 -2.24831584 -2.24470177 -2.23928065
 -2.23566658 -2.23205251]",10.789724421344667,0.23215912047878923,5.179465,
009,1,1,csm,24b.png,1,0,284,NaN,283,1,1,300,neu_feedback_onset,5,"[ 0.38500088  0.33846947  0.29752183  0.26401922  0.23423911  0.20818152
  0.18026268  0.15048258  0.11511871  0.07603232  0.02950091 -0.02261426
 -0.07845196 -0.13801216 -0.19943362 -0.25899382 -0.31669277 -0.37253046
 -0.42278438 -0.46931579 -0.51026343 -0.54748856 -0.58285243 -0.61263253
 -0.64241263 -0.67219274 -0.7038341  -0.73547545 -0.77270058 -0.81550948
 -0.86390214 -0.91973983 -0.98488381 -1.0574728  -1.13750683 -1.22312462
 -1.31618744 -1.41111151 -1.50789685 -1.60468218 -1.69960625 -1.78894656
 -1.87456435 -1.95459837 -2.02718737 -2.09233134 -2.1537528  -2.20772924
 -2.25426065 -2.29706954 -2.33615593 -2.3715198  -2.40316116 -2.43294126
 -2.46086011 -2.48691769 -2.51111403 -2.53158785 -2.55020041 -2.56509046
 -2.576258   -2.57998051 -2.576258   -2.56509046 -2.5464779  -2.52042031
 -2.48691769 -2.44783131 -2.40688367 -2.36593603 -2.32684965 -2.29334703
 -2.26728944 -2.24867688 -2.24123185 -2.24495437 -2.25798316 -2.28031824
 -2.3119596  -2.35104598 -2.39943865 -2.45155382 -2.50925277 -2.57067423
 -2.6358182  -2.70096218 -2.76796741 -2.83497263 -2.90011661 -2.96339932
 -3.02295953 -3.08065848 -3.13463491 -3.18488883 -3.2332815  -3.27981291
 -3.32448306 -3.36356944 -3.3952108  -3.41940713 -3.42871342 -3.42312965
 -3.39893331 -3.3524019  -3.28353542 -3.19419511 -3.08624224 -2.96526058
 -2.83683389 -2.71026846 -2.59114805 -2.48691769 -2.40316116 -2.34546221
 -2.31009834 -2.30265331 -2.31754336 -2.34918472 -2.39571613 -2.44969257
 -2.50553026 -2.55578418 -2.59673182 -2.62651192 -2.63954072 -2.6358182
 -2.61534438 -2.57811926 -2.52600408 -2.45899885 -2.38268734 -2.29706954
 -2.20586798 -2.11094391 -2.01415858 -1.91737325 -1.81872666 -1.72194133
 -1.62701725 -1.53395443 -1.44089162 -1.3478288  -1.25848849 -1.16914819
 -1.08353039 -1.00163511 -0.9253236  -0.85645712 -0.79503566 -0.74292048
 -0.69825033 -0.66474771 -0.64055138 -0.62193881 -0.60891002 -0.59774248
 -0.5884362  -0.57540741 -0.56051735 -0.53818228 -0.51026343 -0.47676082
 -0.43767443 -0.39300428 -0.34647287 -0.29808021 -0.24782629 -0.19571111
 -0.14359593 -0.09148075 -0.0337818   0.02391714  0.0853386   0.14862132
  0.21190404  0.27704801  0.34219198  0.40361344  0.46875742  0.53576265
  0.6102129   0.70141446  0.8149511   0.96199035  1.14625473  1.37891178
  1.65996149  1.99126512  2.36723891  2.78229908  3.22155558  3.67570214
  4.12612618  4.55979891  4.96369154  5.32849779  5.64863388  5.92223857
  6.14931185  6.33543748  6.48619925  6.60904217  6.70768876  6.79144529
  6.86217304  6.92545575  6.97943219  7.02782485  7.06877249  7.10227511
  7.1283327   7.14694526  7.15439028  7.15066777  7.13391646  7.10227511
  7.05015993  6.97757093  6.87706309  6.7486364   6.58670709  6.39313643
  6.16606315  5.90920978  5.62443755  5.31733025  4.9953329   4.66402927
  4.33086438  3.99956074  3.67756339  3.36673358  3.07079382  2.79160536
  2.53102947  2.28534363  2.05454784  1.84050336  1.63762641  1.44405575
  1.26165263  1.08669453  0.9173202   0.75352964  0.59346159  0.43711606
  0.28449304  0.13373127 -0.01144673 -0.15290221 -0.29063518 -0.42278438
 -0.54748856 -0.66660897 -0.78200686 -0.88995973 -0.99605134 -1.09842044
 -1.2026508  -1.30688116]","[-0.41538736 -0.3878065  -0.36416577 -0.34446516 -0.32673461 -0.30506394
 -0.27945315 -0.24990224 -0.21050102 -0.16321955 -0.10805784 -0.04304583
  0.03181648  0.11652911  0.21109203  0.31550527  0.4297688   0.55585271
  0.69375698  0.84348161  1.00699667  1.18430216  1.37342801  1.5763443
  1.78714082  2.00778765  2.23040454  2.45696156  2.67760839  2.89234503
  3.09526131  3.28438717  3.45775253  3.60944723  3.74144132  3.85373479
  3.94632766  4.02118998  4.08029181  4.12363315  4.15712418  4.18076492
  4.19849546  4.21228589  4.22607632  4.23789668  4.24971705  4.26547754
  4.28123803  4.30093864  4.32063925  4.34230992  4.36398059  4.3836812
  4.40141175  4.41520217  4.42505248  4.4289926   4.42702254  4.41717223
  4.40338181  4.3836812   4.3580704   4.32851949  4.29699851  4.26153742
  4.22607632  4.19061522  4.15712418  4.12363315  4.09014211  4.0605912
  4.03301034  4.00739955  3.98375882  3.96405821  3.9443576   3.92662705
  3.91283662  3.90101626  3.89116595  3.88722583  3.88722583  3.89116595
  3.89904619  3.91086656  3.92859711  3.94632766  3.96799833  3.98769894
  4.00542949  4.01724985  4.0251301   4.02316004  4.01330973  3.99163906
  3.96011809  3.92071687  3.87146534  3.81827369  3.76311199  3.70598022
  3.65081851  3.60156699  3.55822564  3.52276455  3.49321363  3.47154296
  3.45381241  3.43805192  3.42032138  3.40259083  3.37698003  3.34151894
  3.29423747  3.23316558  3.15830327  3.06768046  2.96720735  2.85491387
  2.73474015  2.60865625  2.48454241  2.36042857  2.24419497  2.13387155
  2.03339844  1.9447457   1.86791332  1.80290131  1.75167972  1.71030844
  1.68075753  1.65908686  1.64529643  1.63938625  1.63544613  1.631506
  1.62559582  1.61180539]",6.0773742884184365,4.231838746568397,5.3727149999999995,-0.44419500000000056
009,1,1,csp,63a.png,1,1,248,359,254,1,0,323,neg_feedback_onset,6,"[ 0.84730432  0.81210183  0.7592981   0.69084882  0.6028426   0.49919083
  0.38184921  0.25472911  0.12174194 -0.01124524 -0.14032103 -0.25961835
 -0.36522581 -0.45518772 -0.52950408 -0.5862192  -0.62728877 -0.65466849
 -0.66835834 -0.67226973 -0.66640265 -0.65271279 -0.62924447 -0.59795337
 -0.55883949 -0.50799145 -0.44736495 -0.37695997 -0.29677653 -0.20877031
 -0.1168527  -0.02102371  0.07284959  0.1647672   0.24886203  0.32904547
  0.39945045  0.46398834  0.52461485  0.57937428  0.6341337   0.69280451
  0.75538671  0.823836    0.90401944  0.99398135  1.09372173  1.20324058
  1.3225379   1.4477023   1.57677809  1.71172096  1.84861952  1.99138517
  2.14001789  2.29256201  2.45488459  2.62698564  2.80886516  3.00247884
  3.20587099  3.41708592  3.63221223  3.84929424  4.06442055  4.27367978
  4.47511624  4.66481854  4.84278667  5.00706494  5.15960906  5.29846331
  5.4275391   5.54292503  5.65048819  5.74631718  5.83236771  5.90863977
  5.97317766  6.02793709  6.07096235  6.10420914  6.12767747  6.13941163
  6.14332302  6.13745594  6.12572177  6.10420914  6.07682943  6.03967125
  5.99469029  5.94188656  5.87930436  5.80889938  5.73067163  5.64462111
  5.55074781  5.45296312  5.34931135  5.24370389  5.13614073  5.02662188
  4.91514734  4.80367279  4.69024255  4.57681232  4.45947069  4.34212907
  4.22283175  4.10353443  3.98423711  3.86493979  3.74955386  3.63612362
  3.53051616  3.42882008  3.33690247  3.25476334  3.18240267  3.11982047
  3.06897243  3.02790286  2.99661176  2.97509913  2.96140927  2.95554219
  2.95554219  2.96140927  2.97118774  2.9848776   3.00247884  3.02203578
  3.0455041   3.07092812  3.10026353  3.13155463  3.16480142  3.19804822
  3.23129501  3.26258611  3.29192152  3.31930123  3.33885817  3.35450372
  3.36232649  3.3603708   3.35254802  3.33494678  3.30756707  3.27236458
  3.22738362  3.1726242   3.110042    3.03963702  2.96336497  2.88122583
  2.79321961  2.7032577   2.61329578  2.52528956  2.43923904  2.3570999
  2.28278354  2.21628995  2.16153053  2.11459388  2.08330278  2.06374584
  2.05983445  2.06961292  2.09699263  2.14001789  2.2006444   2.27496076
  2.36687837  2.47248583  2.58982746  2.72085894  2.86166889  3.01030162
  3.17066851  3.34081386  3.51878199  3.70652859  3.90600936  4.11526859
  4.33430629  4.56703385  4.80758418  5.05595729  5.31215317  5.57421613
  5.8362791   6.09834206  6.35844933  6.60877813  6.85128416  7.08205602
  7.29913803  7.50057449  7.68636539  7.85455506  8.00905486  8.14595343
  8.26916213  8.37672529  8.47255428  8.55664911  8.62900978  8.69159198
  8.74244002  8.78350959  8.81871208  8.8441361   8.86369303  8.87738289
  8.88716136  8.89498413  8.89693983  8.89693983  8.89302844  8.88129428
  8.86564873  8.84022471  8.80697792  8.76590835  8.717016    8.66030088
  8.59771868  8.5312251   8.46082012  8.38454806  8.30632031  8.22222548
  8.13226357  8.03643457  7.93278281  7.82326396  7.70787802  7.5885807
  7.46928338  7.35585315  7.25024568  7.15832808  7.08205602  7.02142951
  6.97840425  6.95298023  6.93929038  6.93733468  6.94124607  6.94711315
  6.95298023  6.95493593  6.94906885  6.93929038  6.92364483  6.9001765
  6.87084109  6.8375943 ]","[-1.64496965 -1.44915103 -1.25706229 -1.06870343 -0.88593938 -0.70690522
 -0.53719575 -0.37121615 -0.21083138 -0.05417648  0.09874853  0.25167355
  0.40459857  0.56125346  0.72163824  0.88575289  1.05359742  1.22703677
  1.40234106  1.57951029  1.75667951  1.93384874  2.10915303  2.28072744
  2.45416679  2.62760614  2.80477536  2.98753941  3.17962815  3.38290653
  3.5955096   3.81557243  4.04309502  4.27248254  4.49814019  4.71447314
  4.91402164  5.08932593  5.23479119  5.34855248  5.42501499  5.46417871
  5.46790859  5.43620462  5.37466163  5.28700949  5.17884301  5.05202714
  4.9121567   4.76296156  4.60630667  4.44592189  4.28180724  4.11582765
  3.94798311  3.78200352  3.61415899  3.44444952  3.27660499  3.10876046
  2.94091593  2.7730714   2.60522687  2.43551739  2.26767286  2.09982833
  1.9319838   1.76413927  1.59815968  1.43218009  1.26806543  1.1095456
  0.95475564  0.81115532  0.68060957  0.56871322  0.48292602  0.43257266
  0.42324796  0.46241168  0.55565865  0.70485378  0.9099971   1.1617639
  1.44896454  1.75854445  2.07371918  2.37210946  2.64066071  2.86072354
  3.02297325  3.12181503  3.153519    3.12367997  3.03789277  2.9017522
  2.72831285  2.52503448  2.30124177  2.06625943  1.82381733  1.58324016
  1.34825782  1.12073523  0.90253734  0.69552909  0.50530529  0.32813606
  0.16775128  0.02788084 -0.09520515 -0.19404693 -0.27237438 -0.32832255
 -0.36002652 -0.37121615 -0.36189146 -0.33391737 -0.29102377 -0.23507559
 -0.16980272 -0.09707009 -0.02060758  0.05771987  0.13231744  0.20505007
  0.27218788  0.330001    0.3822193   0.4251129   0.46054674  0.48665589
  0.50903516  0.52395468  0.53514431  0.54073913  0.54633395  0.54819889
  0.54819889  0.54819889]",8.471380866470104,4.101281120007931,5.113275000000001,-0.08765
009,1,1,csp,35a.png,1,1,176,158,170,1,1,330,pos_feedback_onset,7,"[ 4.36928855e-02  1.39445379e-02 -1.39445379e-02 -3.43965269e-02
 -4.74114289e-02 -5.29892441e-02 -4.92707007e-02 -3.81150703e-02
 -2.13816248e-02 -9.29635862e-04  2.13816248e-02  4.18336138e-02
  5.67077876e-02  6.41448745e-02  6.22856027e-02  5.11299724e-02
  3.06779834e-02 -9.29635862e-04 -3.99743421e-02 -8.64561351e-02
 -1.40375015e-01 -1.99871710e-01 -2.63086949e-01 -3.30020731e-01
 -3.98813785e-01 -4.71325382e-01 -5.43836979e-01 -6.16348576e-01
 -6.87000902e-01 -7.55793956e-01 -8.22727738e-01 -8.84083704e-01
 -9.39861856e-01 -9.91921464e-01 -1.03654399e+00 -1.07744796e+00
 -1.11463340e+00 -1.14810029e+00 -1.17970791e+00 -1.20945626e+00
 -1.23734533e+00 -1.26523441e+00 -1.29312348e+00 -1.31915329e+00
 -1.34146455e+00 -1.36191654e+00 -1.37679071e+00 -1.38608707e+00
 -1.38794634e+00 -1.38050925e+00 -1.36749435e+00 -1.34704236e+00
 -1.31915329e+00 -1.28754567e+00 -1.25407878e+00 -1.21875261e+00
 -1.18342645e+00 -1.15181883e+00 -1.12578903e+00 -1.10347777e+00
 -1.08488505e+00 -1.07187015e+00 -1.06257379e+00 -1.05513670e+00
 -1.04769962e+00 -1.03840326e+00 -1.02724763e+00 -1.01051418e+00
 -9.86343649e-01 -9.54736030e-01 -9.13832052e-01 -8.65490987e-01
 -8.07853564e-01 -7.42779053e-01 -6.75845271e-01 -6.07052218e-01
 -5.40118436e-01 -4.78762469e-01 -4.24843589e-01 -3.80221067e-01
 -3.46754176e-01 -3.22583644e-01 -3.07709470e-01 -3.02131655e-01
 -3.02131655e-01 -3.03990927e-01 -3.09568742e-01 -3.13287285e-01
 -3.15146557e-01 -3.15146557e-01 -3.13287285e-01 -3.05850198e-01
 -2.94694568e-01 -2.81679666e-01 -2.64946221e-01 -2.46353503e-01
 -2.24042243e-01 -1.99871710e-01 -1.77560450e-01 -1.53389917e-01
 -1.32937928e-01 -1.18063754e-01 -1.06908124e-01 -1.03189581e-01
 -1.05048852e-01 -1.14345211e-01 -1.31078656e-01 -1.51530645e-01
 -1.75701178e-01 -2.01730982e-01 -2.29620058e-01 -2.55649862e-01
 -2.81679666e-01 -3.07709470e-01 -3.35598546e-01 -3.65346894e-01
 -3.96954513e-01 -4.32280676e-01 -4.73184654e-01 -5.21525718e-01
 -5.73585327e-01 -6.29363478e-01 -6.90719445e-01 -7.55793956e-01
 -8.20868466e-01 -8.89661520e-01 -9.58454573e-01 -1.02724763e+00
 -1.09789995e+00 -1.16855228e+00 -1.24106388e+00 -1.31543474e+00
 -1.38980561e+00 -1.46603575e+00 -1.53854735e+00 -1.60919968e+00
 -1.67613346e+00 -1.73563015e+00 -1.78583049e+00 -1.82673447e+00
 -1.85648282e+00 -1.87507553e+00 -1.88251262e+00 -1.88251262e+00
 -1.87321626e+00 -1.86206063e+00 -1.84904573e+00 -1.84160864e+00
 -1.84160864e+00 -1.85462354e+00 -1.88065335e+00 -1.92155733e+00
 -1.97733548e+00 -2.04426926e+00 -2.11678086e+00 -2.19115173e+00
 -2.25994478e+00 -2.31572293e+00 -2.35290837e+00 -2.36964181e+00
 -2.36406400e+00 -2.33617492e+00 -2.28783386e+00 -2.22461862e+00
 -2.15210702e+00 -2.07587688e+00 -2.00336528e+00 -1.94200931e+00
 -1.89738679e+00 -1.86949772e+00 -1.86206063e+00 -1.87135699e+00
 -1.89738679e+00 -1.93271296e+00 -1.97175766e+00 -2.00894310e+00
 -2.03497290e+00 -2.04426926e+00 -2.03125436e+00 -1.98849111e+00
 -1.91783878e+00 -1.81371957e+00 -1.68171127e+00 -1.52367318e+00
 -1.34518309e+00 -1.14995956e+00 -9.47298943e-01 -7.39060510e-01
 -5.32681349e-01 -3.31880003e-01 -1.40375015e-01  3.99743421e-02
  2.11027341e-01  3.69065437e-01  5.17807175e-01  6.59111826e-01
  7.91120118e-01  9.19409867e-01  1.04584034e+00  1.17413009e+00
  1.30613839e+00  1.44744304e+00  1.60362186e+00  1.77839340e+00
  1.97733548e+00  2.20416663e+00  2.46074613e+00  2.74893324e+00
  3.06500944e+00  3.40339689e+00  3.75851779e+00  4.11735723e+00
  4.47247813e+00  4.80714704e+00  5.11206760e+00  5.37422492e+00
  5.58246335e+00  5.73306436e+00  5.81487231e+00  5.82788722e+00
  5.77210906e+00  5.64939713e+00  5.46161069e+00  5.21804609e+00
  4.92614043e+00  4.59704934e+00  4.24006916e+00  3.86449628e+00
  3.48520485e+00  3.10963196e+00  2.74893324e+00  2.41054579e+00
  2.09818814e+00  1.81557884e+00  1.56457716e+00  1.34518309e+00
  1.15367810e+00  9.90062193e-01  8.52476085e-01  7.35341967e-01
  6.40519109e-01  5.64288968e-01  5.06651545e-01  4.65747567e-01
  4.39717763e-01  4.24843589e-01  4.21125045e-01  4.21125045e-01
  4.24843589e-01  4.22984317e-01  4.13687958e-01  3.91376698e-01
  3.52331992e-01  2.94694568e-01  2.14745884e-01  1.12485939e-01
 -1.02259945e-02 -1.51530645e-01 -3.07709470e-01 -4.75043925e-01]","[-0.83382011 -0.74655573 -0.65751044 -0.57024605 -0.48476257 -0.39927909
 -0.31735742 -0.23543575 -0.15529499 -0.07337332  0.00854835  0.09403183
  0.18485803  0.27924604  0.37897676  0.48405021  0.59268546  0.70488253
  0.8170796   0.92927667  1.03791192  1.14476627  1.24983972  1.35313226
  1.4582057   1.56862186  1.68438074  1.81082506  1.9461739   2.09398909
  2.25248971  2.41989486  2.59086182  2.76182878  2.92389121  3.07170639
  3.1963698   3.287196    3.34062317  3.34596589  3.30322415  3.20705524
  3.06280186  2.87580675  2.65497443  2.40920942  2.15632079  1.90877488
  1.67725712  1.47245295  1.29970508  1.16613714  1.06818732  1.00229381
  0.96489478  0.94886663  0.94886663  0.95777116  0.97201841  0.98270384
  0.99160837  0.99160837  0.98270384  0.96489478  0.93640029  0.89722036
  0.8491359   0.79036601  0.72269159  0.64433173  0.55706735  0.46267934
  0.35760589  0.24718973  0.13321176  0.01567197 -0.10008691 -0.21406488
 -0.32091923 -0.42064996 -0.50969525 -0.59161692 -0.66641497 -0.73587029
 -0.80532562 -0.87656185 -0.95670262 -1.04574791 -1.14725954 -1.26479933
 -1.39658636 -1.54083973 -1.69755945 -1.86318369 -2.03415065 -2.20511761
 -2.37252276 -2.53280429 -2.67883856 -2.80706378 -2.91569904 -2.99940162
 -3.05817151 -3.09200872 -3.10091325 -3.08844691 -3.05817151 -3.01364886
 -2.96022169 -2.90501361 -2.84802462 -2.79459744 -2.74829389 -2.70911396
 -2.67527675 -2.64500135 -2.61828777 -2.59157418 -2.56486059 -2.53458519
 -2.50074798 -2.46512986 -2.42594994 -2.38677001 -2.34759008 -2.31019106
 -2.27635384 -2.24785935 -2.22470758 -2.20689852 -2.19621308 -2.19087036
 -2.19265127 -2.19799399 -2.21046033 -2.22648848 -2.24607845 -2.27101113
 -2.29950562 -2.33156193]",3.376809303795686,1.9881142344242115,5.378450000000001,0.1177400000000004
009,1,1,csm,44b.png,1,0,48,352,38,1,1,549,neu_feedback_onset,8,"[ 0.21255447  0.42375262  0.62138759  0.79189619  0.91784004  0.98953116
  0.99921915  0.94109122  0.81902256  0.63688837  0.40631424  0.13892576
 -0.14783871 -0.44041596 -0.72330523 -0.97906813 -1.19801667 -1.36852527
 -1.48865633 -1.55259706 -1.56228505 -1.5196579  -1.4285908  -1.29683416
 -1.13213835 -0.94225377 -0.73299322 -0.51404468 -0.29315854 -0.07614759
  0.12923777  0.31912235  0.48963095  0.63882597  0.76670742  0.87521289
  0.96434239  1.0399087   1.10772462  1.16779015  1.22785568  1.28792121
  1.35186193  1.41774026  1.48749378  1.56112249  1.63281361  1.70644232
  1.77619584  1.84207416  1.90407729  1.96220522  2.01452036  2.05908511
  2.09783706  2.13271382  2.15984019  2.18309136  2.20440493  2.21990572
  2.2334689   2.24509449  2.25478248  2.26447046  2.27415845  2.28578404
  2.29740963  2.31097281  2.32453599  2.34197437  2.36135035  2.38266393
  2.4020399   2.42141588  2.43885426  2.45241744  2.46016783  2.45823024
  2.44660465  2.42335348  2.38847672  2.34197437  2.28190884  2.21409292
  2.13465142  2.04939712  1.96026762  1.86532533  1.77038304  1.67544076
  1.58049847  1.48555618  1.39255149  1.30148439  1.2084797   1.11547501
  1.02053272  0.92365284  0.82483535  0.72408027  0.62138759  0.51675731
  0.41212704  0.30943436  0.20867928  0.11179939  0.0187947  -0.0722724
 -0.1575267  -0.2408434  -0.3202849  -0.39778881 -0.47335512 -0.54892144
 -0.62061255 -0.69230367 -0.76011959 -0.82212272 -0.88025065 -0.93062819
 -0.97131774 -1.0023193  -1.02363288 -1.03332087 -1.03138327 -1.01975768
 -0.99650651 -0.96162975 -0.91512741 -0.85699947 -0.78530836 -0.70005406
 -0.59929898 -0.48498071 -0.35516166 -0.21177943 -0.05677161  0.10986179
  0.28424559  0.46444218  0.64657636  0.82677295  1.00503194  1.17554054
  1.34023635  1.49718176  1.64637679  1.78782142  1.92345326  2.05327231
  2.18309136  2.31097281  2.44079186  2.5725485   2.70624275  2.84574978
  2.98525682  3.12670145  3.26814609  3.40765312  3.54328496  3.67116641
  3.79517267  3.91142853  4.0218716   4.12456428  4.22338177  4.32026165
  4.41520394  4.51014623  4.60702612  4.703906    4.80078589  4.89766578
  4.99260806  5.08367516  5.17474225  5.26193415  5.34912605  5.43825554
  5.53513543  5.6417033   5.76570956  5.91102939  6.07766279  6.27336016
  6.4942463   6.73644602  6.99995931  7.27122299  7.54442427  7.80599997
  8.04626208  8.25358504  8.41828085  8.53453671  8.59653984  8.60429023
  8.56166308  8.47640878  8.35821532  8.21870828  8.07338845  7.93581901
  7.82150075  7.74205924  7.70912008  7.72849606  7.80599997  7.9435694
  8.13539158  8.37759129  8.66048056  8.97437139  9.3095758   9.6525306
  9.9916102  10.31518902 10.61551667 10.88678035 11.12704247 11.33630302
 11.51649961 11.67150743 11.81295207 11.94277111 12.06871497 12.19659642
 12.33029066 12.4659225  12.60155434 12.73524858 12.86119244 12.97163551
 13.0665778  13.14214411 13.20220964 13.24871198 13.28746394 13.32427829
 13.36303025 13.4037198  13.44634695 13.4850989  13.51803807 13.53741404
 13.53547645 13.51222527 13.46572293 13.39596941 13.31265271 13.22546081
 13.1440817  13.08595377 13.0588274  13.08014098 13.1518321  13.28358874
 13.47153572 13.71373544]","[-2.16069308 -1.96351668 -1.75686065 -1.54262091 -1.31700561 -1.08191068
 -0.83923204 -0.59086561 -0.33870734 -0.08465314  0.16560921  0.41207971
  0.6509665   0.88226958  1.10219709  1.31074905  1.5117173   1.70130999
  1.88331897  2.05584832  2.22268988  2.38384367  2.53930967  2.68719197
  2.82749056  2.96020544  3.08344069  3.19909223  3.30526414  3.40006048
  3.48916904  3.56879797  3.64084319  3.70720064  3.76976622  3.8247481
  3.87593813  3.91954445  3.95556706  3.98211003  3.9934856   3.98969374
  3.96694262  3.92144037  3.84749923  3.74891103  3.619988    3.46262607
  3.28061709  3.07585698  2.85403354  2.62273046  2.3857396   2.15254059
  1.92692529  1.71647741  1.52498879  1.3562513   1.21216085  1.09082153
  0.99412926  0.91829219  0.85762253  0.81212028  0.77420174  0.73817913
  0.7002606   0.6585502   0.60736018  0.54669052  0.4746453   0.39312044
  0.30401188  0.21300739  0.1220029   0.03668619 -0.04483867 -0.11688389
 -0.18134541 -0.24011914 -0.29510102 -0.3500829  -0.41075256 -0.48090185
 -0.56053078 -0.6534312  -0.76149903 -0.88283835 -1.01934509 -1.16912331
 -1.33217303 -1.5065983  -1.69429506 -1.89147146 -2.10002341 -2.31805501
 -2.53987845 -2.76738968 -2.9949009  -3.21862028 -3.43475594 -3.63951605
 -3.82531688 -3.99405437 -4.14004074 -4.26138006 -4.35807234 -4.43011756
 -4.48130758 -4.50785056 -4.51543427 -4.50595463 -4.47941166 -4.43770126
 -4.38461531 -4.3201538  -4.24621265 -4.16847965 -4.08695479 -4.00922179
 -3.93528064 -3.87081913 -3.81773317 -3.77981464 -3.75895944 -3.75516759
 -3.76843907 -3.7987739  -3.84617208 -3.91063359 -3.99405437 -4.0945385
 -4.21587782 -4.35996826 -4.53060168 -4.72777808 -4.95339338 -5.20934351
 -5.49752439 -5.81793604]",13.357863320564562,3.052300091099301,5.16103,-0.15084000000000142
009,1,1,csm,12b.png,1,1,36,NaN,213,0,1,296,neu_feedback_onset,9,"[ 3.30595949e+00  2.92049800e+00  2.53731735e+00  2.15869837e+00
  1.78007940e+00  1.40830293e+00  1.04108814e+00  6.80715864e-01
  3.29466934e-01 -1.26586465e-02 -3.43380041e-01 -6.62697250e-01
 -9.70610272e-01 -1.26483827e+00 -1.54538125e+00 -1.81223920e+00
 -2.06085046e+00 -2.29121501e+00 -2.50333287e+00 -2.69492320e+00
 -2.86598599e+00 -3.01424041e+00 -3.13968645e+00 -3.24460496e+00
 -3.32671510e+00 -3.38829771e+00 -3.43163362e+00 -3.45444199e+00
 -3.46128450e+00 -3.44759948e+00 -3.41794859e+00 -3.37005101e+00
 -3.30162589e+00 -3.21267324e+00 -3.10091222e+00 -2.96634283e+00
 -2.80440338e+00 -2.61509390e+00 -2.39841436e+00 -2.14980311e+00
 -1.87154097e+00 -1.55906627e+00 -1.21694069e+00 -8.42883389e-01
 -4.43736878e-01 -1.72203209e-02  4.29823771e-01  8.92833724e-01
  1.36724786e+00  1.84622367e+00  2.32519949e+00  2.79961363e+00
  3.26490442e+00  3.71651018e+00  4.15215009e+00  4.57182413e+00
  4.97553232e+00  5.36099381e+00  5.73277027e+00  6.09086171e+00
  6.43526813e+00  6.77055120e+00  7.09214924e+00  7.40462394e+00
  7.70341362e+00  7.99079910e+00  8.26678040e+00  8.52679585e+00
  8.77312626e+00  9.00577166e+00  9.22473203e+00  9.43456905e+00
  9.63528273e+00  9.82915389e+00  1.00207442e+01  1.02100537e+01
  1.04016440e+01  1.05955152e+01  1.07916672e+01  1.09901000e+01
  1.11885329e+01  1.13824040e+01  1.15717135e+01  1.17496188e+01
  1.19138391e+01  1.20598127e+01  1.21875396e+01  1.22901772e+01
  1.23700065e+01  1.24270275e+01  1.24589592e+01  1.24726442e+01
  1.24658017e+01  1.24475550e+01  1.24179041e+01  1.23836916e+01
  1.23471982e+01  1.23129856e+01  1.22833347e+01  1.22605263e+01
  1.22468413e+01  1.22422797e+01  1.22491222e+01  1.22605263e+01
  1.22787730e+01  1.23038623e+01  1.23289515e+01  1.23540407e+01
  1.23768490e+01  1.23928149e+01  1.24019383e+01  1.23973766e+01
  1.23768490e+01  1.23357940e+01  1.22696497e+01  1.21761354e+01
  1.20506893e+01  1.18910307e+01  1.16948787e+01  1.14622333e+01
  1.11953754e+01  1.08920240e+01  1.05590218e+01  1.01963687e+01
  9.80862635e+00  9.40263733e+00  8.98068245e+00  8.54732338e+00
  8.10484096e+00  7.65551603e+00  7.20162943e+00  6.74774283e+00
  6.29385622e+00  5.84453129e+00  5.39748720e+00  4.95956646e+00
  4.53304990e+00  4.11793753e+00  3.71879102e+00  3.33789121e+00
  2.97979977e+00  2.64451670e+00  2.33660367e+00  2.05606070e+00
  1.80744944e+00  1.59305075e+00  1.41058377e+00  1.26232935e+00
  1.15056833e+00  1.07530070e+00  1.03424563e+00  1.02740312e+00
  1.05477317e+00  1.11407493e+00  1.20987009e+00  1.33759698e+00
  1.49725558e+00  1.69340758e+00  1.92377214e+00  2.19063009e+00
  2.49170060e+00  2.82926451e+00  3.20104097e+00  3.60474916e+00
  4.03810823e+00  4.49655651e+00  4.97781316e+00  5.47275483e+00
  5.98138153e+00  6.49456990e+00  7.00775827e+00  7.51638496e+00
  8.01588831e+00  8.50626831e+00  8.98296329e+00  9.44825408e+00
  9.89985984e+00  1.03400614e+01  1.07711397e+01  1.11930945e+01
  1.16104877e+01  1.20256001e+01  1.24361508e+01  1.28421398e+01
  1.32458480e+01  1.36449945e+01  1.40372985e+01  1.44227600e+01
  1.47990982e+01  1.51663129e+01  1.55266852e+01  1.58824958e+01
  1.62360256e+01  1.65895554e+01  1.69453660e+01  1.73011766e+01
  1.76615488e+01  1.80196403e+01  1.83754509e+01  1.87221381e+01
  1.90574212e+01  1.93721768e+01  1.96664048e+01  1.99378244e+01
  2.01795931e+01  2.03985535e+01  2.05901438e+01  2.07634874e+01
  2.09185844e+01  2.10599963e+01  2.11945657e+01  2.13222926e+01
  2.14477386e+01  2.15731847e+01  2.16986307e+01  2.18217959e+01
  2.19426803e+01  2.20544413e+01  2.21525173e+01  2.22300658e+01
  2.22825250e+01  2.23007717e+01  2.22825250e+01  2.22209424e+01
  2.21160239e+01  2.19677695e+01  2.17761792e+01  2.15480954e+01
  2.12903608e+01  2.10075370e+01  2.07064665e+01  2.03962727e+01
  2.00815171e+01  1.97667616e+01  1.94565677e+01  1.91532164e+01
  1.88589884e+01  1.85761646e+01  1.83070258e+01  1.80515720e+01
  1.78143649e+01  1.75954046e+01  1.73992526e+01  1.72236281e+01
  1.70708120e+01  1.69385235e+01  1.68222008e+01  1.67172822e+01
  1.66214871e+01  1.65256919e+01  1.64298968e+01  1.63249782e+01
  1.62132172e+01  1.60900520e+01  1.59577635e+01  1.58186324e+01
  1.56772205e+01  1.55380894e+01  1.54012392e+01  1.52712315e+01]","[-1.45414829 -1.2185595  -0.99804838 -0.79449966 -0.60979804 -0.44205882
 -0.2931667  -0.16312168 -0.04626964  0.05927414  0.15727908  0.24774518
  0.33821128  0.42679267  0.51914347  0.61714841  0.72457691  0.84142895
  0.97147397  1.11659667  1.28056647  1.46338338  1.66504739  1.8855585
  2.12491672  2.37746791  2.64132736  2.91084095  3.18035453  3.44421399
  3.69864989  3.9361234   4.15663451  4.35829852  4.54111543  4.70320052
  4.84832322  4.98025295  5.09710499  5.20453348  5.30065371  5.3892351
  5.46839294  5.53812722  5.59843795  5.64932513  5.68701934  5.70963586
  5.71529     5.70209702  5.66440282  5.60220737  5.50797185  5.37981155
  5.21772646  5.01983186  4.79178191  4.5354613   4.26217829  3.97758702
  3.69299576  3.42348217  3.17658511  2.96738226  2.80529717  2.69975339
  2.66017447  2.68844512  2.78645006  2.94853516  3.16716156  3.42725159
  3.70995815  3.99266471  4.26029358  4.48834354  4.66739102  4.78424307
  4.83889967  4.82759141  4.76162654  4.6447745   4.48834354  4.30175721
  4.09255436  3.86827382  3.63456973  3.39521152  3.15396859  2.91084095
  2.66771331  2.42835509  2.19088158  1.95906221  1.73289696  1.51615527
  1.31260655  1.1222508   0.94885744  0.7961959   0.66615088  0.5606071
  0.47956456  0.42490796  0.39852201  0.3966373   0.42113853  0.470141
  0.54176     0.63599552  0.74907814  0.87912316  1.02613057  1.18633095
  1.35595488  1.53123295  1.71028044  1.88367379  2.0495283   2.20030513
  2.33223486  2.43777864  2.51505177  2.56216953  2.57913192  2.56970837
  2.53766829  2.48678111  2.42647038  2.36050552  2.29831007  2.24553818
  2.20784398  2.19088158  2.20030513  2.23611463  2.30019478  2.39254559
  2.51128235  2.65263563]",20.757158122460424,4.5495023893415985,4.384355,0.48599499999999995
009,1,1,csm,61b.png,1,1,356,359,360,1,1,273,neu_feedback_onset,10,"[ 2.40233262e-01  1.72773064e-01  1.12808443e-01  6.40871886e-02
  2.66093005e-02  4.12256769e-03 -7.12079873e-03 -7.12079873e-03
  3.74778880e-04  1.16181453e-02  2.09876173e-02  2.66093005e-02
  2.66093005e-02  1.53659341e-02 -5.24690433e-03 -3.71031092e-02
 -8.02026804e-02 -1.32671724e-01 -1.92636345e-01 -2.60096543e-01
 -3.33178425e-01 -4.08134201e-01 -4.88711660e-01 -5.69289119e-01
 -6.53614368e-01 -7.37939616e-01 -8.24138758e-01 -9.10337901e-01
 -9.96537043e-01 -1.08461008e+00 -1.17268312e+00 -1.26075615e+00
 -1.34508140e+00 -1.42753276e+00 -1.50623632e+00 -1.57931820e+00
 -1.64490451e+00 -1.70299523e+00 -1.75171649e+00 -1.78919438e+00
 -1.81542890e+00 -1.83229395e+00 -1.83791563e+00 -1.83604174e+00
 -1.82667226e+00 -1.81355500e+00 -1.80043774e+00 -1.78732048e+00
 -1.77982490e+00 -1.77607711e+00 -1.78169880e+00 -1.79294216e+00
 -1.81168111e+00 -1.83416784e+00 -1.85665457e+00 -1.87726741e+00
 -1.89413246e+00 -1.90162804e+00 -1.89975415e+00 -1.88476299e+00
 -1.85852847e+00 -1.81917669e+00 -1.77045543e+00 -1.71236470e+00
 -1.65052619e+00 -1.58681378e+00 -1.52310137e+00 -1.46313675e+00
 -1.40691992e+00 -1.35819866e+00 -1.31509909e+00 -1.27762120e+00
 -1.24763889e+00 -1.22515216e+00 -1.20828711e+00 -1.19891764e+00
 -1.19704374e+00 -1.20453932e+00 -1.22140437e+00 -1.24951279e+00
 -1.29073846e+00 -1.34508140e+00 -1.41254160e+00 -1.49311906e+00
 -1.58681378e+00 -1.69175187e+00 -1.80418553e+00 -1.92224088e+00
 -2.04404401e+00 -2.16772104e+00 -2.29139808e+00 -2.41507511e+00
 -2.53687824e+00 -2.65868138e+00 -2.78235841e+00 -2.90603544e+00
 -3.03158636e+00 -3.15901118e+00 -3.28456211e+00 -3.41011303e+00
 -3.53004228e+00 -3.64247594e+00 -3.73991845e+00 -3.82236980e+00
 -3.88233442e+00 -3.92168621e+00 -3.93667736e+00 -3.92918178e+00
 -3.90107337e+00 -3.85609990e+00 -3.79988307e+00 -3.73617066e+00
 -3.66871046e+00 -3.60125026e+00 -3.53753785e+00 -3.47944713e+00
 -3.42510419e+00 -3.37638293e+00 -3.33140947e+00 -3.28643600e+00
 -3.24333643e+00 -3.20023686e+00 -3.15713729e+00 -3.11216382e+00
 -3.06906425e+00 -3.02409079e+00 -2.98286511e+00 -2.94351333e+00
 -2.90416154e+00 -2.86855755e+00 -2.83482745e+00 -2.80109735e+00
 -2.76549336e+00 -2.72988937e+00 -2.69241148e+00 -2.65305969e+00
 -2.60996012e+00 -2.56686055e+00 -2.52188709e+00 -2.47691362e+00
 -2.43194016e+00 -2.38696669e+00 -2.34199322e+00 -2.29701976e+00
 -2.25017240e+00 -2.19957725e+00 -2.14336042e+00 -2.08339580e+00
 -2.01593560e+00 -1.93910593e+00 -1.85665457e+00 -1.76670764e+00
 -1.67301292e+00 -1.57557041e+00 -1.47812790e+00 -1.38630708e+00
 -1.30198183e+00 -1.22889995e+00 -1.17080922e+00 -1.12770965e+00
 -1.10334902e+00 -1.09397955e+00 -1.09960124e+00 -1.11646628e+00
 -1.14082691e+00 -1.16518754e+00 -1.18580038e+00 -1.19516985e+00
 -1.18767427e+00 -1.15769196e+00 -1.10334902e+00 -1.01714988e+00
 -9.00968429e-01 -7.51056876e-01 -5.71163014e-01 -3.59412946e-01
 -1.21428357e-01  1.40916859e-01  4.22001019e-01  7.19950229e-01
  1.02726891e+00  1.34020928e+00  1.65689743e+00  1.96983780e+00
  2.27903037e+00  2.58072737e+00  2.87680269e+00  3.16725632e+00
  3.45583606e+00  3.74441579e+00  4.04049111e+00  4.34593590e+00
  4.66637184e+00  5.00367283e+00  5.36158666e+00  5.73636554e+00
  6.12613558e+00  6.52902288e+00  6.93565796e+00  7.33667136e+00
  7.72456751e+00  8.08997691e+00  8.42165622e+00  8.71210986e+00
  8.95384223e+00  9.14310557e+00  9.27615207e+00  9.35672953e+00
  9.38483795e+00  9.36984679e+00  9.31737775e+00  9.23492639e+00
  9.13373610e+00  9.02130243e+00  8.90699487e+00  8.79643510e+00
  8.69149702e+00  8.59405451e+00  8.50223368e+00  8.41603454e+00
  8.32608761e+00  8.23051899e+00  8.11995922e+00  7.99066051e+00
  7.83700117e+00  7.65898120e+00  7.45097892e+00  7.21674212e+00
  6.96001859e+00  6.68080832e+00  6.38660690e+00  6.08303601e+00
  5.77571733e+00  5.46839864e+00  5.16857554e+00  4.88186970e+00
  4.60828111e+00  4.35343148e+00  4.11919468e+00  3.90744461e+00
  3.71818127e+00  3.55140467e+00  3.40898870e+00  3.28531167e+00
  3.18224747e+00  3.09417444e+00  3.01734477e+00  2.94238899e+00
  2.86368543e+00  2.77748628e+00  2.67254820e+00  2.54699727e+00
  2.39521183e+00  2.21906575e+00  2.01668516e+00  1.79369172e+00
  1.55570713e+00  1.31210086e+00  1.07036848e+00  8.41753366e-01]","[-0.56965405 -0.51240239 -0.44527975 -0.37026033 -0.28931832 -0.20837631
 -0.12743431 -0.05044069  0.02063034  0.08183039  0.13513367  0.17659177
  0.21015309  0.23384343  0.25161119  0.26543056  0.27727573  0.2891209
  0.30491446  0.32663061  0.35426935  0.38980486  0.43323716  0.48456623
  0.54379209  0.60696634  0.67606318  0.74516001  0.81425685  0.88137949
  0.94652793  1.00772799  1.06300546  1.11630873  1.16368942  1.20909591
  1.2545024   1.2959605   1.33544441  1.37492831  1.41046383  1.44205095
  1.46771549  1.48548325  1.49535422  1.49338003  1.48153486  1.45587032
  1.4203348   1.37295412  1.31570245  1.25055401  1.17750878  1.09854097
  1.01562477  0.93073437  0.84189558  0.7510826   0.66026962  0.56945663
  0.48259204  0.39770164  0.31873383  0.2476628   0.18843694  0.13908206
  0.10157235  0.077882    0.06801103  0.06603683  0.07393361  0.08577879
  0.09762396  0.10946913  0.11539171  0.11736591  0.11539171  0.10749493
  0.09564976  0.08380459  0.06998522  0.05616586  0.04234649  0.02655293
  0.00878517 -0.01095678 -0.03859552 -0.07413103 -0.11558913 -0.16691821
 -0.22811827 -0.29524091 -0.36828613 -0.44725394 -0.52819595 -0.60913796
 -0.69007996 -0.77102197 -0.84801559 -0.92303501 -0.99805443 -1.07109966
 -1.14611908 -1.22508689 -1.30800309 -1.39684188 -1.48962906 -1.59031302
 -1.69494537 -1.80352611 -1.91210685 -2.0187134  -2.11742316 -2.20823615
 -2.28325557 -2.34050723 -2.37801694 -2.39183631 -2.37999114 -2.34445562
 -2.28325557 -2.20033936 -2.09768121 -1.97330691 -1.83511323 -1.681126
 -1.51726779 -1.34156441 -1.15599005 -0.96251892 -0.76312519 -0.55780888
 -0.34854418 -0.13730528  0.07590781  0.28714671  0.49641141  0.70172772
  0.90309564  1.09656678]",7.579012757473056,1.0404502744624942,5.336480000000002,-0.088565
009,1,1,csp,31a.png,1,1,88,192,91,1,1,366,pos_feedback_onset,11,"[ 0.98515743  0.92646535  0.85690436  0.77864826  0.69169703  0.59822446
  0.49823054  0.39388907  0.28302625  0.16998965  0.05260549 -0.07130001
 -0.20172685 -0.34084882 -0.48866591 -0.64952568 -0.82342814 -1.01254706
 -1.21470867 -1.43208674 -1.66468128 -1.90814472 -2.16030329 -2.42115697
 -2.68635822 -2.95373325 -3.2189345  -3.48196197 -3.73846809 -3.99062666
 -4.2340901  -4.46885842 -4.70145296 -4.92969993 -5.15794691 -5.39054145
 -5.62965733 -5.87529455 -6.12962689 -6.39265436 -6.66002939 -6.92740442
 -7.18608433 -7.42737399 -7.6404045  -7.81430696 -7.94256002 -8.012121
 -8.01864234 -7.95777648 -7.82734964 -7.62953559 -7.36868191 -7.05565748
 -6.69698366 -6.30570313 -5.89485857 -5.47314511 -5.05577921 -4.64928222
 -4.26669681 -3.91237055 -3.59282478 -3.31023329 -3.06676985 -2.86243446
 -2.69505334 -2.56027894 -2.45376368 -2.36898624 -2.29725147 -2.22986427
 -2.15160816 -2.05813559 -1.93423009 -1.7755441  -1.57555627 -1.32774527
 -1.03645865 -0.7038702  -0.33650126  0.05695306  0.46345005  0.87212083
  1.27209648  1.65033433  2.00248681  2.31768501  2.59375516  2.82852348
  3.02198997  3.1763284   3.29371256  3.38066379  3.43935587  3.47413636
  3.49370038  3.50239551  3.50239551  3.50022173  3.50022173  3.50674307
  3.52195953  3.5480449   3.59152052  3.6502126   3.7284687   3.82411505
  3.93932543  4.07192606  4.21974315  4.3827767   4.55667916  4.74145052
  4.93274322  5.12838349  5.32619754  5.52401158  5.71965185  5.91311833
  6.10006347  6.28266106  6.45656351  6.62177085  6.78045684  6.92827393
  7.06522212  7.1913014   7.30651178  7.41085325  7.50215204  7.58040815
  7.64779535  7.70213987  7.74561548  7.7782222   7.80430756  7.81952403
  7.82821915  7.83039293  7.82387159  7.81300269  7.79343866  7.76735329
  7.73474658  7.69127097  7.64127401  7.58475571  7.52388985  7.45867643
  7.39563679  7.33694471  7.28260019  7.23695079  7.2021703   7.17825871
  7.16738981  7.16956359  7.1804325   7.19999652  7.22825567  7.26086238
  7.29781665  7.33477093  7.3717252   7.40650569  7.44128618  7.47171911
  7.5064996   7.5412801   7.58475571  7.63910023  7.70866121  7.79996
  7.91517038  8.05646613  8.22384724  8.41731373  8.6346918   8.86946012
  9.11727112  9.37377725  9.63463094  9.89548462 10.15416453 10.40849687
 10.65848166 10.90411888 11.1497561  11.39539332 11.64103055 11.89101533
 12.14100011 12.39533246 12.6496648  12.90399715 13.15615571 13.40179293
 13.63873503 13.86480823 14.0713174  14.25826254 14.41912231 14.54954916
 14.64519551 14.70171381 14.71475649 14.68649734 14.61693636 14.50389976
 14.34956133 14.16261619 13.94306434 13.70177467 13.44309477 13.17354596
 12.90182337 12.63227456 12.37576843 12.13447877 11.91057936 11.70841775
 11.52799395 11.36278661 11.21496952 11.07584756 10.94324693 10.81064631
 10.6758719  10.53022859 10.37589016 10.20850905 10.02591147  9.8302712
  9.61941447  9.39768884  9.16292052  8.9172833   8.66512473  8.40209726
  8.13472223  7.86299964  7.58692949  7.30868556  7.03044163  6.75219769
  6.47612754  6.20440495  5.93702992  5.67400245  5.41749633  5.16751154
  4.92187432  4.68493222  4.45233768  4.22626449  4.00888642  3.79368212
  3.58499917  3.38066379]","[ -2.47798477  -2.17493313  -1.86797116  -1.55905401  -1.25209203
  -0.95099557  -0.65576463  -0.37030954  -0.10049583   0.15563168
   0.39416264   0.61118671   0.80865906   0.98266936   1.13517276
   1.26812444   1.38152441   1.479283     1.56140022   1.6317864
   1.69239673   1.7432312    1.79015532   1.82925876   1.8605415
   1.88595874   1.90355528   1.9094208    1.90551046   1.88595874
   1.85076565   1.79993118   1.73150016   1.64742778   1.54380367
   1.42062784   1.27985547   1.12148656   0.94356592   0.74804874
   0.53493501   0.30226956   0.05396274  -0.20803028  -0.48370951
  -0.77111977  -1.06635071  -1.365492    -1.66658846  -1.96964009
  -2.26878138  -2.56401233  -2.85337775  -3.1349225   -3.40669138
  -3.6686844   -3.91699123  -4.15161184  -4.37059109  -4.57392896
  -4.76358062  -4.93563574  -5.09595983  -5.24650806  -5.38923561
  -5.52414246  -5.65709415  -5.78418031  -5.90540097  -6.02271128
  -6.13024573  -6.22995949  -6.31794222  -6.39419392  -6.46066976
  -6.51736975  -6.57015939  -6.62294902  -6.67769384  -6.74221451
  -6.82042138  -6.91231445  -7.02571442  -7.1586661   -7.31312468
  -7.48909014  -7.68265215  -7.89576588  -8.12647615  -8.37087263
  -8.62895531  -8.89876902  -9.17835859  -9.46772402  -9.76686531
 -10.06991694 -10.37883409 -10.68970641 -11.0025339  -11.31340622
 -11.62232337 -11.925375   -12.22060595 -12.50606103 -12.77782992
 -13.03786777 -13.28030907 -13.50319866 -13.70458136 -13.88250199
 -14.03305022 -14.15427088 -14.24811912 -14.31068462 -14.34392254
 -14.34783289 -14.32437083 -14.27353636 -14.19923983 -14.10148124
 -13.98808127 -13.85708476 -13.71631239 -13.56771933 -13.41130559
 -13.25489184 -13.09847809 -12.94597469 -12.79542646 -12.64878858
 -12.5080162  -12.36919901 -12.23429215 -12.10134047 -11.97034395
 -11.83934744 -11.7103061  -11.58517511 -11.46395445 -11.34859931]",12.96442825219333,1.044843820874985,4.600280000000001,0.3364250000000011
009,1,1,csm,9b.png,1,1,108,198,110,1,1,400,neu_feedback_onset,12,"[ 0.38483677  0.38025946  0.37339351  0.36195025  0.34135239  0.31159992
  0.27040419  0.22005385  0.16054891  0.09417801  0.02094116 -0.05229569
 -0.12782119 -0.20105804 -0.26971759 -0.33608849 -0.40017073 -0.45738702
 -0.51231466 -0.562665   -0.61301533 -0.66107702 -0.7091387  -0.75491173
 -0.80297342 -0.8510351  -0.89680813 -0.93800386 -0.97691094 -1.00666341
 -1.03183858 -1.04557049 -1.05014779 -1.05014779 -1.04328183 -1.03412723
 -1.02954993 -1.03183858 -1.04557049 -1.07761161 -1.12567329 -1.18746689
 -1.26299239 -1.34080654 -1.40946609 -1.46210508 -1.48499159 -1.46668238
 -1.40031149 -1.2813016  -1.11423003 -0.89909678 -0.64963376 -0.37728422
 -0.09349142  0.18572408  0.44663036  0.68465013  0.88834012  1.05998899
  1.19959674  1.31402932  1.40786404  1.49254415  1.5749356   1.66419302
  1.76489369  1.87932627  2.01206806  2.15625311  2.30959277  2.46750973
  2.61856074  2.75587983  2.87031241  2.95728117  3.00992016  3.02594072
  3.00534286  2.95041522  2.86573511  2.75816848  2.6345813   2.5018395
  2.37138636  2.24551052  2.13107794  2.03266592  1.95256312  1.88848087
  1.83813054  1.80151211  1.77175964  1.74429582  1.71912065  1.69165684
  1.65961571  1.62528594  1.58637886  1.54976044  1.51543066  1.49025549
  1.47652358  1.48110089  1.50627605  1.55433774  1.62986324  1.73285256
  1.86330571  2.02122267  2.20202614  2.40571614  2.62542669  2.8565805
  3.09460027  3.33262004  3.5660625   3.79263901  4.00548361  4.20230765
  4.38082247  4.54560539  4.69207909  4.82482088  4.94840807  5.060552
  5.16811863  5.27110795  5.37180862  5.47479794  5.57549861  5.67619928
  5.77689995  5.87531197  5.97143534  6.06755871  6.15681612  6.24378488
  6.32617634  6.40627914  6.48180465  6.5550415   6.6259897   6.6923606
  6.75873149  6.82052509  6.88231868  6.93724632  6.9898853   7.03794699
  7.07914272  7.11804979  7.14780227  7.17526608  7.20044125  7.22103912
  7.24163698  7.2645235   7.29198732  7.32631709  7.36522417  7.41328585
  7.47279079  7.54373899  7.62613045  7.72454247  7.83897505  7.9740055
  8.13192246  8.31501458  8.52328188  8.76130165  9.02907389  9.31973264
  9.63327791  9.96284374 10.29698688 10.63341866 10.96069584 11.27424111
 11.56718852 11.84182671 12.09586704 12.33388681 12.55817466 12.77788522
 12.99759577 13.21959498 13.45303744 13.69792316 13.95425214 14.22202438
 14.49437392 14.76901211 15.04365031 15.30913389 15.56317422 15.80119399
 16.02090454 16.22001723 16.39853206 16.55644902 16.69376812 16.812778
 16.91347867 17.00273608 17.07826159 17.14692113 17.20871473 17.26821967
 17.32543596 17.38265225 17.44215719 17.49937348 17.55887842 17.61838337
 17.67559966 17.72823864 17.77630033 17.8152074  17.84495987 17.86555774
 17.87471235 17.87242369 17.86098044 17.83809392 17.80834145 17.77172302
 17.73052729 17.68704291 17.64126988 17.59549685 17.54743517 17.49708483
 17.44673449 17.39409551 17.33687922 17.27508562 17.21100338 17.14005518
 17.06681833 16.98900417 16.90661272 16.82422126 16.7372525  16.64799508
 16.55187172 16.44888239 16.33902712 16.21543993 16.08040949 15.93164713
 15.76686422 15.59063804 15.40296861 15.20843322 15.01160919 14.81478515
 14.62482706 14.44402359]","[-2.78811702e+00 -2.55192528e+00 -2.28831842e+00 -1.99518759e+00
 -1.68096822e+00 -1.34566029e+00 -9.97699239e-01 -6.43411621e-01
 -2.84906293e-01  6.72724704e-02  4.11015814e-01  7.35779464e-01
  1.03523686e+00  1.30306142e+00  1.53292661e+00  1.72061469e+00
  1.85979911e+00  1.94837102e+00  1.98633040e+00  1.97578613e+00
  1.92306476e+00  1.83238400e+00  1.71217927e+00  1.57510370e+00
  1.43381043e+00  1.29673486e+00  1.17863899e+00  1.08584937e+00
  1.03101915e+00  1.01625716e+00  1.04578113e+00  1.11537334e+00
  1.22503379e+00  1.36210936e+00  1.52027348e+00  1.68687301e+00
  1.84925484e+00  1.99898353e+00  2.12129711e+00  2.21197787e+00
  2.26469925e+00  2.27946123e+00  2.25626383e+00  2.19510703e+00
  2.10231742e+00  1.98000384e+00  1.83449285e+00  1.66578446e+00
  1.48020523e+00  1.27353746e+00  1.04788999e+00  8.05371675e-01
  5.45982526e-01  2.73940248e-01 -4.42859523e-03 -2.82797438e-01
 -5.48513152e-01 -7.97358027e-01 -1.01667893e+00 -1.20436702e+00
 -1.35198686e+00 -1.46164731e+00 -1.53334838e+00 -1.57341662e+00
 -1.58606975e+00 -1.57974318e+00 -1.55865463e+00 -1.53123952e+00
 -1.50171555e+00 -1.47219159e+00 -1.44688533e+00 -1.42368792e+00
 -1.40259937e+00 -1.38151083e+00 -1.36042228e+00 -1.33722487e+00
 -1.30980976e+00 -1.27817694e+00 -1.24443526e+00 -1.20647587e+00
 -1.16851648e+00 -1.13055710e+00 -1.09470656e+00 -1.06307374e+00
 -1.03565863e+00 -1.01246122e+00 -9.95590384e-01 -9.80828400e-01
 -9.70284126e-01 -9.59739852e-01 -9.49195577e-01 -9.34433593e-01
 -9.15453899e-01 -8.88038786e-01 -8.52188253e-01 -8.03684591e-01
 -7.40418945e-01 -6.62391315e-01 -5.63275136e-01 -4.45179263e-01
 -3.01777132e-01 -1.33068742e-01  6.30547606e-02  2.86593377e-01
  5.37547107e-01  8.13807095e-01  1.11326449e+00  1.43381043e+00
  1.76911835e+00  2.11497055e+00  2.46293160e+00  2.81089266e+00
  3.15041829e+00  3.47518194e+00  3.78518361e+00  4.07409672e+00
  4.33981244e+00  4.58233075e+00  4.80165166e+00  5.00199287e+00
  5.18124553e+00  5.34362736e+00  5.48913834e+00  5.61988734e+00
  5.73587436e+00  5.83709940e+00  5.92356245e+00  5.99315466e+00
  6.04587603e+00  6.07961771e+00  6.09648855e+00  6.09227084e+00
  6.07118229e+00  6.03322290e+00  5.98050153e+00  5.91301817e+00
  5.83288169e+00  5.74220093e+00  5.64097589e+00  5.53342430e+00]",17.45606074996826,5.155658092765717,4.369384999999999,-0.06700999999999979
009,1,1,csm,28b.png,1,1,328,155,332,1,0,335,neu_feedback_onset,13,"[ 1.18205616e+00  1.13327805e+00  1.06824057e+00  9.91008569e-01
  8.99549615e-01  7.97928556e-01  6.84112970e-01  5.60135278e-01
  4.23963059e-01  2.75596312e-01  1.13002618e-01 -6.17856040e-02
 -2.50800774e-01 -4.49978050e-01 -6.59317432e-01 -8.76786498e-01
 -1.10238525e+00 -1.33611369e+00 -1.57390696e+00 -1.81779751e+00
 -2.06778531e+00 -2.32387038e+00 -2.58402029e+00 -2.85026747e+00
 -3.11854706e+00 -3.38885908e+00 -3.65307383e+00 -3.90915890e+00
 -4.15304944e+00 -4.37661577e+00 -4.57782547e+00 -4.75261369e+00
 -4.89691560e+00 -5.01479603e+00 -5.10422256e+00 -5.16926004e+00
 -5.21194088e+00 -5.24039478e+00 -5.25462173e+00 -5.26478383e+00
 -5.26884867e+00 -5.27291352e+00 -5.27697836e+00 -5.28104320e+00
 -5.28510804e+00 -5.28714046e+00 -5.28307562e+00 -5.27088110e+00
 -5.25055688e+00 -5.21600572e+00 -5.16722761e+00 -5.10015772e+00
 -5.01682845e+00 -4.91520739e+00 -4.79326212e+00 -4.65505748e+00
 -4.49856105e+00 -4.32377282e+00 -4.13475765e+00 -3.92948311e+00
 -3.70998163e+00 -3.47828561e+00 -3.23642749e+00 -2.98440726e+00
 -2.72425735e+00 -2.46004260e+00 -2.19176300e+00 -1.92348341e+00
 -1.65926865e+00 -1.40318358e+00 -1.15726062e+00 -9.27597028e-01
 -7.20290067e-01 -5.39404582e-01 -3.86972993e-01 -2.71124986e-01
 -1.87795717e-01 -1.43082451e-01 -1.32920345e-01 -1.55276978e-01
 -2.02022666e-01 -2.69092565e-01 -3.48356991e-01 -4.33718680e-01
 -5.15015528e-01 -5.90215111e-01 -6.55252589e-01 -7.08095540e-01
 -7.50776385e-01 -7.85327545e-01 -8.17846284e-01 -8.48332602e-01
 -8.82883762e-01 -9.21499764e-01 -9.62148188e-01 -1.00482903e+00
 -1.04344504e+00 -1.07596377e+00 -1.10035283e+00 -1.10848251e+00
 -1.10238525e+00 -1.08002862e+00 -1.04547746e+00 -1.00076419e+00
 -9.51986082e-01 -9.01175552e-01 -8.52397444e-01 -8.09716599e-01
 -7.77197860e-01 -7.50776385e-01 -7.32484594e-01 -7.20290067e-01
 -7.10127961e-01 -6.99965855e-01 -6.87771328e-01 -6.73544380e-01
 -6.53220168e-01 -6.26798693e-01 -5.94279954e-01 -5.55663951e-01
 -5.12983107e-01 -4.62172577e-01 -4.07297205e-01 -3.48356991e-01
 -2.83319513e-01 -2.16249614e-01 -1.45114872e-01 -7.19477099e-02
  3.25187389e-03  7.64190365e-02  1.51618620e-01  2.24785783e-01
  2.97952945e-01  3.69087687e-01  4.38190007e-01  5.09324748e-01
  5.78427069e-01  6.49561810e-01  7.18664130e-01  7.89798872e-01
  8.58901192e-01  9.23938670e-01  9.84911305e-01  1.04181910e+00
  1.09059721e+00  1.12921321e+00  1.15969953e+00  1.18002374e+00
  1.19018584e+00  1.19018584e+00  1.18002374e+00  1.16173195e+00
  1.13327805e+00  1.09872689e+00  1.05807847e+00  1.01336520e+00
  9.64587093e-01  9.15808985e-01  8.67030877e-01  8.24350032e-01
  7.87766450e-01  7.61344975e-01  7.51182869e-01  7.55247711e-01
  7.79636766e-01  8.20285189e-01  8.83290246e-01  9.62554672e-01
  1.05604605e+00  1.16376437e+00  1.27961238e+00  1.40155765e+00
  1.52756776e+00  1.65561030e+00  1.78975009e+00  1.92795473e+00
  2.07835390e+00  2.24501244e+00  2.43606003e+00  2.65352910e+00
  2.90554932e+00  3.19618555e+00  3.52747020e+00  3.89533844e+00
  4.29775783e+00  4.72863112e+00  5.17576378e+00  5.63102613e+00
  6.08019121e+00  6.51309692e+00  6.91958116e+00  7.28948181e+00
  7.61466920e+00  7.89107848e+00  8.11667724e+00  8.28943304e+00
  8.41341073e+00  8.49064273e+00  8.52722631e+00  8.52722631e+00
  8.49877242e+00  8.44999431e+00  8.38292441e+00  8.30975725e+00
  8.23659009e+00  8.16748776e+00  8.10651513e+00  8.05773702e+00
  8.02115344e+00  7.99269954e+00  7.97237533e+00  7.95001870e+00
  7.92156480e+00  7.87481911e+00  7.80368437e+00  7.70206331e+00
  7.55979383e+00  7.37687592e+00  7.15127717e+00  6.88299758e+00
  6.57813440e+00  6.24075248e+00  5.88101393e+00  5.50501602e+00
  5.12292083e+00  4.74285807e+00  4.37092500e+00  4.01525129e+00
  3.67990179e+00  3.37097377e+00  3.09253207e+00  2.84254427e+00
  2.62710762e+00  2.44215729e+00  2.28566086e+00  2.15965075e+00
  2.05599727e+00  1.97063558e+00  1.90153326e+00  1.84259304e+00
  1.78568525e+00  1.73080988e+00  1.66983724e+00  1.59870250e+00
  1.51740566e+00  1.42391428e+00  1.31416354e+00  1.19221827e+00
  1.05807847e+00  9.15808985e-01  7.65409817e-01  6.10945808e-01
  4.56481798e-01  3.06082630e-01  1.63813147e-01  3.57706128e-02
 -7.60125522e-02 -1.63406663e-01 -2.24379299e-01 -2.56898037e-01]","[-2.02902225 -1.88011796 -1.74127476 -1.61048045 -1.47968613 -1.3368185
 -1.17382866 -0.98467996 -0.76132352 -0.50375933 -0.2119874   0.11399228
  0.46411859  0.82833045  1.20059119  1.56681527  1.92096603  2.25097014
  2.55079095  2.81640402  3.04780935  3.24299471  3.40598454  3.53879108
  3.64745097  3.73800088  3.81245303  3.87885629  3.9392229   3.99556507
  4.04989501  4.10422496  4.15654268  4.20483597  4.25111703  4.28934922
  4.31953252  4.34166694  4.35172804  4.34971582  4.33563028  4.30544698
  4.26117813  4.20282375  4.1283716   4.04184613  3.94123512  3.83257523
  3.71586646  3.59312102  3.47037559  3.34964238  3.23293361  3.12226149
  3.02165048  2.92908835  2.8445751   2.77012296  2.70371969  2.64335308
  2.58902314  2.53670541  2.49042435  2.44414328  2.40188666  2.35963003
  2.31938563  2.28115344  2.24493348  2.21273796  2.18255465  2.15840801
  2.14029803  2.12621249  2.11816361  2.11011473  2.10206585  2.08999252
  2.0678581   2.02962592  1.97328375  1.89078272  1.78212283  1.64126742
  1.47224092  1.27504334  1.04967467  0.80418381  0.54259518  0.26893323
 -0.00875316 -0.28643955 -0.55808928 -0.81766568 -1.06114433 -1.28651299
 -1.49175946 -1.67285927 -1.83182467 -1.96664343 -2.07731554 -2.16585323
 -2.23426871 -2.28054978 -2.31073308 -2.32079418 -2.3127453  -2.28859866
 -2.25036648 -2.19402431 -2.1235966  -2.03707113 -1.94048456 -1.82981245
 -1.71109146 -1.58633381 -1.45755171 -1.32876962 -1.19998752 -1.07522987
 -0.95650888 -0.84382455 -0.73717688 -0.63656586 -0.53997929 -0.44741716
 -0.35485503 -0.2622929  -0.16771855 -0.07113198  0.02746681  0.1260656
  0.22667661  0.32326318  0.41783753  0.50637522  0.58686403  0.65930395
  0.72570722  0.78406161]",6.887621335544614,3.728291916810768,4.92024,-0.3146900000000006
009,1,1,csp,20a.png,1,1,324,231,319,1,1,492,neg_feedback_onset,14,"[ 6.19539561e-01  4.35355087e-01  2.57748630e-01  8.89128621e-02
 -6.67668718e-02 -2.02712555e-01 -3.10153498e-01 -3.84704357e-01
 -4.21979786e-01 -4.24172458e-01 -3.89089701e-01 -3.21116860e-01
 -2.26831950e-01 -1.15005663e-01  5.59131439e-03  1.23995619e-01
  2.31436562e-01  3.19143454e-01  3.78345607e-01  4.02465002e-01
  3.89308968e-01  3.32299488e-01  2.33629234e-01  9.54908790e-02
 -7.77302333e-02 -2.81648758e-01 -5.05301333e-01 -7.35531926e-01
 -9.65762518e-01 -1.18064440e+00 -1.36702155e+00 -1.51612327e+00
 -1.61917887e+00 -1.67399567e+00 -1.67618835e+00 -1.63452757e+00
 -1.54901335e+00 -1.43060905e+00 -1.29027802e+00 -1.13679096e+00
 -9.78918552e-01 -8.25431491e-01 -6.80715118e-01 -5.53540124e-01
 -4.46099181e-01 -3.58392289e-01 -2.94804792e-01 -2.59722035e-01
 -2.50951346e-01 -2.72878069e-01 -3.29887549e-01 -4.19787113e-01
 -5.46962107e-01 -7.09219858e-01 -9.06560366e-01 -1.13679096e+00
 -1.39552629e+00 -1.68057369e+00 -1.98754781e+00 -2.31206332e+00
 -2.64754218e+00 -2.99398440e+00 -3.34261930e+00 -3.69344687e+00
 -4.04208177e+00 -4.38633132e+00 -4.72181018e+00 -5.04851836e+00
 -5.36207050e+00 -5.65808126e+00 -5.93874331e+00 -6.20186399e+00
 -6.44305794e+00 -6.66232518e+00 -6.85966568e+00 -7.03507947e+00
 -7.18856653e+00 -7.32012687e+00 -7.43195316e+00 -7.52843074e+00
 -7.60736694e+00 -7.67314711e+00 -7.73015659e+00 -7.77620271e+00
 -7.81567081e+00 -7.85075357e+00 -7.88364365e+00 -7.91653374e+00
 -7.95161649e+00 -7.99108459e+00 -8.03713071e+00 -8.08975485e+00
 -8.15114967e+00 -8.22131519e+00 -8.29805872e+00 -8.38576561e+00
 -8.48224319e+00 -8.58529879e+00 -8.69493241e+00 -8.80895137e+00
 -8.92735567e+00 -9.05233799e+00 -9.17951299e+00 -9.31326600e+00
 -9.45359702e+00 -9.60050607e+00 -9.75837847e+00 -9.92721424e+00
 -1.01113987e+01 -1.03087392e+01 -1.05214284e+01 -1.07516590e+01
 -1.09972383e+01 -1.12603590e+01 -1.15410211e+01 -1.18348392e+01
 -1.21461986e+01 -1.24707141e+01 -1.28061930e+01 -1.31570206e+01
 -1.35166188e+01 -1.38893731e+01 -1.42708981e+01 -1.46611938e+01
 -1.50580674e+01 -1.54659045e+01 -1.58781269e+01 -1.62947346e+01
 -1.67135350e+01 -1.71345281e+01 -1.75555212e+01 -1.79721289e+01
 -1.83821587e+01 -1.87856104e+01 -1.91759060e+01 -1.95530457e+01
 -1.99148366e+01 -2.02612788e+01 -2.05879870e+01 -2.08971538e+01
 -2.11887792e+01 -2.14606706e+01 -2.17172132e+01 -2.19562145e+01
 -2.21798671e+01 -2.23859783e+01 -2.25789335e+01 -2.27587326e+01
 -2.29209903e+01 -2.30678994e+01 -2.31950744e+01 -2.33003227e+01
 -2.33836442e+01 -2.34384610e+01 -2.34625804e+01 -2.34538097e+01
 -2.34077636e+01 -2.33200567e+01 -2.31884964e+01 -2.30152753e+01
 -2.27938153e+01 -2.25285020e+01 -2.22193352e+01 -2.18707003e+01
 -2.14825973e+01 -2.10681822e+01 -2.06296478e+01 -2.01801500e+01
 -1.97328448e+01 -1.92986957e+01 -1.88930513e+01 -1.85334531e+01
 -1.82242863e+01 -1.79808996e+01 -1.77989078e+01 -1.76783109e+01
 -1.76081453e+01 -1.75664846e+01 -1.75335945e+01 -1.74809703e+01
 -1.73779147e+01 -1.71959229e+01 -1.69086829e+01 -1.64986532e+01
 -1.59526777e+01 -1.52707567e+01 -1.44550826e+01 -1.35210042e+01
 -1.24882555e+01 -1.13853413e+01 -1.02363810e+01 -9.06987937e+00
 -7.91434106e+00 -6.79169284e+00 -5.71947608e+00 -4.71084682e+00
 -3.77457575e+00 -2.90847018e+00 -2.11691548e+00 -1.38894827e+00
 -7.13605203e-01 -8.21155780e-02  5.20869307e-01  1.10850549e+00
  1.69175632e+00  2.27939250e+00  2.88457006e+00  3.50728899e+00
  4.14974198e+00  4.81192901e+00  5.48946476e+00  6.17796386e+00
  6.86865564e+00  7.55276940e+00  8.21934178e+00  8.86398744e+00
  9.47355034e+00  1.00436451e+01  1.05655012e+01  1.10369257e+01
  1.14491481e+01  1.18065537e+01  1.21069498e+01  1.23481437e+01
  1.25367136e+01  1.26726592e+01  1.27625588e+01  1.28086049e+01
  1.28195683e+01  1.27998342e+01  1.27537881e+01  1.26880079e+01
  1.26090717e+01  1.25169795e+01  1.24205019e+01  1.23196390e+01
  1.22165834e+01  1.21113351e+01  1.20038942e+01  1.18898752e+01
  1.17670856e+01  1.16311399e+01  1.14754602e+01  1.12978537e+01
  1.10939352e+01  1.08637046e+01  1.06071619e+01  1.03264999e+01
  1.00261038e+01  9.71255162e+00  9.39022879e+00  9.06790597e+00
  8.75216115e+00  8.44957237e+00  8.16452497e+00  7.90140430e+00
  7.66240302e+00  7.44971380e+00  7.26552933e+00  7.10984959e+00]","[-3.26467225 -3.06421732 -2.83211161 -2.56624508 -2.26872777 -1.94166973
 -1.58718101 -1.20526163 -0.80435177 -0.38445145  0.04810918  0.48911002
  0.93222091  1.37322175  1.81211254  2.24045307  2.65824334  3.06548335
  3.457953    3.84198244  4.21546162  4.58050059  4.94342951  5.30635843
  5.6713974   6.04487658  6.42468592  6.81504551  7.21595537  7.62530543
  8.0388756   8.45455581  8.87023603  9.27747604  9.67416579 10.05397513
 10.41690405 10.75873245 11.07946033 11.37275754 11.64495423 11.8918303
 12.11338575 12.30962057 12.48053477 12.6282384  12.74851136 12.84346369
 12.91520546 12.96795675 13.00171758 13.0228181  13.03758846 13.05024878
 13.06501914 13.09033976 13.12832069 13.18318204 13.25281375 13.33721583
 13.43427821 13.53978081 13.65161356 13.76133625 13.86683885 13.95968113
 14.0398631  14.1010546  14.14114559 14.16224611 14.16224611 14.14325564
 14.10949481 14.06096362 14.00188217 13.93647056 13.8689489  13.80142724
 13.73812568 13.67904423 13.62840299 13.58620195 13.55244112 13.52501044
 13.50179987 13.47647925 13.44693853 13.40684754 13.3562063  13.29079469
 13.21061272 13.11777043 13.01226784 12.90043509 12.78438224 12.66832939
 12.55649664 12.44888399 12.3476015  12.25475922 12.16613704 12.08384502
 12.00366305 11.92348108 11.839079   11.74834677 11.64706428 11.53312148
 11.40440832 11.25670469 11.09001059 10.90432603 10.70176105 10.4802056
 10.24176974  9.99067357  9.72691709  9.4547204   9.17619355  8.89555665
  8.6128097   8.33428286  8.06419622  7.80465984  7.55989382  7.33200822
  7.12522314  6.94375868  6.78761484  6.65468157  6.54706893  6.4605568
  6.39725524  6.34872405  6.31707327  6.29808281  6.28753255  6.28331244
  6.28753255  6.2938627 ]",10.748918190299836,13.594431151117686,4.560645,-0.23022000000000098
009,2,1,csm,2b.png,1,1,308,86,306,1,0,268,neu_feedback_onset,1,"[ 0.09162371 -0.02478757 -0.13517758 -0.23151795 -0.31581578 -0.38204978
 -0.42620579 -0.45229797 -0.45229797 -0.42620579 -0.37602851 -0.29574487
 -0.18936904 -0.05489394  0.10567334  0.28831863  0.49103483  0.70579357
  0.92858068  1.15136778  1.37014071  1.57687109  1.76553764  1.93413329
  2.08065094  2.20308349  2.30143096  2.37770042  2.43590606  2.47404079
  2.49812588  2.51016843  2.51418261  2.50816133  2.49611879  2.48006206
  2.45999115  2.43590606  2.40981387  2.38372169  2.35562241  2.33354441
  2.31548059  2.30544514  2.30945932  2.32752314  2.36766496  2.42988478
  2.5161897   2.6285868   2.76707608  2.92965046  3.11028865  3.30698357
  3.51772813  3.73449397  3.95928817  4.18809655  4.42091911  4.65976294
  4.90462805  5.15752152  5.41844336  5.68337938  5.95232958  6.22127978
  6.48220162  6.72907382  6.95386802  7.15056294  7.31313731  7.43556987
  7.51986769  7.56603079  7.57606624  7.56000951  7.52388187  7.48173296
  7.44159114  7.41549896  7.40947768  7.43556987  7.4957826   7.59212297
  7.72459098  7.88716536  8.07783901  8.28657647  8.50735649  8.73215069
  8.95092361  9.16166817  9.3583631   9.53900129  9.70358276  9.85411459
  9.99461096 10.12908606 10.26155407 10.39602917 10.53853264 10.69307865
 10.8616743  11.04833376 11.25305705 11.47383707 11.70665963 11.94751055
 12.18836148 12.42519823 12.64597824 12.84468026 13.0132759  13.14373682
 13.23606301 13.2822261  13.28624029 13.24810556 13.17384319 13.07348864
 12.95507026 12.8346448  12.72024061 12.6319286  12.57573005 12.56770169
 12.61386478 12.71622643 12.87679371 13.09155245 13.3504672  13.64350249
 13.95861579 14.27774327 14.58884238 14.87987058 15.13878533 15.35956534
 15.53819645 15.67267155 15.76700483 15.82521047 15.84929556 15.84728847
 15.82521047 15.78506865 15.73288428 15.67467864 15.61045173 15.54622481
 15.48400499 15.42379226 15.3696008  15.31942352 15.27125334 15.22509024
 15.17491297 15.11670733 15.04043787 14.9440975  14.81965785 14.66109766
 14.47042401 14.24562981 13.98872216 13.70572232 13.40867284 13.10560209
 12.80654553 12.52755987 12.27868058 12.06793602 11.90335455 11.78694327
 11.72271636 11.70264545 11.72472345 11.77490072 11.84514891 11.92342546
 11.99969492 12.06592893 12.1161062  12.14420548 12.15424093 12.14420548
 12.12413457 12.09603529 12.06994311 12.05388638 12.05187929 12.06793602
 12.10607075 12.16829057 12.25258839 12.35695713 12.48340387 12.62992151
 12.79450298 12.97714826 13.17585028 13.39261611 13.62142449 13.86227542
 14.10914762 14.35401273 14.59486365 14.82367203 15.0324095  15.21505479
 15.3696008  15.49002626 15.57432409 15.62048718 15.63052264 15.60242336
 15.54221063 15.44988444 15.32945898 15.1889626  15.03040241 14.86180676
 14.68919693 14.52260838 14.36605527 14.22957308 14.11717598 14.03488525
 13.98069379 13.9566087  13.95861579 13.98069379 14.01682143 14.06097743
 14.10513344 14.14527526 14.17939581 14.20749508 14.22957308 14.24964399
 14.27172199 14.29982127 14.33594891 14.38010491 14.43630346 14.50253746
 14.58081402 14.66912602 14.76948057 14.88388476 15.01434568 15.16086333
 15.32343771 15.5040759  15.69876373 15.90348702 16.1102174  16.31494069
 16.50762143 16.68023126]","[-2.92468256 -2.70653993 -2.45142398 -2.16118337 -1.84321276 -1.50490682
 -1.15181155 -0.79132162 -0.43083169 -0.07588775  0.26981285  0.60442146
  0.92239206  1.22742201  1.51581395  1.7931139   2.05562452  2.30889181
  2.55291576  2.79139372  3.02432568  3.25540897  3.48649226  3.71757555
  3.95420484  4.19268279  4.43485808  4.67333604  4.90811666  5.12810795
  5.32776392  5.49599255  5.6198532   5.69010252  5.69749718  5.63279386
  5.49229522  5.27230393  4.97466865  4.60493538  4.17419613  3.69539155
  3.18700831  2.66753307  2.15914984  1.67849659  1.24590867  0.87432674
  0.57114546  0.3437595   0.18847153  0.10158421  0.07385422  0.09418955
  0.14964954  0.23283952  0.32897017  0.42879815  0.52677747  0.61551345
  0.68946011  0.74861743  0.79298542  0.82256408  0.83920208  0.84474808
  0.84105074  0.83180741  0.81332075  0.78928809  0.75416343  0.70794677
  0.64878945  0.57114546  0.47686348  0.36224617  0.22729352  0.07200555
 -0.09992041 -0.28848438 -0.48814034 -0.6988883  -0.91518226 -1.13332489
 -1.34961885 -1.56221548 -1.76741744 -1.96337607 -2.14454537 -2.31277401
 -2.46436465 -2.59561995 -2.71023727 -2.80821658 -2.8895579  -2.95795855
 -3.01896454 -3.0762732  -3.13543052 -3.20383118 -3.28147516 -3.37575714
 -3.48667712 -3.61238643 -3.75103641 -3.90262705 -4.05791502 -4.21320299
 -4.3666423  -4.51083827 -4.64763958 -4.77334889 -4.8935122  -5.00628084
 -5.11535216 -5.2281208  -5.34458678 -5.46844743 -5.59970273 -5.73650404
 -5.87515402 -6.01565266 -6.14875663 -6.27446594 -6.38723459 -6.48336524
 -6.56285789 -6.62571255 -6.67008054 -6.70150786 -6.71999453 -6.72923786
 -6.72923786 -6.72369186 -6.7107512  -6.69041587 -6.66268587 -6.62386388
 -6.57579855 -6.5129439 ]",15.123684357788452,3.2164021071098814,4.982335,-0.3427499999999988
009,2,1,csp,34a.png,1,1,100,NaN,98,1,1,449,pos_feedback_onset,2,"[ 6.19185371e-02  5.41054725e-02  4.04326094e-02  2.87130125e-02
  1.69934155e-02  9.18035092e-03  7.22708477e-03  1.11336171e-02
  2.08999478e-02  3.26195448e-02  4.62924078e-02  5.80120048e-02
  6.38718032e-02  6.19185371e-02  4.62924078e-02  1.69934155e-02
 -2.79317060e-02 -9.23894891e-02 -1.76379934e-01 -2.79903040e-01
 -3.99052275e-01 -5.33827640e-01 -6.76416069e-01 -8.22911031e-01
 -9.69405992e-01 -1.10613462e+00 -1.23114366e+00 -1.33857330e+00
 -1.42842354e+00 -1.49874112e+00 -1.55343257e+00 -1.59640443e+00
 -1.63156322e+00 -1.66867528e+00 -1.71164713e+00 -1.76633858e+00
 -1.83860943e+00 -1.92845967e+00 -2.03588931e+00 -2.15699181e+00
 -2.28590738e+00 -2.41482295e+00 -2.53592545e+00 -2.63944855e+00
 -2.71953247e+00 -2.76836412e+00 -2.78399025e+00 -2.76250432e+00
 -2.70585960e+00 -2.61796263e+00 -2.50467319e+00 -2.37380436e+00
 -2.23316919e+00 -2.08862750e+00 -1.94799234e+00 -1.81712350e+00
 -1.69992753e+00 -1.59445116e+00 -1.50264765e+00 -1.41670394e+00
 -1.33857330e+00 -1.25848938e+00 -1.17254567e+00 -1.08074216e+00
 -9.81125589e-01 -8.73695951e-01 -7.64313046e-01 -6.56883408e-01
 -5.57266834e-01 -4.75229655e-01 -4.16631671e-01 -3.85379412e-01
 -3.83426146e-01 -4.10771872e-01 -4.67416591e-01 -5.45547237e-01
 -6.37350746e-01 -7.38920586e-01 -8.42443692e-01 -9.42060266e-01
 -1.03386378e+00 -1.11590095e+00 -1.18231200e+00 -1.23700346e+00
 -1.27802204e+00 -1.30536777e+00 -1.31708737e+00 -1.31318084e+00
 -1.28778838e+00 -1.24090999e+00 -1.16668587e+00 -1.06706930e+00
 -9.38153734e-01 -7.79939175e-01 -5.98285423e-01 -3.97099009e-01
 -1.78333200e-01  4.62924078e-02  2.68964749e-01  4.87730559e-01
  6.88916973e-01  8.72523991e-01  1.03269182e+00  1.16551391e+00
  1.27294355e+00  1.35498073e+00  1.41357872e+00  1.45459730e+00
  1.47803650e+00  1.48975610e+00  1.49756916e+00  1.50733549e+00
  1.52100835e+00  1.55030735e+00  1.59523247e+00  1.66359678e+00
  1.75735356e+00  1.88236259e+00  2.03471735e+00  2.22027764e+00
  2.43123038e+00  2.66952885e+00  2.92735998e+00  3.20081725e+00
  3.48404084e+00  3.76531117e+00  4.03876843e+00  4.29464629e+00
  4.51927190e+00  4.70483219e+00  4.83960755e+00  4.91187840e+00
  4.91383166e+00  4.84156082e+00  4.69115932e+00  4.46848698e+00
  4.17745032e+00  3.83562875e+00  3.45864838e+00  3.06799515e+00
  2.68710825e+00  2.34138014e+00  2.04839022e+00  1.82962441e+00
  1.69289578e+00  1.64601739e+00  1.68703598e+00  1.80813848e+00
  1.99760530e+00  2.23590377e+00  2.50350123e+00  2.77891176e+00
  3.04455595e+00  3.28090116e+00  3.47232124e+00  3.60904987e+00
  3.68718052e+00  3.70475991e+00  3.65983479e+00  3.56021822e+00
  3.41372326e+00  3.22816297e+00  3.01330370e+00  2.77891176e+00
  2.53670675e+00  2.29645502e+00  2.06596961e+00  1.85306360e+00
  1.66750332e+00  1.51514856e+00  1.39990585e+00  1.32958827e+00
  1.30810234e+00  1.34130787e+00  1.42920484e+00  1.57374654e+00
  1.77688622e+00  2.03862388e+00  2.35309974e+00  2.71836051e+00
  3.12463987e+00  3.56607802e+00  4.03095536e+00  4.50950557e+00
  4.99196231e+00  5.46855925e+00  5.92953006e+00  6.37292148e+00
  6.79482697e+00  7.19524653e+00  7.57418017e+00  7.93944094e+00
  8.29102884e+00  8.63480369e+00  8.97271873e+00  9.30282071e+00
  9.62706289e+00  9.93958548e+00  1.02364819e+01  1.05079859e+01
  1.07521442e+01  1.09591904e+01  1.11291246e+01  1.12560869e+01
  1.13439838e+01  1.13928155e+01  1.14064884e+01  1.13889090e+01
  1.13478904e+01  1.12873391e+01  1.12092085e+01  1.11193582e+01
  1.10197417e+01  1.09103588e+01  1.07912095e+01  1.06622940e+01
  1.05216588e+01  1.03634442e+01  1.01896035e+01  9.99427693e+00
  9.77746439e+00  9.53721265e+00  9.27156845e+00  8.98248506e+00
  8.66996248e+00  8.33400070e+00  7.98045953e+00  7.61324549e+00
  7.23821839e+00  6.85733149e+00  6.48230439e+00  6.11899688e+00
  5.77326877e+00  5.45293312e+00  5.16384973e+00  4.91383166e+00
  4.70678545e+00  4.54661763e+00  4.43723472e+00  4.38059000e+00
  4.37277694e+00  4.41379553e+00  4.49778597e+00  4.61498194e+00
  4.76147690e+00  4.92555126e+00  5.09939195e+00  5.27323264e+00
  5.44121353e+00  5.59552155e+00  5.73615671e+00  5.85725922e+00
  5.96078232e+00  6.04281950e+00  6.10337075e+00  6.13852954e+00
  6.15024914e+00  6.13266974e+00  6.08383809e+00  5.99789438e+00]","[-3.31983547 -2.92394549 -2.53656927 -2.15770682 -1.78948657 -1.43190852
 -1.08071579 -0.74016527 -0.40600007 -0.0782202   0.2453028   0.56456891
  0.87957814  1.19245893  1.50321128  1.80970675  2.11407378  2.41631237
  2.71855096  3.02078955  3.32302813  3.63165204  3.94666127  4.27018427
  4.60222103  4.94702843  5.30247804  5.66856985  6.04530386  6.42629476
  6.80941409  7.18614811  7.55436836  7.90556108  8.23334096  8.53132267
  8.79312088  9.01660716  9.19539618  9.32735951  9.4103687   9.44655219
  9.43378155  9.37205677  9.26989161  9.13154296  8.95913926  8.76757959
  8.5589924   8.34827676  8.13968957  7.94387302  7.76721243  7.6139647
  7.48625825  7.38196466  7.30108391  7.24148757  7.19679031  7.16273526
  7.13932241  7.118038    7.09888204  7.08185451  7.0605701   7.03715725
  7.00735908  6.97330403  6.92860678  6.87326732  6.80515721  6.72214802
  6.62423975  6.50717551  6.37521218  6.22834977  6.06658827  5.89205613
  5.71113866  5.52170744  5.33227621  5.14284498  4.95554219  4.77462473
  4.60222103  4.44045953  4.29146868  4.15950535  4.04244111  3.94240439
  3.86152364  3.79554198  3.7444594   3.70401903  3.67209242  3.64229425
  3.61462452  3.58482635  3.55077129  3.5145878   3.47414743  3.43370705
  3.39539512  3.36346851  3.3421841   3.3315419   3.34005566  3.36346851
  3.40178044  3.4571199   3.52523     3.60398231  3.68911994  3.77851445
  3.86790897  3.9530466   4.03392735  4.10629433  4.17227599  4.22761545
  4.27444115  4.31700997  4.3553219   4.39363383  4.43620265  4.48728523
  4.54901001  4.62137699  4.70864307  4.8044229   4.90658806  5.01301009
  5.11943213  5.21734041  5.30460648  5.37697346  5.43018448  5.46211109
  5.47488174  5.46849642]",9.77341135980532,7.5116399103926295,5.119629999999999,-1.080259999999999
009,2,1,csp,5a.png,1,1,24,NaN,15,1,1,331,pos_feedback_onset,3,"[-1.92728583e-02 -4.95443634e-02 -8.78882699e-02 -1.26232176e-01
 -1.64576083e-01 -1.94847588e-01 -2.15028591e-01 -2.23100993e-01
 -2.15028591e-01 -1.92829488e-01 -1.56503682e-01 -1.04033073e-01
 -3.94538617e-02  3.31977506e-02  1.11903664e-01  1.92627678e-01
  2.69315491e-01  3.39949003e-01  3.98473913e-01  4.42872120e-01
  4.69107424e-01  4.79197926e-01  4.69107424e-01  4.40854020e-01
  3.98473913e-01  3.39949003e-01  2.73351691e-01  1.98681979e-01
  1.19976065e-01  4.12701520e-02 -3.54176610e-02 -1.06051173e-01
 -1.70630384e-01 -2.25119093e-01 -2.67499200e-01 -2.97770705e-01
 -3.11897408e-01 -3.11897408e-01 -2.93734505e-01 -2.59426799e-01
 -2.10992391e-01 -1.50449380e-01 -7.77977682e-02  9.08145154e-04
  8.16321588e-02  1.60338072e-01  2.35007785e-01  3.01605096e-01
  3.58111906e-01  4.04528214e-01  4.38835919e-01  4.65071224e-01
  4.79197926e-01  4.87270328e-01  4.85252227e-01  4.77179826e-01
  4.59016923e-01  4.32781618e-01  3.94437712e-01  3.43985203e-01
  2.79405992e-01  1.98681979e-01  1.05849363e-01 -3.12805553e-03
 -1.24214076e-01 -2.57408699e-01 -3.94639522e-01 -5.37924646e-01
 -6.81209770e-01 -8.26512995e-01 -9.67780019e-01 -1.11106514e+00
 -1.25636837e+00 -1.40368969e+00 -1.55908342e+00 -1.72658575e+00
 -1.91023288e+00 -2.11204291e+00 -2.33403395e+00 -2.57620599e+00
 -2.83855904e+00 -3.11705688e+00 -3.40968143e+00 -3.70634218e+00
 -4.00300293e+00 -4.29360938e+00 -4.56807103e+00 -4.81831547e+00
 -5.04232461e+00 -5.23404414e+00 -5.38741977e+00 -5.50245149e+00
 -5.58317550e+00 -5.62757371e+00 -5.63968231e+00 -5.62555561e+00
 -5.58721170e+00 -5.53474109e+00 -5.46612568e+00 -5.38943787e+00
 -5.30265955e+00 -5.20982694e+00 -5.10892192e+00 -4.99792640e+00
 -4.88087658e+00 -4.75171816e+00 -4.61448734e+00 -4.46716601e+00
 -4.31379039e+00 -4.15234236e+00 -3.98887623e+00 -3.82339200e+00
 -3.65790777e+00 -3.49645975e+00 -3.33904792e+00 -3.18365419e+00
 -3.03229667e+00 -2.88295724e+00 -2.73159972e+00 -2.57822409e+00
 -2.42081227e+00 -2.25532804e+00 -2.08580761e+00 -1.90821478e+00
 -1.72254955e+00 -1.53284811e+00 -1.34112858e+00 -1.14739095e+00
 -9.53653317e-01 -7.67988085e-01 -5.88377155e-01 -4.18856726e-01
 -2.61444899e-01 -1.18159775e-01  8.98054652e-03  1.19976065e-01
  2.14826781e-01  2.93532695e-01  3.58111906e-01  4.10582515e-01
  4.52962622e-01  4.89288428e-01  5.21578033e-01  5.53867639e-01
  5.90193445e-01  6.34591653e-01  6.89080362e-01  7.53659573e-01
  8.32365486e-01  9.21161901e-01  1.02206692e+00  1.13306244e+00
  1.25213036e+00  1.37523448e+00  1.50035670e+00  1.62346082e+00
  1.74454684e+00  1.86361476e+00  1.97662838e+00  2.08762390e+00
  2.19256512e+00  2.29750633e+00  2.40042945e+00  2.50537067e+00
  2.61031189e+00  2.71928931e+00  2.83230292e+00  2.94935274e+00
  3.07245687e+00  3.20363339e+00  3.34691851e+00  3.50231224e+00
  3.67385077e+00  3.86758840e+00  4.08957944e+00  4.34386008e+00
  4.63244843e+00  4.96139879e+00  5.32869305e+00  5.73634932e+00
  6.17831329e+00  6.65054877e+00  7.14296526e+00  7.64749034e+00
  8.15806973e+00  8.66259481e+00  9.15702940e+00  9.63733728e+00
  1.00994823e+01  1.05434643e+01  1.09753378e+01  1.13991389e+01
  1.18148675e+01  1.22326143e+01  1.26543973e+01  1.30862708e+01
  1.35282347e+01  1.39843254e+01  1.44505066e+01  1.49287964e+01
  1.54171767e+01  1.59116112e+01  1.64100820e+01  1.69065347e+01
  1.73969331e+01  1.78691686e+01  1.83192049e+01  1.87308974e+01
  1.90961736e+01  1.94029248e+01  1.96450969e+01  1.98166354e+01
  1.99175404e+01  1.99538662e+01  1.99377214e+01  1.98852508e+01
  1.98166354e+01  1.97520562e+01  1.97137123e+01  1.97197666e+01
  1.97863639e+01  1.99175404e+01  2.01153143e+01  2.03756492e+01
  2.06844185e+01  2.10274956e+01  2.13826813e+01  2.17338307e+01
  2.20627811e+01  2.23513694e+01  2.25895053e+01  2.27670981e+01
  2.28821298e+01  2.29346004e+01  2.29305642e+01  2.28720393e+01
  2.27711343e+01  2.26379397e+01  2.24764917e+01  2.22928445e+01
  2.20930526e+01  2.18730797e+01  2.16288895e+01  2.13503917e+01
  2.10234594e+01  2.06359841e+01  2.01718211e+01  1.96188616e+01
  1.89670152e+01  1.82162818e+01  1.73686797e+01  1.64342992e+01
  1.54373577e+01  1.43980360e+01  1.33445876e+01  1.23133383e+01
  1.13264873e+01  1.04163240e+01  9.59899337e+00  8.89064015e+00]","[-4.04966841e+00 -3.64424447e+00 -3.21497207e+00 -2.76980069e+00
 -2.31667982e+00 -1.86157157e+00 -1.41043808e+00 -9.67254068e-01
 -5.34006920e-01 -1.12684006e-01  3.00689419e-01  7.04125984e-01
  1.10160043e+00  1.49708751e+00  1.89257458e+00  2.28607428e+00
  2.68354873e+00  3.07903581e+00  3.47253551e+00  3.86404784e+00
  4.24959805e+00  4.62719878e+00  4.99685002e+00  5.35457702e+00
  5.70236716e+00  6.03823307e+00  6.36018737e+00  6.66425532e+00
  6.94844955e+00  7.21078269e+00  7.44529261e+00  7.64601721e+00
  7.81096910e+00  7.93617355e+00  8.01964319e+00  8.05939063e+00
  8.05740326e+00  8.01566844e+00  7.93816093e+00  7.82885545e+00
  7.69768888e+00  7.54466122e+00  7.37970933e+00  7.20680794e+00
  7.02993181e+00  6.85106831e+00  6.67220481e+00  6.49731605e+00
  6.32640204e+00  6.16145015e+00  6.00246037e+00  5.85340745e+00
  5.71627876e+00  5.59107431e+00  5.48375621e+00  5.39829921e+00
  5.33271592e+00  5.28899373e+00  5.26713264e+00  5.26713264e+00
  5.27905687e+00  5.30290534e+00  5.32675381e+00  5.34662753e+00
  5.35060227e+00  5.33271592e+00  5.28303162e+00  5.19757461e+00
  5.07038279e+00  4.89748140e+00  4.68085783e+00  4.42249944e+00
  4.12240623e+00  3.79051507e+00  3.43278806e+00  3.05717471e+00
  2.67162450e+00  2.28408691e+00  1.90052407e+00  1.52689809e+00
  1.16519634e+00  8.19393573e-01  4.87502410e-01  1.69522852e-01
 -1.38519845e-01 -4.36625680e-01 -7.28769399e-01 -1.01693837e+00
 -1.29715786e+00 -1.57141523e+00 -1.83573574e+00 -2.08813201e+00
 -2.32462931e+00 -2.54125288e+00 -2.73601536e+00 -2.90295463e+00
 -3.04405806e+00 -3.15932564e+00 -3.24478265e+00 -3.30639119e+00
 -3.34415126e+00 -3.36203761e+00 -3.36203761e+00 -3.34812601e+00
 -3.32427754e+00 -3.28850484e+00 -3.24677002e+00 -3.19907309e+00
 -3.14342667e+00 -3.08181813e+00 -3.01027273e+00 -2.92680309e+00
 -2.83339660e+00 -2.72806587e+00 -2.60484879e+00 -2.46772011e+00
 -2.31469244e+00 -2.14775318e+00 -1.96491493e+00 -1.77213982e+00
 -1.56942786e+00 -1.36274114e+00 -1.15406706e+00 -9.51355090e-01
 -7.54605238e-01 -5.69779620e-01 -4.00852980e-01 -2.45837946e-01
 -1.12684006e-01  5.96211671e-04  9.40027068e-02  1.67535480e-01
  2.21194530e-01  2.54979858e-01  2.72866208e-01  2.74853580e-01
  2.62929347e-01  2.43055625e-01  2.15232413e-01  1.83434457e-01]",20.754749346892268,6.257738330647071,4.955155,-0.4783249999999999
009,2,1,csp,1a.png,1,1,260,156,258,1,0,344,neg_feedback_onset,4,"[ 1.2258512   1.05244228  0.86832911  0.68207508  0.49796191  0.32241214
  0.15756662  0.01198876 -0.11432144 -0.22136398 -0.30699801 -0.37122354
 -0.42046311 -0.45471672 -0.47612523 -0.48682949 -0.49325204 -0.49325204
 -0.49111119 -0.48897034 -0.48468863 -0.48254778 -0.47612523 -0.46970268
 -0.45685757 -0.43544906 -0.407618   -0.36694184 -0.31770227 -0.25775844
 -0.18925122 -0.11646229 -0.03939166  0.03339727  0.1019045   0.16398918
  0.2153696   0.26032746  0.29886278  0.33311639  0.36951086  0.41232788
  0.46584915  0.53221552  0.61784956  0.7248921   0.8512023   0.99678016
  1.15948483  1.3350346   1.51700692  1.70326094  1.88309242  2.05436049
  2.20850175  2.3455162   2.46112215  2.55531959  2.63024937  2.68805234
  2.73301021  2.77154552  2.80793999  2.8464753   2.88929232  2.93853189
  2.99633486  3.05627869  3.12050421  3.18258889  3.23825101  3.28534973
  3.31746249  3.3345893   3.33673015  3.32174419  3.29177228  3.24681441
  3.19115229  3.12050421  3.04129273  2.94923614  2.84433445  2.73086936
  2.60455916  2.4675447   2.32410769  2.17638898  2.02652942  1.88095157
  1.74393711  1.61548606  1.50202096  1.40140097  1.31362609  1.23655546
  1.17018908  1.10810441  1.04816058  0.98821676  0.92613208  0.85976571
  0.78911763  0.7163287   0.64568062  0.57931424  0.52151127  0.47441255
  0.44444064  0.43159553  0.44229979  0.4722717   0.52579297  0.5985819
  0.69277934  0.80624443  0.93469549  1.07813249  1.23441461  1.40354182
  1.5833733   1.77390902  1.975149    2.18495239  2.40117832  2.62168596
  2.84433445  3.06912379  3.29391313  3.51442077  3.73064671  3.94259094
  4.15025348  4.35149346  4.55059259  4.74755087  4.94022744  5.13290402
  5.32343975  5.51183462  5.70237035  5.88862437  6.07273755  6.25256902
  6.42811879  6.59296431  6.74496472  6.88412002  7.00400767  7.10462766
  7.18169829  7.23093786  7.25662807  7.25662807  7.23093786  7.18383915
  7.11961362  7.04040214  6.95262725  6.85842981  6.76423238  6.67217579
  6.58654176  6.50733027  6.43668219  6.37673837  6.32535795  6.28682263
  6.25899157  6.24400562  6.24186477  6.25685072  6.28682263  6.3360622
  6.40671028  6.50090772  6.61865452  6.75780982  6.91623279  7.09178256
  7.28231828  7.47713571  7.67195314  7.86248887  8.04017949  8.20502501
  8.35274371  8.48547647  8.60108241  8.70812496  8.8066041   8.90294239
  9.00142152  9.10632322  9.21764746  9.33325341  9.44885935  9.55804275
  9.65224019  9.72502912  9.76356443  9.76570528  9.72502912  9.63725423
  9.50666233  9.33111256  9.11702747  8.86868877  8.59251901  8.29494074
  7.97809481  7.64626293  7.29944509  6.9376413   6.5629924   6.17763924
  5.77944098  5.37267932  4.9637768   4.55273344  4.14811263  3.75419607
  3.37526547  3.01560252  2.67520723  2.35407961  2.05007878  1.76106392
  1.48275331  1.2130061   0.94539974  0.67779338  0.40804617  0.13829897
 -0.13358909 -0.40119545 -0.66452011 -0.91714051 -1.15477495 -1.37314174
 -1.56581832 -1.72852298 -1.85911489 -1.95545318 -2.01753785 -2.04536891
