sub,run,cat_cond,trial_type,picture,old,response_old,target_pos,response_pos,dot_resp_loc,cat_corr,TN_corr,TN_rt,feedback_type,trial,SP_timeseries,FB_timeseries,SP_peak_response,FB_peak_response,preStim_bl,anticipation
018,1,1,csm,48b.png,1,1,28,56,5,1,1,616,neu_feedback_onset,1,"[-2.95882891 -2.66239707 -2.35498628 -2.04025618 -1.71820677 -1.39432754
 -1.06861848 -0.74290942 -0.41903019 -0.09698079  0.22140897  0.53430924
  0.84172004  1.14181153  1.43458371  1.7200366   1.99817017  2.26532479
  2.52516011  2.77401647  3.01006404  3.23330284  3.44373285  3.63586459
  3.81335773  3.97072278  4.10795974  4.22689844  4.32570906  4.40439158
  4.46477585  4.50686185  4.53247941  4.54162855  4.53613907  4.52150046
  4.49588289  4.46477585  4.42817932  4.3915828   4.35498628  4.32204941
  4.29277219  4.27081427  4.25617566  4.24702653  4.24702653  4.25434584
  4.26715462  4.28728271  4.31107045  4.34034767  4.37328454  4.41171089
  4.45562672  4.50686185  4.56541629  4.63494968  4.71180238  4.80146386
  4.9021043   5.0137237   5.13632205  5.26989936  5.40896615  5.55535224
  5.70722781  5.85727356  6.00914913  6.15553522  6.29643184  6.43183898
  6.55809698  6.67520586  6.7831656   6.88380604  6.978957    7.06678866
  7.14913083  7.22781336  7.30466606  7.37968893  7.45105215  7.52241537
  7.59194876  7.65965233  7.72186642  7.78042086  7.82982617  7.87191217
  7.90118939  7.915828    7.91399817  7.89387008  7.85361391  7.79139982
  7.70722781  7.59926807  7.47301006  7.32662397  7.16376944  6.99176578
  6.81244282  6.63311985  6.45928637  6.29460201  6.14638609  6.01829826
  5.91033852  5.82799634  5.7694419   5.73650503  5.72369625  5.73101555
  5.75297347  5.78774016  5.83165599  5.8810613   5.93412626  5.98719122
  6.042086    6.09515096  6.14821592  6.20128088  6.25617566  6.31290027
  6.37145471  6.4336688   6.49954254  6.57090576  6.64592864  6.72461116
  6.80878317  6.89661482  6.98810613  7.08142726  7.17840805  7.27355901
  7.3705398   7.46203111  7.54986276  7.63037511  7.70356816  7.76578225
  7.81701738  7.85910339  7.89021043  7.91399817  7.93046661  7.94327539
  7.95425435  7.96706313  7.98170174  8.          8.02378774  8.05306496
  8.084172    8.11710887  8.15004575  8.17932296  8.20494053  8.22323879
  8.23421775  8.23238792  8.22140897  8.19945105  8.16834401  8.12625801
  8.07868253  8.02744739  7.97621226  7.93046661  7.89021043  7.86459286
  7.85544373  7.86459286  7.89752973  7.95425435  8.03659652  8.14089661
  8.26898445  8.41720037  8.58188472  8.75937786  8.94784995  9.1399817
  9.33394328  9.52790485  9.71637694  9.89752973 10.07136322 10.23604758
 10.3915828  10.53796889 10.67520586 10.80329369 10.92589204 11.04117109
 11.15279048 11.26075023 11.36505032 11.46569076 11.56084172 11.6505032
 11.73284538 11.8042086  11.86276304 11.90850869 11.93778591 11.95059469
 11.94510522 11.91948765 11.87557182 11.81518756 11.73833486 11.64501372
 11.53705398 11.41628545 11.28087832 11.1326624  10.97163769 10.79780421
 10.60750229 10.40439158 10.1884721   9.957914    9.71454712  9.46203111
  9.20219579  8.93504117  8.66788655  8.40256176  8.14272644  7.89021043
  7.64867338  7.41994511  7.2095151   7.01555352  6.83806038  6.68252516
  6.5452882   6.4263495   6.32753888  6.24702653  6.18298262  6.13723696
  6.10430009  6.08783166  6.08234218  6.08966148  6.10795974  6.13540714
  6.17383349  6.22323879  6.28179323  6.35132662  6.4336688   6.52516011
  6.6294602   6.7410796 ]","[-0.523546   -0.5705738  -0.60132275 -0.61398408 -0.60674903 -0.58142637
 -0.53620733 -0.47109192 -0.38969766 -0.29202454 -0.17807257 -0.05145926
  0.08962413  0.24156009  0.40253986  0.57256344  0.74982206  0.93250697
  1.1188094   1.30872935  1.50045807  1.69399555  1.88572426  2.07745297
  2.26556417  2.4518666   2.63274274  2.81000137  2.98364247  3.15004852
  3.31283705  3.46839054  3.6203265   3.76683618  3.90972833  4.04900297
  4.18646884  4.32212595  4.45235677  4.58077883  4.70196585  4.81591782
  4.92082599  5.01126406  5.08361452  5.1360686   5.16500879  5.16500879
  5.1360686   5.07818824  4.9859414   4.86475438  4.71462718  4.53736856
  4.34021356  4.12497095  3.897067    3.66373677  3.43040655  3.19888508
  2.97640742  2.76478233  2.56762733  2.38855995  2.22577141  2.0810705
  1.9544572   1.84412275  1.74825839  1.66505536  1.59451366  1.53482454
  1.48237045  1.43715142  1.39735867  1.3629922   1.33224325  1.30511183
  1.28159793  1.26170156  1.24904023  1.24180518  1.24361394  1.25084899
  1.26712784  1.29064174  1.32319945  1.35937467  1.40097619  1.44438646
  1.48779674  1.52758949  1.56557348  1.59993995  1.62707137  1.65058527
  1.66867288  1.68495174  1.70123059  1.71750944  1.73740582  1.76272848
  1.79347743  1.83327018  1.88029798  1.93817834  2.00329375  2.07564421
  2.15522972  2.24024151  2.32887082  2.41750013  2.50612944  2.59475875
  2.67796178  2.75754728  2.8317065   2.89863068  2.96012857  3.01620017
  3.06503673  3.10844701  3.14462224  3.17717994  3.20431136  3.22420774
  3.24048659  3.24772164  3.2495304   3.24229535  3.22782526  3.2025026
  3.1699449   3.12653462  3.07769806  3.02162646  2.96012857  2.89682192
  2.83532403  2.7756349 ]",11.04611161939614,3.9555352170378084,5.465000000000001,-0.15719499999999975
018,1,1,csm,26b.png,1,1,132,108,126,1,0,533,neu_feedback_onset,2,"[ 1.08958028  0.95047354  0.80779996  0.66155955  0.51531913  0.36907871
  0.22818855  0.09443207 -0.03040731 -0.14097933 -0.24085083 -0.32467156
 -0.39244151 -0.4459441  -0.48696276 -0.51371405 -0.53154825 -0.53868193
 -0.53868193 -0.53154825 -0.52084773 -0.50479695 -0.48517934 -0.46199488
 -0.43524358 -0.40492545 -0.37460731 -0.34250576 -0.30862078 -0.27830265
 -0.25155135 -0.23015032 -0.21588296 -0.20874928 -0.21231612 -0.22480006
 -0.24620109 -0.27830265 -0.31575446 -0.35855654 -0.40314203 -0.44416068
 -0.47982908 -0.50658037 -0.51728089 -0.51371405 -0.49231302 -0.44951094
 -0.38887467 -0.30862078 -0.21231612 -0.09996068  0.02487871  0.15863518
  0.30130876  0.4493326   0.60092328  0.75251395  0.90588805  1.05391189
  1.2001523   1.34282588  1.47836578  1.60855542  1.73161138  1.8511005
  1.96345595  2.07224455  2.18103315  2.28625492  2.39504352  2.50561554
  2.61797099  2.73567669  2.85873265  2.98178861  3.10841141  3.23503421
  3.35809017  3.47757929  3.59171816  3.69693992  3.79324458  3.88063215
  3.9573192   4.02330573  4.08215858  4.13031091  4.17132957  4.20699796
  4.23553268  4.25871713  4.27655133  4.29081869  4.30330263  4.3104363
  4.31578656  4.3193534   4.32113682  4.3193534   4.31578656  4.30865288
  4.29973579  4.28725185  4.27120107  4.25158345  4.23196584  4.20878138
  4.18738034  4.16776273  4.15171195  4.14101143  4.13922801  4.14279485
  4.15349537  4.17132957  4.19451402  4.22126532  4.24801661  4.27298449
  4.29260211  4.30508605  4.3104363   4.30686947  4.29260211  4.27120107
  4.24266636  4.20699796  4.16597931  4.12317723  4.07680832  4.03043941
  3.9840705   3.939485    3.89668293  3.85744769  3.81999588  3.78611091
  3.75579277  3.72725805  3.69693992  3.66662178  3.62916997  3.5863679
  3.53108188  3.4597451   3.37414095  3.26713577  3.14051297  2.99605597
  2.83019793  2.64828912  2.45389637  2.2488031   2.03657616  1.82256579
  1.61033884  1.40524557  1.2090694   1.02359375  0.8559523   0.70614504
  0.5759554   0.4671668   0.38334607  0.32449322  0.29239166  0.2870414
  0.31022586  0.36016161  0.43684866  0.54207043  0.67226007  0.82563416
  1.00219271  1.19836888  1.41059583  1.63887356  1.8778518   2.12396372
  2.3754259   2.62688808  2.87478343  3.11376167  3.34382281  3.5596166
  3.76114303  3.94126842  4.10355962  4.24623319  4.37107258  4.47451092
  4.56189849  4.63323527  4.69208813  4.73667362  4.76877517  4.79195963
  4.80444357  4.80801041  4.80087673  4.78482595  4.75807466  4.72062284
  4.67068709  4.61361766  4.54584771  4.46916066  4.38533993  4.29795237
  4.20699796  4.11426013  4.02152231  3.9305679   3.84139692  3.75757619
  3.67553888  3.59706841  3.52038137  3.44547774  3.37057411  3.29567048
  3.21720001  3.13694613  3.0531254   2.96573783  2.87300001  2.77669534
  2.67860726  2.57516891  2.46994715  2.36294196  2.25236994  2.13823108
  2.02409222  1.9046031   1.78333055  1.65849117  1.53008495  1.39989531
  1.26613883  1.13059893  0.9914922   0.85060204  0.70614504  0.56168804
  0.41544762  0.26742379  0.11939995 -0.03040731 -0.18021456 -0.33002182
 -0.47982908 -0.62785291 -0.77766017 -0.92568401 -1.07549127 -1.22529852
 -1.37510578 -1.52669646]","[-1.28211041e-01 -1.48503436e-01 -1.54037725e-01 -1.48503436e-01
 -1.28211041e-01 -9.68500669e-02 -5.62652769e-02 -1.01461975e-02
  3.96624083e-02  8.57814878e-02  1.26366278e-01  1.57727252e-01
  1.74330120e-01  1.74330120e-01  1.55882489e-01  1.20831988e-01
  6.73338560e-02  9.22381589e-04 -7.65576719e-02 -1.55882489e-01
 -2.35207305e-01 -3.01618780e-01 -3.47737859e-01 -3.64340728e-01
 -3.40358806e-01 -2.68413042e-01 -1.41124383e-01  4.51966979e-02
  2.90550201e-01  5.91246599e-01  9.36217313e-01  1.31623853e+00
  1.71655214e+00  2.12240004e+00  2.51902412e+00  2.89351105e+00
  3.23848176e+00  3.54286768e+00  3.80482406e+00  4.01881658e+00
  4.18669003e+00  4.30659964e+00  4.38039017e+00  4.40621685e+00
  4.38961398e+00  4.32873680e+00  4.22911959e+00  4.09445187e+00
  3.92657843e+00  3.73103353e+00  3.51335147e+00  3.27906655e+00
  3.03371305e+00  2.78467002e+00  2.53747175e+00  2.29949730e+00
  2.07443619e+00  1.86782272e+00  1.68519116e+00  1.52654153e+00
  1.39925287e+00  1.30148042e+00  1.23322418e+00  1.19632892e+00
  1.18894987e+00  1.20924226e+00  1.25536134e+00  1.32361758e+00
  1.41401098e+00  1.51916248e+00  1.64091685e+00  1.77189503e+00
  1.91209703e+00  2.05598856e+00  2.20541438e+00  2.35299543e+00
  2.50057649e+00  2.64631278e+00  2.78835954e+00  2.92671678e+00
  3.05953973e+00  3.18867315e+00  3.31227229e+00  3.43218189e+00
  3.54655721e+00  3.65724300e+00  3.76239450e+00  3.86385648e+00
  3.95793940e+00  4.04833280e+00  4.13134714e+00  4.20698243e+00
  4.27708343e+00  4.33980538e+00  4.39514827e+00  4.44311212e+00
  4.48554167e+00  4.52059217e+00  4.55195314e+00  4.57777983e+00
  4.59807222e+00  4.61651985e+00  4.62943320e+00  4.63865701e+00
  4.64419130e+00  4.64419130e+00  4.63865701e+00  4.62574367e+00
  4.60545128e+00  4.57409030e+00  4.53166075e+00  4.47631785e+00
  4.40990638e+00  4.32873680e+00  4.23465388e+00  4.12765761e+00
  4.00774801e+00  3.88045935e+00  3.74210211e+00  3.59821058e+00
  3.45062953e+00  3.30120371e+00  3.14993313e+00  3.00419684e+00
  2.86215007e+00  2.72563760e+00  2.59834894e+00  2.48028409e+00
  2.37328783e+00  2.27920491e+00  2.19434580e+00  2.12424480e+00
  2.06521238e+00  2.01724854e+00  1.98035327e+00  1.95268182e+00
  1.93423419e+00  1.91947609e+00  1.91209703e+00  1.90656275e+00]",4.085636248362623,4.180602315177791,5.607204999999999,0.16369000000000078
018,1,1,csm,58b.png,1,1,312,301,297,1,1,453,neu_feedback_onset,3,"[-0.21476805 -0.16436147 -0.11215465 -0.06174806 -0.01134148  0.03546463
  0.07867027  0.11827545  0.14887944  0.1722825   0.18308391  0.18308391
  0.16688179  0.13807803  0.09127192  0.03006393 -0.04554595 -0.13735794
 -0.24177158 -0.35698662 -0.48480332 -0.61982095 -0.76383976 -0.91685974
 -1.07528043 -1.24090206 -1.41372463 -1.59554838 -1.78457307 -1.98439916
 -2.19502667 -2.41645559 -2.64688568 -2.88811719 -3.1401501  -3.39578349
 -3.65681758 -3.91605144 -4.16988459 -4.41291633 -4.63614548 -4.83777181
 -5.01059438 -5.14921249 -5.25362612 -5.31843459 -5.34363788 -5.3346367
 -5.29143106 -5.21942166 -5.12040873 -5.00159321 -4.86837581 -4.72075653
 -4.56593631 -4.40571539 -4.24009376 -4.07447213 -3.90705026 -3.74142863
 -3.575807   -3.41378584 -3.25356492 -3.09694446 -2.94212424 -2.79090449
 -2.64328521 -2.49566593 -2.35164713 -2.20762832 -2.06360951 -1.9195907
 -1.77737212 -1.63695379 -1.49833568 -1.36511828 -1.23730159 -1.11668584
 -1.0068715  -0.90785857 -0.82144728 -0.75123811 -0.69903129 -0.66302659
 -0.64682448 -0.64862471 -0.67022753 -0.7098327  -0.76744023 -0.84124987
 -0.92766115 -1.02667408 -1.13648843 -1.25170347 -1.37051899 -1.49113474
 -1.60995026 -1.72516531 -1.83317941 -1.93039211 -2.01860363 -2.0942135
 -2.15362126 -2.19682691 -2.22383043 -2.23103137 -2.22022996 -2.18962597
 -2.14101962 -2.07081045 -1.98439916 -1.87998553 -1.75936977 -1.62615238
 -1.48213357 -1.32911358 -1.16889266 -1.00507126 -0.83944963 -0.673828
 -0.50820637 -0.34798545 -0.18956476 -0.03474454  0.11467498  0.26049402
  0.40451283  0.54493117  0.68354927  0.82036714  0.95898524  1.09760335
  1.23622145  1.37844002  1.52245883  1.67007811  1.81949763  1.97251761
  2.1255376   2.27855758  2.43157756  2.58279731  2.72861636  2.87083493
  3.00585256  3.13186902  3.2488843   3.35689841  3.45231087  3.53692192
  3.61073156  3.67193956  3.72414637  3.76555178  3.80335672  3.83396072
  3.86636495  3.89696894  3.93477388  3.97617929  4.02838611  4.0895941
  4.15980327  4.24081385  4.32902537  4.42443783  4.52705123  4.63146487
  4.73587851  4.83849191  4.93750484  5.03111706  5.11572811  5.19313822
  5.25974692  5.31555421  5.36236032  5.39836503  5.42896902  5.45237208
  5.47217467  5.49377749  5.51898078  5.55138501  5.59459065  5.65039794
  5.71700664  5.79981746  5.89342968  5.99604308  6.10765766  6.22107247
  6.33808775  6.44970233  6.55771644  6.6585296   6.75034159  6.83495264
  6.90876228  6.97717122  7.03837921  7.0941865   7.14639332  7.19499967
  7.24000554  7.28501142  7.32641683  7.36962247  7.41102788  7.45243329
  7.49743917  7.54424528  7.59285163  7.64505844  7.70086573  7.76207373
  7.82508196  7.89169065  7.96009959  8.02850852  8.09691746  8.16172592
  8.22653439  8.28594214  8.3399492   8.39035578  8.43536166  8.4785673
  8.51817247  8.55957788  8.60458376  8.65499034  8.7143981   8.78460727
  8.86561785  8.95923008  9.06364371  9.17705852  9.29767428  9.42009026
  9.53890578  9.65232059  9.75493399  9.84134528  9.90975421  9.95656033
  9.98176362  9.98536409  9.9655615   9.92595633  9.86474834  9.78733823
  9.69552624  9.5911126   9.47949802  9.35888227  9.23646628  9.11405029
  8.99163431  8.87281879]","[-0.56299439 -0.63016483 -0.66728534 -0.67258827 -0.65137655 -0.60718547
 -0.54001502 -0.45693579 -0.35618012 -0.24128331 -0.11754828  0.01679261
  0.15820407  0.30491847  0.45516815  0.60895311  0.76273808  0.9147554
  1.06677273  1.21525476  1.36196915  1.50338062  1.64302444  1.78090061
  1.9152415   2.04958239  2.18215564  2.31472889  2.44730213  2.57810774
  2.7071457   2.83264837  2.95461576  3.07128022  3.17910646  3.27632684
  3.36117372  3.43187945  3.48490875  3.51849397  3.53086747  3.51849397
  3.47960582  3.41420301  3.32051792  3.19678289  3.04299792  2.86093066
  2.65058111  2.41548456  2.15564099  1.87635335  1.57762164  1.26474877
  0.93950241  0.60895311  0.27310089 -0.06275134 -0.39506828 -0.72208228
 -1.03672279 -1.33898979 -1.62711565 -1.89756507 -2.14857042 -2.37836405
 -2.58694595 -2.77431614 -2.93870697 -3.08188608 -3.19855053 -3.29400327
 -3.36647665 -3.41597066 -3.44248531 -3.44778824 -3.43541473 -3.4053648
 -3.35940607 -3.30107384 -3.23036811 -3.15082416 -3.06420964 -2.97052455
 -2.86976888 -2.76547793 -2.65588404 -2.54275487 -2.42609041 -2.30765831
 -2.18922621 -2.07079411 -1.95766494 -1.8498387  -1.75085068 -1.66246851
 -1.58645985 -1.52635998 -1.48040126 -1.45035132 -1.43621017 -1.43267489
 -1.4415131  -1.46095718 -1.48570418 -1.51575412 -1.5475717  -1.58115692
 -1.61474215 -1.64655972 -1.6783773  -1.71019488 -1.74201246 -1.77736533
 -1.81448584 -1.86044456 -1.91170622 -1.97534138 -2.04958239 -2.13619692
 -2.23695258 -2.35361704 -2.48442264 -2.62936939 -2.78668965 -2.95815105
 -3.13668302 -3.32405321 -3.51319104 -3.70586416 -3.89500199 -4.07883689
 -4.25560122 -4.42352733 -4.58084758 -4.72579433 -4.85659994 -4.97679968
 -5.08285828 -5.17477573]",9.321295543016099,2.2635114233947524,5.55483,-0.08561499999999977
018,1,1,csp,46a.png,1,1,184,185,177,1,1,477,pos_feedback_onset,4,"[-3.12584525e-01 -2.60064022e-01 -2.11044887e-01 -1.65527118e-01
 -1.25261399e-01 -9.02477305e-02 -6.22367957e-02 -3.77272278e-02
 -1.84697101e-02 -9.62875883e-04  1.47932749e-02  3.05494257e-02
  4.80562600e-02  6.90644610e-02  9.35740290e-02  1.23335647e-01
  1.58349316e-01  2.00365718e-01  2.47634170e-01  2.98403989e-01
  3.56176542e-01  4.17450462e-01  4.83976432e-01  5.52253086e-01
  6.22280423e-01  6.95809126e-01  7.69337830e-01  8.41115851e-01
  9.12893871e-01  9.82921208e-01  1.05119786e+00  1.11422246e+00
  1.17199502e+00  1.22451552e+00  1.27003329e+00  1.31029901e+00
  1.34356199e+00  1.37157293e+00  1.39433181e+00  1.41358933e+00
  1.42934548e+00  1.44510163e+00  1.45910710e+00  1.47486325e+00
  1.49237008e+00  1.51337829e+00  1.53613717e+00  1.56239742e+00
  1.59040836e+00  1.62016997e+00  1.64993159e+00  1.67794253e+00
  1.70245209e+00  1.72521098e+00  1.74446850e+00  1.76022465e+00
  1.77247943e+00  1.78473422e+00  1.79698900e+00  1.81449583e+00
  1.83550403e+00  1.86351497e+00  1.90203000e+00  1.95279982e+00
  2.01407374e+00  2.08585176e+00  2.16988457e+00  2.26092011e+00
  2.36070906e+00  2.46575007e+00  2.57079107e+00  2.67758276e+00
  2.78087308e+00  2.88241272e+00  2.97694963e+00  3.06798516e+00
  3.15201797e+00  3.23254941e+00  3.30957948e+00  3.38485886e+00
  3.45663688e+00  3.52841490e+00  3.59844224e+00  3.66671890e+00
  3.73324487e+00  3.79626947e+00  3.85579271e+00  3.91006389e+00
  3.95908303e+00  4.00109943e+00  4.03436241e+00  4.06062267e+00
  4.07812950e+00  4.08863360e+00  4.09388565e+00  4.09213497e+00
  4.08513223e+00  4.07287745e+00  4.05887198e+00  4.04136515e+00
  4.02210763e+00  4.00109943e+00  3.97834054e+00  3.95383098e+00
  3.92582004e+00  3.89605842e+00  3.86279544e+00  3.82603109e+00
  3.78576537e+00  3.74199828e+00  3.69472983e+00  3.64220933e+00
  3.58618746e+00  3.52666422e+00  3.46188893e+00  3.39361228e+00
  3.32358494e+00  3.25005624e+00  3.17477685e+00  3.09949747e+00
  3.02246740e+00  2.94718801e+00  2.87540999e+00  2.80538265e+00
  2.73885668e+00  2.67583208e+00  2.61805952e+00  2.56203766e+00
  2.50951715e+00  2.45874733e+00  2.40622683e+00  2.35370633e+00
  2.29768446e+00  2.23465986e+00  2.16113115e+00  2.07884903e+00
  1.98081076e+00  1.86526565e+00  1.73221371e+00  1.57815357e+00
  1.40308523e+00  1.20700869e+00  9.88173258e-01  7.53581679e-01
  4.99732583e-01  2.33628703e-01 -4.12285946e-02 -3.23088626e-01
 -6.08450024e-01 -8.93811422e-01 -1.17392077e+00 -1.45052875e+00
 -1.72188468e+00 -1.98273651e+00 -2.23658561e+00 -2.48168129e+00
 -2.71802355e+00 -2.94211103e+00 -3.15569440e+00 -3.35702300e+00
 -3.54084476e+00 -3.70715968e+00 -3.85071572e+00 -3.96976220e+00
 -4.05729637e+00 -4.11331824e+00 -4.13607712e+00 -4.12032097e+00
 -4.06955115e+00 -3.98376766e+00 -3.86647187e+00 -3.71941447e+00
 -3.54784749e+00 -3.35702300e+00 -3.15219304e+00 -2.94036034e+00
 -2.72327560e+00 -2.50794154e+00 -2.29435816e+00 -2.08602683e+00
 -1.88469824e+00 -1.68862170e+00 -1.49779720e+00 -1.31222476e+00
 -1.12840300e+00 -9.46331924e-01 -7.64260848e-01 -5.80439089e-01
 -3.91365279e-01 -1.98790103e-01 -2.71355931e-03  1.96864351e-01
  3.96442261e-01  5.96020171e-01  7.92096715e-01  9.79419841e-01
  1.15448818e+00  1.31555106e+00  1.45910710e+00  1.58165494e+00
  1.68319458e+00  1.76022465e+00  1.81624652e+00  1.85126019e+00
  1.86526565e+00  1.86351497e+00  1.84775882e+00  1.82675062e+00
  1.80049037e+00  1.77773148e+00  1.76022465e+00  1.75497260e+00
  1.76197533e+00  1.78473422e+00  1.82149857e+00  1.87401907e+00
  1.93704367e+00  2.01057238e+00  2.09110381e+00  2.17863799e+00
  2.26792284e+00  2.36070906e+00  2.45349528e+00  2.54628150e+00
  2.63731704e+00  2.72835258e+00  2.81763744e+00  2.90167024e+00
  2.98395236e+00  3.06098243e+00  3.13100977e+00  3.19403437e+00
  3.24655487e+00  3.28857128e+00  3.32008358e+00  3.33759041e+00
  3.34109178e+00  3.33233836e+00  3.31133016e+00  3.27981786e+00
  3.23430009e+00  3.18002890e+00  3.11700430e+00  3.04172491e+00
  2.95944279e+00  2.86665657e+00  2.76336625e+00  2.65132251e+00
  2.52877467e+00  2.39572273e+00  2.25566806e+00  2.11036133e+00
  1.95805187e+00  1.80574242e+00  1.65168228e+00  1.50287418e+00
  1.36106883e+00  1.22801689e+00  1.10546905e+00  9.96926675e-01]","[-0.11880025 -0.26830169 -0.38754689 -0.47297628 -0.52814943 -0.55306634
 -0.54950678 -0.51747076 -0.46229761 -0.38576711 -0.28609948 -0.16685429
 -0.0298113   0.1232497   0.28876915  0.46852683  0.65896319  0.85651866
  1.06119325  1.2694274   1.47944133  1.69123503  1.90124896  2.10592355
  2.30703858  2.5010345   2.68613152  2.86054986  3.02250976  3.16845164
  3.29481595  3.40338247  3.48525231  3.54042546  3.56534236  3.55644347
  3.51372877  3.43363871  3.31795308  3.16845164  2.9851344   2.77156091
  2.53663008  2.28212167  2.0169346   1.74640818  1.47766155  1.21781381
  0.9722043   0.74439258  0.53793821  0.35462097  0.19444086  0.05383832
 -0.06540688 -0.17041384 -0.26118257 -0.34127263 -0.41602335 -0.48543473
 -0.54950678 -0.61001927 -0.6669722  -0.71680601 -0.75774093 -0.78799717
 -0.80401518 -0.80579496 -0.78799717 -0.74884203 -0.6918891  -0.61179905
 -0.51213142 -0.39110644 -0.25228368 -0.09566312  0.07875522  0.26563202
  0.46674705  0.67854076  0.89923336  1.1252653   1.35485679  1.58444829
  1.81403979  2.04007173  2.25720477  2.46721869  2.66477417  2.84987119
  3.02250976  3.17913031  3.31973286  3.44431739  3.55288391  3.64365264
  3.72018314  3.78247541  3.82874966  3.86078568  3.88036325  3.88926215
  3.88570259  3.87324414  3.85366657  3.8251901   3.79493386  3.75933828
  3.72196292  3.68280778  3.64543242  3.60983684  3.57602104  3.54576479
  3.51906811  3.4941512   3.47279385  3.45321628  3.43719827  3.42118026
  3.40694203  3.39092402  3.37490601  3.35710822  3.33753065  3.31439352
  3.28947661  3.26100015  3.2307439   3.1969281   3.16133252  3.12573694
  3.08836158  3.052766    3.01717042  2.98157484  2.94775904  2.91216345
  2.87656787  2.83919251]",3.7694840123213353,3.2565062047546705,5.7120549999999986,0.06598499999999952
018,1,1,csm,16b.png,1,1,76,74,70,1,1,621,neu_feedback_onset,5,"[-1.56290816e-01 -1.58061817e-01 -1.65145820e-01 -1.70458822e-01
 -1.75771824e-01 -1.77542825e-01 -1.74000824e-01 -1.63374819e-01
 -1.47435812e-01 -1.20870801e-01 -8.72217869e-02 -4.64887696e-02
  1.32825056e-03  5.80002745e-02  1.16443299e-01  1.81970327e-01
  2.47497355e-01  3.13024382e-01  3.80322411e-01  4.44078438e-01
  5.04292463e-01  5.62735488e-01  6.15865510e-01  6.63682530e-01
  7.07957549e-01  7.45148565e-01  7.77026578e-01  8.01820589e-01
  8.19530596e-01  8.28385600e-01  8.30156601e-01  8.21301597e-01
  8.05362590e-01  7.78797579e-01  7.45148565e-01  7.04415548e-01
  6.60140529e-01  6.08781507e-01  5.55651485e-01  4.98979461e-01
  4.38765435e-01  3.75009408e-01  3.11253382e-01  2.45726354e-01
  1.81970327e-01  1.21756301e-01  7.21682805e-02  3.67482655e-02
  1.72672573e-02  2.25802595e-02  5.26872723e-02  1.09359296e-01
  1.92596331e-01  3.00627377e-01  4.28139431e-01  5.69819491e-01
  7.20354554e-01  8.69118617e-01  1.01434068e+00  1.14893674e+00
  1.26936479e+00  1.37385383e+00  1.46240387e+00  1.53324390e+00
  1.58814492e+00  1.63241994e+00  1.66606895e+00  1.69263397e+00
  1.71388597e+00  1.73336698e+00  1.75461899e+00  1.77941300e+00
  1.80774901e+00  1.84316903e+00  1.88567305e+00  1.93703207e+00
  1.99724609e+00  2.06277312e+00  2.13361315e+00  2.20799518e+00
  2.28237721e+00  2.35321724e+00  2.41874427e+00  2.47541630e+00
  2.51969131e+00  2.54802733e+00  2.56219533e+00  2.56042433e+00
  2.54094332e+00  2.50729431e+00  2.45770629e+00  2.39572126e+00
  2.32133923e+00  2.23987320e+00  2.14955216e+00  2.05214712e+00
  1.95120007e+00  1.84848203e+00  1.74399299e+00  1.63773294e+00
  1.53324390e+00  1.43052585e+00  1.33312081e+00  1.24102877e+00
  1.15424974e+00  1.07809671e+00  1.01079868e+00  9.55897654e-01
  9.11622635e-01  8.77973621e-01  8.58492613e-01  8.47866608e-01
  8.47866608e-01  8.58492613e-01  8.77973621e-01  9.04538632e-01
  9.38187646e-01  9.77149663e-01  1.02142468e+00  1.07101270e+00
  1.12414272e+00  1.17904375e+00  1.23571577e+00  1.29415880e+00
  1.35260182e+00  1.41281585e+00  1.47125887e+00  1.53147290e+00
  1.59168692e+00  1.65544295e+00  1.72096998e+00  1.79358101e+00
  1.87150504e+00  1.95651308e+00  2.05037612e+00  2.15309416e+00
  2.26289621e+00  2.38155326e+00  2.50375231e+00  2.62772236e+00
  2.75346341e+00  2.87566246e+00  2.99077751e+00  3.09880856e+00
  3.19444260e+00  3.28122164e+00  3.35383267e+00  3.41758869e+00
  3.47071872e+00  3.51676474e+00  3.55572675e+00  3.59114677e+00
  3.62125378e+00  3.65136079e+00  3.67792580e+00  3.70271981e+00
  3.72220082e+00  3.73991083e+00  3.75230784e+00  3.75939184e+00
  3.76116284e+00  3.76116284e+00  3.75939184e+00  3.75762084e+00
  3.76116284e+00  3.77001784e+00  3.78595685e+00  3.81429286e+00
  3.85502588e+00  3.90815590e+00  3.97368293e+00  4.05160696e+00
  4.14015700e+00  4.23756204e+00  4.34205108e+00  4.45185313e+00
  4.56342618e+00  4.67854123e+00  4.79365628e+00  4.91054232e+00
  5.02388637e+00  5.13723042e+00  5.24880347e+00  5.35683451e+00
  5.46132356e+00  5.56227060e+00  5.65790464e+00  5.74999668e+00
  5.83677572e+00  5.92001275e+00  5.99970778e+00  6.07763182e+00
  6.15555585e+00  6.23347988e+00  6.31140392e+00  6.39286995e+00
  6.47433599e+00  6.55757302e+00  6.64081006e+00  6.72404709e+00
  6.80551313e+00  6.88343716e+00  6.95959019e+00  7.03220122e+00
  7.10127025e+00  7.16679728e+00  7.22878230e+00  7.28899633e+00
  7.34566835e+00  7.39879838e+00  7.45192840e+00  7.50151642e+00
  7.54756244e+00  7.59006646e+00  7.62548647e+00  7.65559348e+00
  7.67507449e+00  7.68215850e+00  7.67684549e+00  7.65559348e+00
  7.61486047e+00  7.55818844e+00  7.48203541e+00  7.39171437e+00
  7.28545433e+00  7.16856828e+00  7.04636923e+00  6.92062817e+00
  6.79665812e+00  6.67800107e+00  6.56642802e+00  6.46725198e+00
  6.38047295e+00  6.30431991e+00  6.24056389e+00  6.18920486e+00
  6.14670085e+00  6.11305183e+00  6.08648682e+00  6.06346381e+00
  6.04575380e+00  6.02804380e+00  6.01210479e+00  5.99439478e+00
  5.97668478e+00  5.95543277e+00  5.93240976e+00  5.90407374e+00
  5.87396673e+00  5.83854672e+00  5.80135570e+00  5.76239368e+00
  5.71988967e+00  5.67738565e+00  5.63665263e+00  5.59591961e+00
  5.55695760e+00  5.52153758e+00  5.48965957e+00  5.45955256e+00]","[-1.7118976  -1.54403022 -1.37266559 -1.19955235 -1.02119326 -0.83933692
 -0.65398335 -0.46513255 -0.2727845  -0.08043646  0.11366021  0.30600825
  0.49485906  0.68021263  0.85857173  1.02993635  1.19255788  1.34993355
  1.49681751  1.63845562  1.77484787  1.90599426  2.0318948   2.1542981
  2.27320417  2.388613    2.5022732   2.61243618  2.71735329  2.81877317
  2.91319857  3.0006295   3.07931734  3.14751346  3.20172064  3.24368749
  3.26641953  3.27166538  3.25592782  3.21745821  3.15450794  3.06707701
  2.95516542  2.82052179  2.6613975   2.48128978  2.28194726  2.06686717
  1.83604952  1.59648877  1.34818493  1.09813248  0.8463314   0.59802756
  0.35671819  0.12764916 -0.08743093 -0.28677345 -0.46513255 -0.6207596
 -0.75540323 -0.86381758 -0.9494999  -1.01245016 -1.05616563 -1.07889767
 -1.08764076 -1.08414353 -1.06840596 -1.04742254 -1.02119326 -0.99321536
 -0.96523746 -0.93725956 -0.90928167 -0.88480101 -0.86206897 -0.84108554
 -0.82185074 -0.80436455 -0.78862698 -0.77288942 -0.75715185 -0.74141428
 -0.72742533 -0.71168777 -0.69769882 -0.68370987 -0.66972092 -0.65573197
 -0.64349164 -0.63125131 -0.6207596  -0.61376513 -0.60851927 -0.60851927
 -0.61376513 -0.62600546 -0.64524026 -0.67496678 -0.715185   -0.76589494
 -0.82884521 -0.90053857 -0.98272365 -1.07365182 -1.16982584 -1.2694971
 -1.37266559 -1.47408547 -1.57025949 -1.66293628 -1.74686997 -1.82031195
 -1.8815136  -1.93047492 -1.96719592 -1.99167658 -2.00566552 -2.01091138
 -2.00741414 -2.00216829 -1.99517381 -1.99167658 -1.99342519 -2.00391691
 -2.02664895 -2.06511856 -2.11932573 -2.19276771 -2.2854445  -2.39910471
 -2.5302511  -2.67888368 -2.84500245 -3.02511016 -3.21396097 -3.40980625
 -3.61089739 -3.80849129]",7.085818268758229,2.211783940686859,5.646525,-0.6085400000000005
018,1,1,csp,31a.png,1,0,124,108,120,1,1,732,neg_feedback_onset,6,"[-1.12746850e+00 -9.97801972e-01 -8.62732668e-01 -7.24061516e-01
 -5.83589440e-01 -4.41316439e-01 -3.00844363e-01 -1.63974135e-01
 -3.07057551e-02  9.35580046e-02  2.10618068e-01  3.15071663e-01
  4.08719714e-01  4.87960372e-01  5.52793638e-01  6.01418588e-01
  6.33835221e-01  6.48242613e-01  6.48242613e-01  6.32034297e-01
  6.01418588e-01  5.59997335e-01  5.07770537e-01  4.50140967e-01
  3.90710474e-01  3.31279980e-01  2.75451334e-01  2.26826385e-01
  1.85405131e-01  1.51187574e-01  1.27775562e-01  1.11567245e-01
  1.02562625e-01  9.71598527e-02  9.71598527e-02  9.53589287e-02
  9.35580046e-02  8.99561565e-02  8.27524603e-02  7.37478400e-02
  5.93404476e-02  4.49330552e-02  3.05256627e-02  1.61182703e-02
  5.31272596e-03 -9.00462027e-05  1.71087785e-03  1.43173462e-02
  3.77293589e-02  7.37478400e-02  1.22372789e-01  1.87206055e-01
  2.66446714e-01  3.61895689e-01  4.71752056e-01  5.96015816e-01
  7.34686968e-01  8.85964588e-01  1.04624683e+00  1.21553369e+00
  1.39022332e+00  1.57211665e+00  1.75400998e+00  1.93770424e+00
  2.11959757e+00  2.29788905e+00  2.47077776e+00  2.63646277e+00
  2.79674501e+00  2.94622171e+00  3.08669378e+00  3.21816124e+00
  3.34242500e+00  3.45948506e+00  3.56754051e+00  3.67199410e+00
  3.77284585e+00  3.87009575e+00  3.96554472e+00  4.05739185e+00
  4.14383620e+00  4.22487778e+00  4.29871567e+00  4.35994709e+00
  4.40497019e+00  4.43018313e+00  4.43558590e+00  4.41397481e+00
  4.36715079e+00  4.29331290e+00  4.19246115e+00  4.06999832e+00
  3.92592439e+00  3.76384123e+00  3.59095252e+00  3.41086011e+00
  3.22536493e+00  3.04167068e+00  2.85977735e+00  2.68508772e+00
  2.51760178e+00  2.35912046e+00  2.21144469e+00  2.07277354e+00
  1.94490793e+00  1.82964879e+00  1.72699612e+00  1.63694992e+00
  1.56311203e+00  1.50368154e+00  1.46406121e+00  1.44245012e+00
  1.43884827e+00  1.45685751e+00  1.49287599e+00  1.54690372e+00
  1.61894068e+00  1.70718596e+00  1.80983863e+00  1.92329684e+00
  2.04936153e+00  2.18262991e+00  2.32310198e+00  2.46717591e+00
  2.61665260e+00  2.76612930e+00  2.91380507e+00  3.06148085e+00
  3.20195292e+00  3.33702223e+00  3.46128599e+00  3.57474420e+00
  3.67559595e+00  3.76023938e+00  3.83047542e+00  3.88270221e+00
  3.91872070e+00  3.94033178e+00  3.94933640e+00  3.94753548e+00
  3.93853086e+00  3.92592439e+00  3.91151700e+00  3.90071146e+00
  3.89170683e+00  3.88990591e+00  3.89710961e+00  3.91331792e+00
  3.93853086e+00  3.97454934e+00  4.01957244e+00  4.07360016e+00
  4.13663251e+00  4.20506762e+00  4.27530366e+00  4.34553970e+00
  4.41217389e+00  4.47160438e+00  4.51842841e+00  4.55264596e+00
  4.57065520e+00  4.57425705e+00  4.56345151e+00  4.54184042e+00
  4.51302563e+00  4.48421085e+00  4.45539606e+00  4.43738682e+00
  4.42838220e+00  4.43738682e+00  4.46079884e+00  4.50041917e+00
  4.55444689e+00  4.62108108e+00  4.69852081e+00  4.78136332e+00
  4.86780767e+00  4.95425203e+00  5.04069638e+00  5.12533981e+00
  5.20638139e+00  5.28382113e+00  5.36126086e+00  5.43509875e+00
  5.51073756e+00  5.58637637e+00  5.66561703e+00  5.74665861e+00
  5.83130204e+00  5.91954732e+00  6.01319537e+00  6.10864435e+00
  6.20949609e+00  6.31394969e+00  6.42200513e+00  6.53366242e+00
  6.65072249e+00  6.77138440e+00  6.89564816e+00  7.02351376e+00
  7.15318030e+00  7.28644868e+00  7.42151798e+00  7.55838821e+00
  7.69165659e+00  7.82312404e+00  7.95098965e+00  8.07345249e+00
  8.18691070e+00  8.29316522e+00  8.38861420e+00  8.47325763e+00
  8.54529459e+00  8.60472508e+00  8.65154911e+00  8.68576667e+00
  8.70737776e+00  8.71458145e+00  8.70917868e+00  8.69116944e+00
  8.66055373e+00  8.61733155e+00  8.56150291e+00  8.49306779e+00
  8.41022529e+00  8.31477631e+00  8.20672087e+00  8.08605896e+00
  7.95098965e+00  7.80151296e+00  7.63942979e+00  7.46474016e+00
  7.27384221e+00  7.07213871e+00  6.85602783e+00  6.62550955e+00
  6.38418573e+00  6.12845451e+00  5.86011683e+00  5.57917267e+00
  5.28742298e+00  4.98486774e+00  4.67510880e+00  4.35814616e+00
  4.03758168e+00  3.71341535e+00  3.39104995e+00  3.07228639e+00
  2.75892560e+00  2.45456944e+00  2.15921789e+00  1.87827374e+00
  1.61353791e+00  1.36320946e+00  1.13269118e+00  9.18381221e-01
  7.25682348e-01  5.52793638e-01  3.99715094e-01  2.66446714e-01]","[-4.03690098e-01 -3.67707534e-01 -3.30011514e-01 -2.90602040e-01
 -2.49479110e-01 -2.08356179e-01 -1.67233249e-01 -1.26110319e-01
 -8.49873890e-02 -4.55779142e-02 -4.45498410e-03  3.66679460e-02
  7.95043316e-02  1.25767628e-01  1.75457835e-01  2.32001864e-01
  2.95399715e-01  3.63937932e-01  4.42756881e-01  5.26716197e-01
  6.19242790e-01  7.16909749e-01  8.19717074e-01  9.29378221e-01
  1.04075282e+00  1.15726779e+00  1.27549622e+00  1.39543810e+00
  1.51537998e+00  1.63874877e+00  1.76383101e+00  1.88891326e+00
  2.01570896e+00  2.14250466e+00  2.27101382e+00  2.39609606e+00
  2.52117831e+00  2.64283364e+00  2.75934861e+00  2.86900976e+00
  2.97181709e+00  3.06605713e+00  3.14830299e+00  3.21684121e+00
  3.26995833e+00  3.30765435e+00  3.32478890e+00  3.31793508e+00
  3.28709288e+00  3.22540849e+00  3.13288189e+00  3.00779965e+00
  2.84844829e+00  2.65654129e+00  2.44064590e+00  2.20761597e+00
  1.96773221e+00  1.73641573e+00  1.52908762e+00  1.35945553e+00
  1.23951365e+00  1.18125617e+00  1.19153690e+00  1.27035585e+00
  1.41428611e+00  1.61647385e+00  1.86663834e+00  2.14764503e+00
  2.44749973e+00  2.74906788e+00  3.04378221e+00  3.32136199e+00
  3.57152648e+00  3.79427569e+00  3.98789615e+00  4.15067442e+00
  4.28946431e+00  4.40769273e+00  4.50535969e+00  4.58931900e+00
  4.65957068e+00  4.72125507e+00  4.77437219e+00  4.81892203e+00
  4.85661805e+00  4.88574679e+00  4.90459480e+00  4.91487553e+00
  4.91316208e+00  4.90288135e+00  4.88060643e+00  4.84805077e+00
  4.80864130e+00  4.76066455e+00  4.70583397e+00  4.64928994e+00
  4.58931900e+00  4.52763461e+00  4.46766367e+00  4.41111964e+00
  4.35457561e+00  4.30145849e+00  4.25005483e+00  4.20036462e+00
  4.15238787e+00  4.10612458e+00  4.05643437e+00  4.00674416e+00
  3.95362704e+00  3.89708301e+00  3.83711207e+00  3.77028731e+00
  3.69660873e+00  3.61778978e+00  3.53211701e+00  3.43787696e+00
  3.33849655e+00  3.23226231e+00  3.11917425e+00  3.00265928e+00
  2.88271740e+00  2.75934861e+00  2.63597982e+00  2.51261103e+00
  2.39266915e+00  2.27444073e+00  2.16135267e+00  2.05340498e+00
  1.95231111e+00  1.85978452e+00  1.77411174e+00  1.69529280e+00
  1.62332767e+00  1.55821636e+00  1.49824542e+00  1.44341485e+00
  1.39029773e+00  1.33889407e+00  1.28577695e+00  1.23094638e+00]",7.917987719498868,4.285694703366589,5.5527050000000004,0.17256999999999945
018,1,1,csm,31b.png,1,0,72,NaN,75,1,1,529,neu_feedback_onset,7,"[ 0.83007878  0.75691264  0.67839288  0.5945195   0.50707704  0.41785004
  0.3268385   0.23404242  0.14124634  0.04845026 -0.04434582 -0.1371419
 -0.22993798 -0.32094952 -0.41196106 -0.50118806 -0.59041506 -0.67964206
 -0.76708452 -0.85274244 -0.93483128 -1.01692012 -1.09543988 -1.17039056
 -1.2435567  -1.31315376 -1.37918173 -1.44342517 -1.50231499 -1.55942027
 -1.61295647 -1.66292359 -1.71110617 -1.75750421 -1.80033317 -1.84137759
 -1.87885293 -1.91632827 -1.95023453 -1.98414079 -2.01447797 -2.04481515
 -2.07336779 -2.10192043 -2.13404215 -2.16616387 -2.20185467 -2.23933001
 -2.27858989 -2.31428069 -2.34104879 -2.35532511 -2.34997149 -2.31606523
 -2.25182179 -2.15188755 -2.01447797 -1.84316213 -1.63794003 -1.40238075
 -1.14183792 -0.86344968 -0.56900058 -0.26562878  0.04666572  0.36074476
  0.67660834  0.99247192  1.30476642  1.6117073   1.90972548  2.19703641
  2.47185557  2.72704479  2.96260407  3.17317979  3.35877195  3.51759601
  3.64608289  3.74780167  3.82096781  3.87093493  3.89591849  3.89948757
  3.88521125  3.85487407  3.81204511  3.75850891  3.69783455  3.62823749
  3.55685589  3.48190521  3.40516999  3.33021931  3.25526863  3.18388703
  3.11428997  3.04826199  2.98580309  2.92512873  2.86445437  2.80378001
  2.73953657  2.67172405  2.59855791  2.51646907  2.42367299  2.32195421
  2.20952819  2.08639493  1.95255444  1.8080067   1.6563208   1.49928128
  1.33688814  1.174495    1.01031732  0.85149326  0.69445374  0.54455238
  0.40357372  0.26973322  0.14481542  0.02882032 -0.07825208 -0.17997086
 -0.27455148 -0.36556302 -0.45122094 -0.53330978 -0.61182954 -0.68856476
 -0.75994636 -0.82954342 -0.89378686 -0.95446122 -1.0115665  -1.0651027
 -1.11685436 -1.16503694 -1.21143498 -1.25783302 -1.30423106 -1.34706001
 -1.38988897 -1.42914885 -1.46305511 -1.48982321 -1.50766861 -1.51659131
 -1.51480677 -1.49874591 -1.47197781 -1.43271793 -1.38096627 -1.31850738
 -1.24534124 -1.16146786 -1.06867178 -0.96516846 -0.8509579  -0.72782464
 -0.59398414 -0.4494364  -0.29418142 -0.13000374  0.04666572  0.23225788
  0.42677274  0.6302103   0.83721694  1.0495772   1.263722    1.47965134
  1.6920116   1.90080278  2.10780941  2.30767789  2.50397729  2.69492307
  2.88408431  3.06967647  3.25705317  3.44442987  3.63537565  3.82989051
  4.02797445  4.22784293  4.43306503  4.63650259  4.83994015  5.04159317
  5.23789257  5.4270538   5.60907688  5.7839618   5.94992402  6.11053262
  6.26400306  6.41211988  6.55666762  6.6940772   6.82613316  6.95105096
  7.06704606  7.17054938  7.26156092  7.33829614  7.39718596  7.44001492
  7.46678302  7.4792748   7.4792748   7.46856756  7.4525067   7.43109222
  7.4078932   7.38647872  7.36506424  7.3454343   7.32937344  7.31331258
  7.3008208   7.28832902  7.27583724  7.26156092  7.24550006  7.22765466
  7.20802472  7.1848257   7.1580576   7.1312895   7.09916778  7.06704606
  7.03135526  6.99387992  6.9528355   6.91179108  6.86717758  6.82256408
  6.7743815   6.72619892  6.6762318   6.62448014  6.57272848  6.51919228
  6.46744062  6.41568896  6.3639373   6.31575472  6.27114122  6.2300968
  6.194406    6.16585336  6.14265434  6.13016256  6.12480894  6.13016256
  6.14622342  6.17120698]","[-0.30886401 -0.35883364 -0.39501854 -0.41397254 -0.41741872 -0.40880327
 -0.38468    -0.346772   -0.29680237 -0.23477111 -0.16067821 -0.07624676
  0.02196941  0.13224721  0.25286356  0.38381846  0.5233888   0.67329769
  0.82837586  0.9869002   1.14887073  1.30911817  1.4693656   1.62788995
  1.78124502  1.93115391  2.07761662  2.22063315  2.36192659  2.49977384
  2.63589801  2.77029909  2.90470016  3.03565505  3.16488686  3.28894939
  3.40784265  3.51984354  3.6197828   3.70938352  3.78347642  3.84206151
  3.88169259  3.90236968  3.90236968  3.88169259  3.83861532  3.77486097
  3.69042952  3.5835979   3.45608919  3.30962648  3.14420977  2.95983906
  2.75823745  2.54112802  2.31195696  2.07244735  1.82432229  1.57275104
  1.3211798   1.07305474  0.83354513  0.60609716  0.394157    0.19772466
  0.02024632 -0.13655494 -0.27612529 -0.40018782 -0.50701944 -0.60351252
 -0.68966706 -0.76892923 -0.84129904 -0.90849958 -0.97053084 -1.02566974
 -1.07391628 -1.11354737 -1.14111682 -1.15490155 -1.15490155 -1.13939373
 -1.11182428 -1.06874701 -1.0153312  -0.95329993 -0.88437631 -0.81028341
 -0.73446741 -0.65520524 -0.57594307 -0.4966809  -0.41569563 -0.33298728
 -0.24855583 -0.1624013  -0.07452367  0.01163086  0.0977854   0.18049375
  0.25458665  0.3200641   0.375203    0.41483409  0.43895736  0.44757281
  0.44068045  0.41828027  0.38037227  0.33212573  0.27181756  0.20289393
  0.12535485  0.0409234  -0.04695422 -0.14000112 -0.2364942  -0.33298728
 -0.42948036 -0.52252726 -0.61212797 -0.69311324 -0.76375996 -0.82234504
 -0.8671454  -0.89643794 -0.91022267 -0.90677648 -0.88954558 -0.85680685
 -0.81372959 -0.75859068 -0.69655942 -0.62763579 -0.55526598 -0.48289617
 -0.41052636 -0.33987964]",6.915360160323064,2.8454258403297907,5.6036850000000005,0.029365000000000308
018,1,1,csm,57b.png,1,1,220,271,223,1,1,401,neu_feedback_onset,8,"[-0.3575771  -0.26174404 -0.16077707 -0.0615214   0.03260035  0.11474297
  0.17977255  0.22768908  0.25506995  0.26191517  0.24993604  0.21742125
  0.17121603  0.11132037  0.03944557 -0.03756314 -0.12141706 -0.20527099
 -0.28741361 -0.36784493 -0.44314233 -0.51159452 -0.57491279 -0.62967454
 -0.67930237 -0.72379629 -0.7648676  -0.80422761 -0.84701022 -0.89150414
 -0.94455459 -1.00273894 -1.07290243 -1.14991114 -1.23889898 -1.33473204
 -1.43569901 -1.5417999  -1.64961209 -1.75571298 -1.85839125 -1.95251301
 -2.03636693 -2.10995303 -2.1698487  -2.21605392 -2.24856871 -2.26568175
 -2.27081567 -2.26225914 -2.24343479 -2.21434262 -2.17669391 -2.1339113
 -2.08428346 -2.03123302 -1.97475997 -1.91657561 -1.85496864 -1.79336168
 -1.73175471 -1.66843644 -1.60511817 -1.5417999  -1.47677032 -1.41345205
 -1.34842248 -1.28510421 -1.22178593 -1.16017897 -1.098572   -1.04038764
 -0.9856259  -0.93257545 -0.88465892 -0.8384537  -0.79909369 -0.76144499
 -0.7289302  -0.69983803 -0.67416846 -0.6536328  -0.63651975 -0.62454062
 -0.6176954  -0.6176954  -0.62454062 -0.63651975 -0.65705541 -0.68272498
 -0.71352846 -0.74946586 -0.78711456 -0.82647457 -0.86583457 -0.90348327
 -0.93770937 -0.97022416 -0.99931633 -1.02669721 -1.05236678 -1.07974765
 -1.10712852 -1.1362207  -1.1704468  -1.20638419 -1.2457442  -1.28681551
 -1.32959813 -1.37409205 -1.41687466 -1.45965728 -1.50243989 -1.5417999
 -1.58115991 -1.62223122 -1.66159122 -1.70608514 -1.75229037 -1.80534081
 -1.86352517 -1.92684344 -1.99871823 -2.07743825 -2.16129217 -2.25028001
 -2.34269046 -2.43681222 -2.52922267 -2.61821051 -2.70206443 -2.77736184
 -2.84410272 -2.90057577 -2.94335838 -2.97245056 -2.98956361 -2.99469752
 -2.986141   -2.96902795 -2.94335838 -2.9108436  -2.8749062  -2.8389688
 -2.80645401 -2.77907314 -2.75853748 -2.74998096 -2.75511488 -2.77393923
 -2.80987662 -2.86463837 -2.93480186 -3.0237897  -3.12817928 -3.2462593
 -3.37631845 -3.51151152 -3.64841589 -3.78360895 -3.90853419 -4.01634638
 -4.10362292 -4.16351858 -4.19089945 -4.18576554 -4.14469423 -4.06939683
 -3.96329594 -3.83152548 -3.67921937 -3.51664543 -3.35236019 -3.19492016
 -3.05459318 -2.93822447 -2.85265924 -2.7996088  -2.78249575 -2.79447488
 -2.83383489 -2.88688533 -2.94164708 -2.98956361 -3.01352187 -3.00496535
 -2.95191491 -2.85437054 -2.70719835 -2.51553223 -2.28621741 -2.03294433
 -1.7642695  -1.49559467 -1.24232159 -1.01129547 -0.81449543 -0.6553441
 -0.53384148 -0.45169885 -0.40207102 -0.37811276 -0.37811276 -0.39180319
 -0.41576146 -0.44656494 -0.48421364 -0.52870756 -0.58175801 -0.64678758
 -0.72208499 -0.81449543 -0.92230763 -1.04552156 -1.17729201 -1.31761899
 -1.45965728 -1.59827295 -1.73004341 -1.84983473 -1.95935823 -2.0603252
 -2.15273565 -2.2451461  -2.34097916 -2.44708004 -2.57029398 -2.71233226
 -2.87832881 -3.06828362 -3.28048539 -3.51493413 -3.76820721 -4.03345943
 -4.31069078 -4.59305604 -4.87713261 -5.16292048 -5.44699705 -5.7259397
 -5.99974844 -6.26671196 -6.52511896 -6.77496943 -7.01455208 -7.2438669
 -7.45949128 -7.65971392 -7.84795743 -8.01737659 -8.17310531 -8.31000968
 -8.43151231 -8.53419058 -8.61975581 -8.6899193  -8.74296975 -8.78061845
 -8.80628802 -8.81655585]","[-1.62314405 -1.62495066 -1.59243177 -1.52016758 -1.4135779  -1.27085612
 -1.09742207 -0.89508233 -0.66745013 -0.41633207 -0.14714796  0.13648899
  0.43277217  0.73808838  1.04701779  1.36136702  1.67390965  1.98645227
  2.29357508  2.59889129  2.89698107  3.18965105  3.4769012   3.75692494
  4.02972226  4.29348656  4.55183104  4.8011425   5.04322754  5.27808616
  5.50210515  5.71889772  5.92485066  6.12177058  6.30604427  6.47586512
  6.63303973  6.7721483   6.89319082  6.99616729  7.0756579   7.13346925
  7.16779474  7.17863437  7.16418153  7.12624283  7.06481827  6.97990785
  6.87512477  6.74866243  6.60413405  6.44515283  6.26991217  6.08383188
  5.88691196  5.68457223  5.47681268  5.26543992  5.05406716  4.84450101
  4.63854807  4.43982154  4.25012804  4.06946757  3.90325993  3.75150513
  3.61781637  3.50219367  3.40463701  3.32875961  3.27094826  3.23120295
  3.20771709  3.19687746  3.19868407  3.20591049  3.21494351  3.22578314
  3.23120295  3.23120295  3.22216993  3.20049067  3.16616518  3.11738685
  3.05415569  2.97466508  2.88252823  2.77232534  2.64947622  2.51217426
  2.36222606  2.19963163  2.02619758  1.84192389  1.65042378  1.45169726
  1.24935753  1.04340458  0.83925824  0.63511191  0.43638538  0.24488528
  0.06061159 -0.11101586 -0.26999708 -0.41633207 -0.55002082 -0.66925674
 -0.77584642 -0.86978986 -0.95650689 -1.0341909  -1.10645509 -1.17691268
 -1.24556366 -1.31602124 -1.38647883 -1.45874302 -1.53100721 -1.6032714
 -1.6773422  -1.74779978 -1.81464416 -1.87968193 -1.93929989 -1.99349803
 -2.04227636 -2.08563487 -2.12357357 -2.15428585 -2.17777172 -2.19403116
 -2.19945097 -2.19222455 -2.17596511 -2.14525283 -2.10189432 -2.04588957
 -1.97904519 -1.90136119]",-0.20615614692801046,5.913920702696996,5.843495,0.1737700000000011
018,1,1,csp,56a.png,1,1,356,359,351,1,0,476,neg_feedback_onset,9,"[-0.56740432 -0.45409777 -0.34776394 -0.24665964 -0.15078487 -0.06013963
  0.0235329   0.09674636  0.16124393  0.21179608  0.24840281  0.26932095
  0.2728073   0.2571187   0.22399833  0.17344618  0.10546225  0.02527608
 -0.06885552 -0.17344618 -0.28500954 -0.40005927 -0.51859535 -0.63713143
 -0.75566751 -0.87071723 -0.98402378 -1.09558715 -1.20540734 -1.31522753
 -1.42504772 -1.54009744 -1.6603767  -1.78762867 -1.9253397  -2.0735098
 -2.23039579 -2.39948402 -2.57728814 -2.76032179 -2.94858498 -3.13510498
 -3.31813863 -3.49594275 -3.66328781 -3.82191697 -3.96834389 -4.10779811
 -4.24202278 -4.37450428 -4.50872896 -4.64469682 -4.78763738 -4.93406431
 -5.08223441 -5.22691815 -5.36462918 -5.48665162 -5.5894991  -5.66968527
 -5.72023742 -5.74289873 -5.73243966 -5.68886022 -5.61041723 -5.49362433
 -5.33848152 -5.14324562 -4.90617346 -4.62900822 -4.31523624 -3.97008707
 -3.60227659 -3.22226386 -2.83876478 -2.46223841 -2.10140064 -1.76322418
 -1.45119538 -1.16705743 -0.91255349 -0.6859404  -0.48547497 -0.30941403
 -0.15427122 -0.02004654  0.09500318  0.19262113  0.2728073   0.3355617
  0.38262749  0.41400469  0.42969329  0.42969329  0.41400469  0.38611385
  0.34427758  0.29023908  0.2257415   0.15078487  0.06711234 -0.02527608
 -0.12289402 -0.22748468 -0.33730487 -0.44886824 -0.56566114 -0.68071087
 -0.79576059 -0.90732396 -1.0136578  -1.11301892 -1.2001778  -1.27687762
 -1.33788884 -1.38321146 -1.40935912 -1.41981819 -1.41284548 -1.39192734
 -1.35880697 -1.31522753 -1.26641855 -1.21760958 -1.16880061 -1.12522117
 -1.08687126 -1.05723724 -1.03631911 -1.02237368 -1.01191462 -1.00668509
 -0.99971238 -0.99099649 -0.97879424 -0.95787611 -0.92824209 -0.88989218
 -0.84282639 -0.78530153 -0.71906078 -0.64759049 -0.57089068 -0.49070451
 -0.40703198 -0.32510263 -0.2414301  -0.15775758 -0.07408505  0.01307383
  0.10197589  0.19610748  0.29546861  0.40005927  0.51162264  0.62667236
  0.74695162  0.87071723  0.99273967  1.1147621   1.23329818  1.34660473
  1.45468174  1.55752922  1.65514717  1.74753558  1.83643764  1.92359652
  2.00726905  2.09094158  2.17287093  2.25654345  2.34021598  2.42388851
  2.50930421  2.59820627  2.68885151  2.7829831   2.88234423  2.98693488
  3.0950119   3.20831844  3.32511135  3.4453906   3.56915621  3.69117865
  3.81320108  3.93348034  4.05027324  4.16009343  4.26468409  4.36055886
  4.4512041   4.53313345  4.60809009  4.67607402  4.73708523  4.79461009
  4.8486486   4.90094393  4.95323926  5.00902094  5.06828898  5.13452973
  5.2077432   5.28967254  5.38206096  5.47967891  5.58426956  5.6906034
  5.79693724  5.89978472  5.99391631  6.07584566  6.14382959  6.19438174
  6.22924529  6.24319071  6.24144753  6.22401576  6.19263856  6.14905912
  6.09502061  6.0340094   5.96776865  5.89629836  5.8230849   5.74638509
  5.66968527  5.59124228  5.5110561   5.43086993  5.35068376  5.27049759
  5.18682506  5.10489571  5.02122319  4.93580748  4.85039178  4.7632329
  4.67607402  4.58717196  4.4982699   4.41111101  4.32220895  4.23505007
  4.14789119  4.06247549  3.97880296  3.89861679  3.82191697  3.75044669
  3.68420594  3.6249379   3.57264257  3.52906313  3.49594275  3.47328144
  3.46282238  3.46282238]","[ 0.04172377 -0.16869351 -0.34673889 -0.48881551 -0.59312493 -0.65786871
 -0.68484528 -0.67405465 -0.62549682 -0.54097022 -0.42587017 -0.28199512
 -0.11114348  0.08308785  0.297102    0.52730209  0.77009125  1.02546948
  1.29163834  1.56320251  1.84196044  2.12611368  2.4138638   2.70161392
  2.98936404  3.27531572  3.55587208  3.82743625  4.0882098   4.33639428
  4.56839281  4.78060852  4.97483985  5.14748992  5.29855873  5.42984472
  5.53954946  5.62947137  5.7014089   5.75716048  5.800323    5.82909801
  5.84708239  5.85607458  5.85967146  5.85607458  5.85067927  5.84168708
  5.83449333  5.83089645  5.83269489  5.83988864  5.85427615  5.87945428
  5.91362461  5.95678713  6.01074027  6.07368561  6.14562314  6.22295599
  6.30748258  6.39740449  6.49092328  6.58803895  6.68875149  6.79485934
  6.90276564  7.01606725  7.13296573  7.25346109  7.37755333  7.50344401
  7.62933469  7.75342692  7.87572072  7.99441765  8.10592082  8.2084318
  8.30374902  8.38647718  8.45841471  8.51596474  8.55732882  8.58430539
  8.59329758  8.58250695  8.5519335   8.49977879  8.4296397   8.33791935
  8.22641618  8.1005255   7.95844888  7.80558163  7.64731907  7.48366119
  7.32180175  7.16353918  7.01426881  6.87399063  6.74630151  6.63120146
  6.53048892  6.44236545  6.36683104  6.30208727  6.24813412  6.20317316
  6.16540596  6.13483251  6.10965438  6.08807312  6.07008873  6.05570123
  6.04311216  6.03052309  6.01613559  5.99994964  5.97836838  5.94779493
  5.90822929  5.85427615  5.78773393  5.70320733  5.60069636  5.48020099
  5.34172125  5.18705556  5.01800237  4.83456167  4.64033034  4.43890525
  4.2338833   4.02886134  3.82383938  3.62421273  3.43177984  3.24474227
  3.06849532  2.89944212]",5.610678706213557,7.699608659839806,5.73665,-0.11705000000000165
018,1,1,csp,52a.png,1,1,12,12,23,1,1,530,neg_feedback_onset,10,"[-1.29219217e+00 -1.12816213e+00 -9.64132099e-01 -8.00102063e-01
 -6.39717139e-01 -4.86622439e-01 -3.38995407e-01 -2.00481155e-01
 -6.92571262e-02  5.46766786e-02  1.69497704e-01  2.77028505e-01
  3.77269082e-01  4.72041992e-01  5.63169789e-01  6.47007363e-01
  7.29022381e-01  8.05569731e-01  8.78471969e-01  9.45906539e-01
  1.01151855e+00  1.07348546e+00  1.12816213e+00  1.17919370e+00
  1.22475760e+00  1.26120872e+00  1.29036961e+00  1.30859517e+00
  1.31588540e+00  1.30859517e+00  1.28490195e+00  1.24298316e+00
  1.18466137e+00  1.10629146e+00  1.00787344e+00  8.91229861e-01
  7.58183276e-01  6.10556244e-01  4.51993876e-01  2.86141285e-01
  1.18466137e-01 -4.92090107e-02 -2.11416490e-01 -3.62688635e-01
 -5.01202887e-01 -6.21491580e-01 -7.21732157e-01 -8.01924619e-01
 -8.60246410e-01 -8.96697529e-01 -9.11277976e-01 -9.07632864e-01
 -8.83939637e-01 -8.47488518e-01 -7.96456951e-01 -7.38135161e-01
 -6.72523146e-01 -6.03266020e-01 -5.32186338e-01 -4.62929212e-01
 -3.95494642e-01 -3.31705183e-01 -2.71560837e-01 -2.15061602e-01
 -1.62207480e-01 -1.11175913e-01 -5.83217905e-02 -7.29022381e-03
  4.73864548e-02  1.02063133e-01  1.62207480e-01  2.24174382e-01
  2.89786396e-01  3.55398411e-01  4.22832981e-01  4.90267551e-01
  5.55879566e-01  6.19669024e-01  6.77990814e-01  7.32667493e-01
  7.81876504e-01  8.25617846e-01  8.63891521e-01  8.98520085e-01
  9.27680980e-01  9.53196763e-01  9.76889991e-01  9.96938106e-01
  1.01516367e+00  1.03156667e+00  1.04796967e+00  1.06072756e+00
  1.07166290e+00  1.08077568e+00  1.08624335e+00  1.08806590e+00
  1.08624335e+00  1.07895312e+00  1.06984034e+00  1.05525990e+00
  1.03521178e+00  1.01151855e+00  9.84180214e-01  9.51374207e-01
  9.13100532e-01  8.69359189e-01  8.20150179e-01  7.67296056e-01
  7.07151710e-01  6.41539695e-01  5.70460013e-01  4.95735219e-01
  4.15542757e-01  3.33527739e-01  2.49690165e-01  1.67675148e-01
  8.93052417e-02  1.82255595e-02 -4.55638988e-02 -9.84180214e-02
 -1.40336808e-01 -1.65852592e-01 -1.76787927e-01 -1.71320260e-01
 -1.51272144e-01 -1.14821025e-01 -6.19669024e-02  5.46766786e-03
  8.38375738e-02  1.74965371e-01  2.75205949e-01  3.84559306e-01
  4.99380331e-01  6.16023912e-01  7.32667493e-01  8.43843406e-01
  9.45906539e-01  1.03156667e+00  1.09535613e+00  1.12816213e+00
  1.12633958e+00  1.08259824e+00  9.96938106e-01  8.71181745e-01
  7.08974266e-01  5.17605891e-01  3.11657068e-01  1.05708245e-01
 -8.56601298e-02 -2.42399942e-01 -3.53575855e-01 -4.08252533e-01
 -3.97317198e-01 -3.20769848e-01 -1.82255595e-01  9.11277976e-03
  2.46045054e-01  5.10315667e-01  7.92811839e-01  1.07713057e+00
  1.35598163e+00  1.62025224e+00  1.86447474e+00  2.08864912e+00
  2.29459794e+00  2.48232121e+00  2.65728658e+00  2.82313917e+00
  2.98534665e+00  3.14573157e+00  3.30793905e+00  3.47379165e+00
  3.64146679e+00  3.81460961e+00  3.99139754e+00  4.16818546e+00
  4.34679595e+00  4.52540643e+00  4.70219436e+00  4.87715973e+00
  5.04847999e+00  5.21615514e+00  5.38200773e+00  5.54239265e+00
  5.70277758e+00  5.85951739e+00  6.01807976e+00  6.17299701e+00
  6.32973682e+00  6.48829919e+00  6.64686156e+00  6.80724648e+00
  6.96945396e+00  7.13530655e+00  7.30298170e+00  7.47612452e+00
  7.65291244e+00  7.83334548e+00  8.01742363e+00  8.20332434e+00
  8.39287016e+00  8.58059342e+00  8.76649413e+00  8.94692717e+00
  9.12006999e+00  9.28410002e+00  9.43537217e+00  9.57388642e+00
  9.69417511e+00  9.79623824e+00  9.87825326e+00  9.93657505e+00
  9.97302617e+00  9.98578406e+00  9.97484873e+00  9.94022016e+00
  9.88189837e+00  9.80352847e+00  9.70511045e+00  9.58846687e+00
  9.45906539e+00  9.31690603e+00  9.16563388e+00  9.00524896e+00
  8.84121893e+00  8.66989867e+00  8.49493329e+00  8.31450026e+00
  8.12859955e+00  7.93723117e+00  7.73857257e+00  7.53080120e+00
  7.31391704e+00  7.08974266e+00  6.85463294e+00  6.61223300e+00
  6.36072027e+00  6.10373988e+00  5.84129183e+00  5.57519866e+00
  5.30910549e+00  5.04483488e+00  4.78603193e+00  4.53087410e+00
  4.28300649e+00  4.04607421e+00  3.81825472e+00  3.60319312e+00
  3.40088941e+00  3.20952103e+00  3.03273310e+00  2.86688051e+00
  2.71378581e+00  2.57344900e+00  2.44404753e+00  2.32375884e+00
  2.21440548e+00  2.11598746e+00  2.02668222e+00  1.94648976e+00]","[-0.05542954 -0.23411688 -0.38180744 -0.49485453 -0.5750815  -0.61884167
 -0.62795837 -0.60425495 -0.5477314  -0.46203441 -0.34898732 -0.20859012
 -0.04813618  0.1323745   0.3274719   0.53168601  0.74319347  0.95470094
  1.16073838  1.35765912  1.54181648  1.7059171   1.85178432  1.97941814
  2.09064189  2.19274894  2.28938597  2.38966968  2.50271678  2.63217393
  2.78533451  2.96037517  3.15729591  3.36698004  3.58213418  3.79364165
  3.98691571  4.15283967  4.28412017  4.37346384  4.42087068  4.4263407
  4.39534392  4.33335035  4.24765336  4.14554631  4.03067588  3.90668874
  3.77723159  3.64230441  3.50008387  3.35056998  3.19558606  3.03513212
  2.8710315   2.70875422  2.55012362  2.40243307  2.27115257  2.16539884
  2.08881855  2.04688172  2.04505838  2.08699521  2.17451554  2.30214935
  2.46989665  2.67046408  2.89655826  3.14270919  3.39980016  3.66418449
  3.92492214  4.18201311  4.42998738  4.66884495  4.89676248  5.11373996
  5.32160075  5.52216817  5.71544223  5.90324627  6.0855803   6.2624443
  6.43201494  6.59246888  6.74198277  6.88055663  7.00089708  7.10665082
  7.19417115  7.26345807  7.3145116   7.34915506  7.36556513  7.36921181
  7.35827177  7.332745    7.29445486  7.24157799  7.1741144   7.09206409
  6.99542706  6.88055663  6.75109947  6.60340892  6.44295498  6.26973766
  6.08375696  5.88865955  5.68809213  5.48387803  5.27966392  5.0790965
  4.8839991   4.69619505  4.52115439  4.35887711  4.20936322  4.07625938
  3.95591893  3.85016519  3.75899818  3.68241789  3.62042433  3.57484082
  3.54566738  3.53655068  3.54931406  3.58578086  3.64412775  3.72435472
  3.82646177  3.94315555  4.07443604  4.2130099   4.35523043  4.49380429
  4.62690813  4.74907192]",8.844909601224765,6.398100808833731,5.4868,-0.0485799999999994
018,1,1,csm,30b.png,1,1,320,318,311,1,1,353,neu_feedback_onset,11,"[ 0.31698049  0.33113931  0.33821871  0.33821871  0.33113931  0.31698049
  0.29220256  0.26034523  0.21786878  0.16831292  0.10990781  0.04088358
 -0.0334502  -0.1184031  -0.2104354  -0.31131696 -0.41927794 -0.53431831
 -0.65466825 -0.78032774 -0.90598723 -1.03341658 -1.15907607 -1.279426
 -1.39446638 -1.49888765 -1.59445966 -1.67941255 -1.75551619 -1.82100071
 -1.87940583 -1.93250138 -1.98382709 -2.0351528  -2.09355792 -2.15904244
 -2.23514607 -2.32717838 -2.43159965 -2.55194958 -2.68468848 -2.82804649
 -2.98025376 -3.13600074 -3.29174771 -3.44395498 -3.5908527  -3.72890115
 -3.85810035 -3.97491058 -4.07933185 -4.17136415 -4.24392808 -4.29525379
 -4.32180157 -4.31649201 -4.27224571 -4.18729282 -4.05632377 -3.87756872
 -3.65456737 -3.39085942 -3.09529414 -2.77849063 -2.45106802 -2.12541525
 -1.8103816  -1.51481632 -1.24225911 -0.99801954 -0.78032774 -0.58741387
 -0.41573823 -0.26176111 -0.1184031   0.01787551  0.14884455  0.2798136
  0.40901279  0.53821199  0.66564133  0.78422142  0.89395224  0.98598454
  1.05677862  1.10102492  1.11695359  1.10279477  1.05854847  0.98421469
  0.88687283  0.77183245  0.64263326  0.50635465  0.36653635  0.2320276
  0.10105855 -0.02106124 -0.13433177 -0.23698318 -0.32901548 -0.40688897
 -0.47414335 -0.5236992  -0.55732639 -0.56971535 -0.55909624 -0.52546906
 -0.46529409 -0.37857134 -0.26353096 -0.12371265  0.03911373  0.22140848
  0.41786205  0.62316488  0.83200742  1.03731025  1.23553367  1.41959828
  1.58773422  1.73463193  1.85852157  1.95763328  2.03019721  2.07621337
  2.09568174  2.08860233  2.05320529  1.99303032  1.90807743  1.80365616
  1.67799667  1.53817836  1.38597109  1.22314471  1.05500877  0.88333313
  0.70988763  0.53644214  0.3683062   0.20724967  0.0550424  -0.08477591
 -0.20866555 -0.31308682 -0.39803971 -0.45998453 -0.50069113 -0.5201595
 -0.51838965 -0.50069113 -0.46706394 -0.42458749 -0.37503164 -0.32016622
 -0.26176111 -0.20512585 -0.14672073 -0.08654576 -0.02637079  0.03911373
  0.10990781  0.1877813   0.27273419  0.3683062   0.47449732  0.59130755
  0.72050674  0.86032505  1.00899262  1.1682793   1.33641524  1.50809088
  1.68684593  1.86560098  2.04612588  2.22311108  2.39655658  2.56646237
  2.7310586   2.88857543  3.0407827   3.18945027  3.33280828  3.47439644
  3.6159846   3.75757275  3.90270062  4.04782848  4.19649605  4.34516361
  4.49560103  4.6442686   4.78762661  4.92567507  5.05310441  5.16637494
  5.2672565   5.35220939  5.41946377  5.47255933  5.51149607  5.53981371
  5.55928208  5.57344089  5.58582986  5.59644897  5.60883793  5.62299675
  5.63715556  5.65308423  5.6654732   5.67432246  5.67432246  5.66370334
  5.63892542  5.59998867  5.54335341  5.47078948  5.38229688  5.27964546
  5.16637494  5.046025    4.92036551  4.79470602  4.67081638  4.55400615
  4.44427533  4.34693347  4.25844087  4.18233723  4.11508286  4.05667774
  4.00712188  3.96110573  3.92039914  3.88146239  3.84252565  3.80535876
  3.76819187  3.73102497  3.69208823  3.65492134  3.6195243   3.58412726
  3.55050007  3.51864274  3.48855525  3.46023762  3.43191999  3.40537221
  3.37882443  3.35227665  3.32572887  3.29918109  3.27086346  3.24431568
  3.21599805  3.18591056]","[-0.40549067 -0.48667705 -0.55021422 -0.59433725 -0.61551631 -0.61198646
 -0.58374772 -0.52903516 -0.4496137  -0.34724827 -0.2254687  -0.08780484
  0.06750824  0.23164592  0.40637313  0.5863951   0.76994692  0.95526366
  1.14234532  1.32766205  1.51297879  1.70006045  1.88537719  2.07245884
  2.26130542  2.45191693  2.64605827  2.84549438  3.04846033  3.25495612
  3.46674668  3.68206708  3.89738748  4.1144728   4.3297932   4.54158375
  4.74631462  4.94045597  5.12224286  5.28814546  5.43463393  5.55994335
  5.65877894  5.72761087  5.76643914  5.7717339   5.73996532  5.67289831
  5.56876795  5.42933917  5.25637688  5.05517585  4.82573608  4.5786471
  4.31567382  4.04564086  3.77384298  3.50733987  3.25495612  3.01669174
  2.80137134  2.61075984  2.44838708  2.31601798  2.21365255  2.13952585
  2.09540282  2.07951853  2.09010806  2.12540648  2.18364889  2.26483527
  2.36543578  2.48545043  2.62134937  2.77136768  2.93550536  3.11023257
  3.29378439  3.48439589  3.68206708  3.88150318  4.08093929  4.2803754
  4.47628166  4.66336332  4.8433853   5.01105282  5.16460097  5.30049991
  5.41698472  5.51229047  5.58641717  5.63583496  5.6640737   5.66760355
  5.65171925  5.61465591  5.55994335  5.49111142  5.40816011  5.31285436
  5.20872401  5.09753396  4.97928424  4.85573974  4.72690049  4.59453139
  4.45686753  4.31567382  4.16918536  4.01740212  3.85855921  3.69442152
  3.51969432  3.33790742  3.14376608  2.93903521  2.72018496  2.48721535
  2.23836145  1.97715309  1.70182537  1.4141432   1.11940134  0.8175998
  0.51226841  0.21046687 -0.08427499 -0.36842732 -0.63669536 -0.88554927
 -1.11145919 -1.31266022 -1.48385759 -1.62681621 -1.73977118 -1.82095756
 -1.87214028 -1.89508425]",5.201727729509975,4.218161922705248,5.65019,-0.038264999999999105
018,1,1,csp,42a.png,1,1,328,299,332,1,1,279,pos_feedback_onset,12,"[-0.8115148  -0.76550655 -0.70888101 -0.64694682 -0.57793444 -0.50184387
 -0.42044465 -0.33373679 -0.24348983 -0.14616468 -0.04353089  0.06441155
  0.17943219  0.29976146  0.42539939  0.5581155   0.69790981  0.84124321
  0.98988526  1.14383596  1.30132575  1.46058508  1.62161397  1.78264286
  1.94544129  2.10823972  2.26749906  2.4267584   2.58247864  2.73465979
  2.88330184  3.02663524  3.16642955  3.29914566  3.42832268  3.54865196
  3.66544214  3.77338458  3.87778792  3.97334353  4.06359048  4.14675925
  4.22461937  4.2954013   4.36087458  4.41926967  4.47235612  4.52013392
  4.55906398  4.59091585  4.61568952  4.62984591  4.63515455  4.62984591
  4.61568952  4.59091585  4.55729443  4.51836437  4.47412567  4.42988696
  4.38564826  4.3467182   4.31309678  4.28655356  4.26885808  4.26001033
  4.26001033  4.26885808  4.28655356  4.31486633  4.35202684  4.39626555
  4.45112154  4.51482527  4.5856072   4.66346732  4.74486654  4.82803531
  4.90943452  4.9855251   5.05099838  5.10408483  5.14478443  5.16955811
  5.17840585  5.1730972   5.15540172  5.1253194   5.08638934  5.04038109
  4.99083374  4.93951684  4.88819994  4.8386526   4.79441389  4.75371428
  4.72186241  4.69708874  4.68293235  4.67762371  4.68293235  4.69708874
  4.72009287  4.75017519  4.7873357   4.82626576  4.86696537  4.90589543
  4.94482549  4.98021645  5.01383787  5.04215064  5.06869386  5.09169799
  5.11116302  5.12708895  5.13770624  5.14301489  5.13770624  5.12001076
  5.08815889  5.03507245  4.95898187  4.85811763  4.73071016  4.57322037
  4.38918735  4.17684157  3.94149166  3.68490717  3.41239675  3.12926904
  2.84083268  2.55416587  2.27280771  2.00206683  1.74902144  1.51898017
  1.31194303  1.13498821  0.98988526  0.87663418  0.79877406  0.7527658
  0.73860942  0.7563049   0.80231315  0.87309508  0.96511159  1.08013222
  1.21107879  1.35795129  1.51898017  1.69062635  1.87465936  2.06754012
  2.26749906  2.4745362   2.68688199  2.90453641  3.12219084  3.33984527
  3.5574997   3.76984548  3.97688262  4.17684157  4.36795277  4.54844669
  4.71655377  4.87050446  5.01383787  5.14655398  5.26688326  5.3783648
  5.48453769  5.58894103  5.69157483  5.79597817  5.90392061  6.01894124
  6.13927052  6.26490844  6.39585501  6.52857113  6.66305679  6.7957729
  6.92671947  7.05412694  7.17622577  7.29301595  7.40803658  7.51951812
  7.63099965  7.74248119  7.85573227  7.97075291  8.08931264  8.20964191
  8.33351029  8.45914821  8.58478613  8.70865451  8.83075333  8.94931306
  9.06433369  9.17227613  9.27490993  9.37046553  9.45717339  9.53503352
  9.60227635  9.65890189  9.70137105  9.73145337  9.74560975  9.7473793
  9.73499246  9.70844924  9.67482782  9.63235867  9.58635041  9.54211171
  9.5014121   9.46779068  9.44301701  9.43239972  9.43239972  9.44832565
  9.47486888  9.51202939  9.55803764  9.60758499  9.66067144  9.71021879
  9.75622704  9.7951571   9.82170032  9.83939581  9.8429349   9.83408716
  9.81108303  9.77392252  9.72437517  9.66421053  9.59165906  9.50849029
  9.41647379  9.31560954  9.2076671   9.09441601  8.97762583  8.85729656
  8.73873683  8.62371619  8.51223466  8.40960086  8.31581481  8.23264604
  8.16186411  8.10346902]","[-1.97094935 -1.85516079 -1.70603916 -1.52709321 -1.32709479 -1.10955264
 -0.88148427 -0.64639841 -0.40604943 -0.16394607  0.08166602  0.32552375
  0.56938147  0.81148482  1.0518338   1.28867404  1.52200553  1.75358265
  1.98165102  2.20796502  2.43252466  2.65357554  2.87111768  3.08515108
  3.29392136  3.49742853  3.69567258  3.88514477  4.06584509  4.24128231
  4.40619328  4.5623324   4.70794529  4.84478631  4.96934673  5.08162655
  5.17987139  5.26232688  5.32723864  5.37636106  5.40793976  5.42197474
  5.41671162  5.39565916  5.36057171  5.30794055  5.24302878  5.16057329
  5.06408283  4.94829427  4.81145324  4.65180538  4.46584194  4.25180854
  4.00795081  3.73602314  3.43953425  3.1219929   2.79217094  2.45884024
  2.13252702  1.8255119   1.55182985  1.32727022  1.1588505   1.05534255
  1.02551822  1.06586878  1.17288548  1.33779646  1.54832111  1.79042446
  2.05182591  2.3167361   2.57813754  2.82725838  3.06058987  3.27462327
  3.46935858  3.64655016  3.80795239  3.95356528  4.08689756  4.20444049
  4.31145719  4.40443891  4.48338566  4.5500518   4.60268296  4.63952478
  4.66233161  4.6693491   4.66233161  4.6377704   4.60092859  4.54829743
  4.48514003  4.40794766  4.32022905  4.22198421  4.11847626  4.00970519
  3.895671    3.77988244  3.66584825  3.55181406  3.44304299  3.33602629
  3.23602708  3.14129099  3.05181801  2.96936252  2.89217015  2.82024089
  2.75357475  2.68866298  2.62901433  2.56761131  2.50796266  2.44480526
  2.37989349  2.31147298  2.23778935  2.15884261  2.07287837  1.97989665
  1.87989744  1.77288074  1.65533781  1.52902302  1.39042762  1.24306036
  1.08516687  0.92201026  0.75359054  0.58517082  0.42376858  0.27289258
  0.13780593  0.02201737]",9.383737144232352,4.340097315021177,5.651159999999999,-0.4052749999999987
018,1,1,csp,34a.png,1,1,4,NaN,2,1,0,204,neg_feedback_onset,13,"[ 1.35543996e-01  6.34648280e-02  1.24820022e-02 -1.91625104e-02
 -3.67427952e-02 -4.20168806e-02 -4.20168806e-02 -3.67427952e-02
 -3.32267382e-02 -3.14687097e-02 -2.97106813e-02 -2.79526528e-02
 -2.61946243e-02 -2.26785673e-02 -1.56464534e-02 -3.34025411e-03
  1.07239737e-02  3.00622869e-02  4.76425717e-02  6.69808850e-02
  8.10451128e-02  8.80772267e-02  8.80772267e-02  7.75290558e-02
  5.46746856e-02  2.12721446e-02 -2.61946243e-02 -8.42095640e-02
 -1.54530703e-01 -2.37158041e-01 -3.28575522e-01 -4.30541174e-01
 -5.43054996e-01 -6.62600933e-01 -7.90937012e-01 -9.26305204e-01
 -1.06518945e+00 -1.20758976e+00 -1.34823204e+00 -1.48711629e+00
 -1.61721040e+00 -1.73675633e+00 -1.84048001e+00 -1.92662341e+00
 -1.98991243e+00 -2.03034709e+00 -2.04265329e+00 -2.03034709e+00
 -1.98991243e+00 -1.92134932e+00 -1.82993184e+00 -1.71390196e+00
 -1.57677574e+00 -1.42031121e+00 -1.24978244e+00 -1.06518945e+00
 -8.70048293e-01 -6.69633047e-01 -4.65701743e-01 -2.58254383e-01
 -5.25650514e-02  1.51366252e-01  3.53539527e-01  5.50438716e-01
  7.43821848e-01  9.35446952e-01  1.12707206e+00  1.31693913e+00
  1.50680621e+00  1.69843131e+00  1.89181444e+00  2.08519758e+00
  2.27858071e+00  2.46668976e+00  2.65128275e+00  2.82356954e+00
  2.98530816e+00  3.12946649e+00  3.25428651e+00  3.35976822e+00
  3.44415359e+00  3.50568459e+00  3.54611924e+00  3.56721558e+00
  3.57073164e+00  3.56018347e+00  3.53557107e+00  3.50041050e+00
  3.45821782e+00  3.40899302e+00  3.35801019e+00  3.30351131e+00
  3.24901243e+00  3.19451354e+00  3.14353072e+00  3.09606395e+00
  3.05211324e+00  3.01343661e+00  2.97827604e+00  2.94838956e+00
  2.92377716e+00  2.90443885e+00  2.88685856e+00  2.87455236e+00
  2.86400419e+00  2.85521405e+00  2.84818193e+00  2.84114982e+00
  2.83235968e+00  2.82181151e+00  2.80774728e+00  2.79016700e+00
  2.76379657e+00  2.73215206e+00  2.69347543e+00  2.64600866e+00
  2.58975175e+00  2.52822075e+00  2.45789961e+00  2.38054636e+00
  2.29967705e+00  2.21529168e+00  2.12914829e+00  2.04124686e+00
  1.95510347e+00  1.87071810e+00  1.79160682e+00  1.71601160e+00
  1.64744849e+00  1.58591749e+00  1.53317663e+00  1.48922592e+00
  1.45582338e+00  1.42945295e+00  1.41363070e+00  1.40835661e+00
  1.41187267e+00  1.42417887e+00  1.44527521e+00  1.47691972e+00
  1.51559635e+00  1.56306312e+00  1.61932003e+00  1.68260905e+00
  1.75293019e+00  1.83204148e+00  1.91818487e+00  2.00960235e+00
  2.10980997e+00  2.21529168e+00  2.32604748e+00  2.44207736e+00
  2.55986526e+00  2.68116923e+00  2.80423122e+00  2.92377716e+00
  3.04332310e+00  3.15935298e+00  3.27010877e+00  3.37559048e+00
  3.47755613e+00  3.57248967e+00  3.66214912e+00  3.74653449e+00
  3.82564577e+00  3.89772494e+00  3.96628805e+00  4.02957707e+00
  4.08759201e+00  4.14384892e+00  4.19658978e+00  4.25284669e+00
  4.31437768e+00  4.38469882e+00  4.46732616e+00  4.56577576e+00
  4.68356366e+00  4.82244791e+00  4.97891245e+00  5.15471530e+00
  5.34458237e+00  5.54675565e+00  5.75420301e+00  5.96516642e+00
  6.17437181e+00  6.37830312e+00  6.57520231e+00  6.76682741e+00
  6.94966237e+00  7.12898128e+00  7.30654215e+00  7.48058697e+00
  7.65638982e+00  7.83219267e+00  8.00799551e+00  8.18379836e+00
  8.35608515e+00  8.52309786e+00  8.68307845e+00  8.83251087e+00
  8.96787906e+00  9.09094106e+00  9.19642276e+00  9.28959827e+00
  9.36870955e+00  9.43551464e+00  9.49528760e+00  9.54978649e+00
  9.60076931e+00  9.65175214e+00  9.70449299e+00  9.75899188e+00
  9.81524879e+00  9.87502176e+00  9.93479472e+00  9.99280966e+00
  1.00437925e+01  1.00895012e+01  1.01229038e+01  1.01440001e+01
  1.01510322e+01  1.01422421e+01  1.01193877e+01  1.00789531e+01
  1.00244542e+01  9.95764909e+00  9.88029584e+00  9.79239442e+00
  9.69746088e+00  9.59725326e+00  9.49177155e+00  9.38453181e+00
  9.27729207e+00  9.17181036e+00  9.07160274e+00  8.97842723e+00
  8.89404187e+00  8.82020467e+00  8.76043170e+00  8.71472296e+00
  8.68307845e+00  8.66549816e+00  8.65846605e+00  8.66374014e+00
  8.67780436e+00  8.69890070e+00  8.72351310e+00  8.74988353e+00
  8.77801199e+00  8.80438241e+00  8.82723678e+00  8.84481707e+00
  8.85712327e+00  8.86063932e+00  8.85360721e+00  8.83426890e+00
  8.80262438e+00  8.75691564e+00  8.69538465e+00  8.62330548e+00]","[-0.12398741 -0.3338263  -0.51994427 -0.67869196 -0.80824466 -0.91042708
 -0.97611577 -1.00713543 -0.99436263 -0.93049862 -0.81189403 -0.63125012
 -0.38491751 -0.06924683  0.31028785  0.74821249  1.23357897  1.75361447
  2.29372153  2.84112733  3.38123438  3.90309458  4.39940917  4.86287941
  5.29168062  5.68581279  6.04345125  6.36824535  6.6620198   6.92659927
  7.16380845  7.37364734  7.55976531  7.72216236  7.86266318  7.98126777
  8.07432676  8.14366483  8.18928198  8.20752884  8.20023009  8.16921043
  8.11264517  8.03235898  7.93382594  7.81704603  7.68749333  7.54516782
  7.39736826  7.24591932  7.09082101  6.93937207  6.78974782  6.64559763
  6.51057086  6.38466753  6.271537    6.16935458  6.08176965  6.00695753
  5.94674289  5.89930105  5.86463202  5.84456047  5.83543704  5.83726173
  5.85003453  5.87193076  5.90295043  5.94126883  5.9850613   6.03432782
  6.08724371  6.14015961  6.19490019  6.24781608  6.29890729  6.34634912
  6.3883169   6.42663531  6.46130434  6.49049932  6.51786961  6.54159052
  6.56713613  6.59085705  6.61640265  6.64559763  6.67844197  6.71493569
  6.75507879  6.79704656  6.84266371  6.89010555  6.93754738  6.98133985
  7.02330763  7.05980135  7.09082101  7.11454193  7.12913941  7.13826284
  7.13643816  7.12913941  7.11271724  7.08899632  7.05980135  7.02330763
  6.97951516  6.92842395  6.87185869  6.80616999  6.73318255  6.65289637
  6.56348676  6.46495371  6.35729724  6.23869265  6.11096463  5.97411318
  5.82996299  5.67851405  5.52341574  5.36466806  5.20956975  5.05629612
  4.91214593  4.77529448  4.65121583  4.5380853   4.43772757  4.35014264
  4.27350583  4.20599245  4.14577781  4.09286192  4.04177071  3.99432888
  3.94871173  3.90491926]",9.578354450185406,6.791709356716065,5.688189999999999,-0.13420000000000076
018,1,1,csp,13a.png,1,1,136,126,129,1,1,773,neg_feedback_onset,14,"[ 6.27866137e-01  5.70844096e-01  5.08476237e-01  4.46108379e-01
  3.81958582e-01  3.17808785e-01  2.55440927e-01  1.91291130e-01
  1.28923272e-01  6.65554143e-02  4.18755619e-03 -5.99622407e-02
 -1.27675915e-01 -1.98953467e-01 -2.75576836e-01 -3.61109898e-01
 -4.53770716e-01 -5.58905106e-01 -6.71167250e-01 -7.92339089e-01
 -9.20638683e-01 -1.05250215e+00 -1.18080175e+00 -1.30375553e+00
 -1.41423573e+00 -1.50689655e+00 -1.57817410e+00 -1.62450451e+00
 -1.64410584e+00 -1.64054196e+00 -1.61559482e+00 -1.57104635e+00
 -1.51224237e+00 -1.44809257e+00 -1.38037889e+00 -1.31444716e+00
 -1.25386124e+00 -1.20218501e+00 -1.15585460e+00 -1.11843389e+00
 -1.08279511e+00 -1.05072022e+00 -1.01329950e+00 -9.70532969e-01
 -9.18856744e-01 -8.52925008e-01 -7.72737762e-01 -6.78295005e-01
 -5.67814800e-01 -4.46642961e-01 -3.14779490e-01 -1.75788263e-01
 -3.67970363e-02  9.86303127e-02  2.26929907e-01  3.44537868e-01
  4.44326440e-01  5.28077564e-01  5.94009300e-01  6.40339709e-01
  6.70632668e-01  6.86670118e-01  6.90233995e-01  6.83106240e-01
  6.67068791e-01  6.47467464e-01  6.24302260e-01  5.99355116e-01
  5.74407973e-01  5.49460830e-01  5.29859503e-01  5.12040115e-01
  4.99566543e-01  4.96002666e-01  4.99566543e-01  5.12040115e-01
  5.36987258e-01  5.72626034e-01  6.18956443e-01  6.77760424e-01
  7.47256037e-01  8.29225222e-01  9.20104101e-01  1.01989267e+00
  1.12859094e+00  1.24798084e+00  1.37449850e+00  1.50992584e+00
  1.65248095e+00  1.80394575e+00  1.96253830e+00  2.12469473e+00
  2.29041504e+00  2.45257147e+00  2.60938209e+00  2.75906495e+00
  2.89805617e+00  3.02279189e+00  3.13327209e+00  3.22949679e+00
  3.31502985e+00  3.38808934e+00  3.45402108e+00  3.51460700e+00
  3.56984710e+00  3.62330526e+00  3.67498149e+00  3.72665772e+00
  3.77477006e+00  3.81753659e+00  3.85495731e+00  3.88168639e+00
  3.89415996e+00  3.88881415e+00  3.86208506e+00  3.81040884e+00
  3.73378547e+00  3.63221496e+00  3.50747924e+00  3.36670608e+00
  3.21702322e+00  3.06734036e+00  2.92656719e+00  2.80539535e+00
  2.71095260e+00  2.65036668e+00  2.62541954e+00  2.63789311e+00
  2.68244158e+00  2.75550107e+00  2.84816189e+00  2.95329627e+00
  3.06021260e+00  3.16356505e+00  3.25444393e+00  3.32928536e+00
  3.38274353e+00  3.41838230e+00  3.43263781e+00  3.42907394e+00
  3.40947261e+00  3.37561577e+00  3.32928536e+00  3.27582720e+00
  3.21702322e+00  3.15287342e+00  3.08515975e+00  3.01744607e+00
  2.95151434e+00  2.88558260e+00  2.82677862e+00  2.77153852e+00
  2.72342617e+00  2.68244158e+00  2.65214862e+00  2.62898341e+00
  2.61650984e+00  2.61116402e+00  2.61294596e+00  2.62007372e+00
  2.62720147e+00  2.63432923e+00  2.63611117e+00  2.63254729e+00
  2.62007372e+00  2.59869045e+00  2.56839749e+00  2.53454066e+00
  2.49711994e+00  2.46148117e+00  2.43475208e+00  2.41693270e+00
  2.41693270e+00  2.43297014e+00  2.46860892e+00  2.52384902e+00
  2.59334464e+00  2.67887770e+00  2.77510239e+00  2.87667291e+00
  2.98537117e+00  3.09406944e+00  3.20454965e+00  3.31324791e+00
  3.42372812e+00  3.53420832e+00  3.64468853e+00  3.75516874e+00
  3.86743088e+00  3.97791109e+00  4.08482741e+00  4.18817987e+00
  4.28440456e+00  4.37350150e+00  4.45190681e+00  4.51962048e+00
  4.57664252e+00  4.62119099e+00  4.65504783e+00  4.67999497e+00
  4.69425049e+00  4.69959630e+00  4.69603242e+00  4.68534079e+00
  4.66752140e+00  4.64257426e+00  4.61049936e+00  4.57129671e+00
  4.52496630e+00  4.47329007e+00  4.41448609e+00  4.34855436e+00
  4.27549487e+00  4.19708956e+00  4.11155650e+00  4.02067762e+00
  3.92088904e+00  3.81397272e+00  3.69814669e+00  3.57519292e+00
  3.44332945e+00  3.30433822e+00  3.15821924e+00  3.00497250e+00
  2.84637995e+00  2.68244158e+00  2.51493933e+00  2.34030933e+00
  2.15855157e+00  1.96966606e+00  1.76652503e+00  1.55091044e+00
  1.31925839e+00  1.06622308e+00  7.91804507e-01  4.94220727e-01
  1.77035620e-01 -1.57968875e-01 -5.10792758e-01 -8.72526335e-01
 -1.23782379e+00 -1.60312124e+00 -1.95950900e+00 -2.29807738e+00
 -2.60991667e+00 -2.88789912e+00 -3.11955117e+00 -3.29418117e+00
 -3.40644331e+00 -3.44920984e+00 -3.42069882e+00 -3.32091025e+00
 -3.15697188e+00 -2.93957535e+00 -2.68297616e+00 -2.40321177e+00
 -2.11453768e+00 -1.83120941e+00 -1.56391859e+00 -1.31979297e+00]","[-1.07941219e-01 -2.20397738e-01 -3.19223164e-01 -3.99305837e-01
 -4.55534096e-01 -4.84500169e-01 -4.87907942e-01 -4.62349643e-01
 -4.11233043e-01 -3.34558144e-01 -2.39140491e-01 -1.26683972e-01
  1.10752632e-03  1.37418458e-01  2.80544937e-01  4.27079189e-01
  5.77021214e-01  7.26963239e-01  8.75201378e-01  1.02343952e+00
  1.16656600e+00  1.30458081e+00  1.43748397e+00  1.56016381e+00
  1.67091644e+00  1.76463021e+00  1.83960122e+00  1.88901394e+00
  1.91286835e+00  1.90605280e+00  1.86856730e+00  1.80041183e+00
  1.70840195e+00  1.59764932e+00  1.47326559e+00  1.34377021e+00
  1.21768259e+00  1.10181830e+00  1.00299288e+00  9.21206318e-01
  8.58162512e-01  8.13861459e-01  7.88303159e-01  7.74672066e-01
  7.72968179e-01  7.79783726e-01  7.93414819e-01  8.10453685e-01
  8.29196439e-01  8.51346965e-01  8.71793605e-01  8.95648018e-01
  9.17798544e-01  9.41652957e-01  9.63803484e-01  9.87657897e-01
  1.01151231e+00  1.03366284e+00  1.05751725e+00  1.08137166e+00
  1.10352219e+00  1.12737660e+00  1.14952713e+00  1.17338154e+00
  1.19723596e+00  1.21938648e+00  1.24153701e+00  1.26539142e+00
  1.28583806e+00  1.30798859e+00  1.32673134e+00  1.34547409e+00
  1.35910519e+00  1.36932851e+00  1.37444017e+00  1.37273628e+00
  1.36421685e+00  1.34377021e+00  1.31139636e+00  1.26709531e+00
  1.20575539e+00  1.12908049e+00  1.03366284e+00  9.17798544e-01
  7.78079839e-01  6.11098947e-01  4.16855869e-01  1.90238945e-01
 -6.87518264e-02 -3.63524217e-01 -6.92374340e-01 -1.05700608e+00
 -1.45230779e+00 -1.87657556e+00 -2.32299387e+00 -2.78645103e+00
 -3.26013152e+00 -3.73721979e+00 -4.20919639e+00 -4.67094967e+00
 -5.11566409e+00 -5.53993186e+00 -5.94034522e+00 -6.31008863e+00
 -6.65086596e+00 -6.96097333e+00 -7.23870685e+00 -7.48236264e+00
 -7.69534847e+00 -7.87596046e+00 -8.02590248e+00 -8.14517455e+00
 -8.23718443e+00 -8.30363601e+00 -8.34452929e+00 -8.36497593e+00
 -8.36497593e+00 -8.34964095e+00 -8.31897099e+00 -8.27637382e+00
 -8.22355334e+00 -8.16391730e+00 -8.09746572e+00 -8.02931026e+00
 -7.95774702e+00 -7.88618378e+00 -7.81462054e+00 -7.74305730e+00
 -7.66808629e+00 -7.59141139e+00 -7.50621706e+00 -7.41250329e+00
 -7.30686232e+00 -7.18247859e+00 -7.03935211e+00 -6.87577900e+00
 -6.68835146e+00 -6.48047729e+00 -6.25556425e+00 -6.01361235e+00]",4.1583769388607905,0.9954105813064806,5.611865,0.20053999999999927
018,2,1,csp,60a.png,1,1,228,223,226,1,0,335,neg_feedback_onset,1,"[-3.06767362e-01 -2.75087428e-01 -2.41647497e-01 -2.09967563e-01
 -1.78287629e-01 -1.44847699e-01 -1.13167765e-01 -8.14878305e-02
 -4.80479001e-02 -1.63679660e-02  1.53119682e-02  4.87518986e-02
  8.04318327e-02  1.13871763e-01  1.45551697e-01  1.77231631e-01
  2.10671562e-01  2.42351496e-01  2.74031430e-01  3.07471360e-01
  3.39151295e-01  3.70831229e-01  4.04271159e-01  4.35951093e-01
  4.69391024e-01  5.01070958e-01  5.32750892e-01  5.66190822e-01
  5.97870756e-01  6.29550691e-01  6.62990621e-01  6.94670555e-01
  7.26350489e-01  7.59790420e-01  7.91470354e-01  8.24910284e-01
  8.56590218e-01  8.88270152e-01  9.21710083e-01  9.53390017e-01
  9.85069951e-01  1.01850988e+00  1.05018982e+00  1.08186975e+00
  1.11530968e+00  1.14698961e+00  1.18042954e+00  1.21210948e+00
  1.24378941e+00  1.27722934e+00  1.30890928e+00  1.34058921e+00
  1.37402914e+00  1.40570908e+00  1.43738901e+00  1.47082894e+00
  1.50250887e+00  1.53594881e+00  1.56762874e+00  1.59930867e+00
  1.63274860e+00  1.66442854e+00  1.69610847e+00  1.72954840e+00
  1.76122834e+00  1.79466827e+00  1.82810820e+00  1.86154813e+00
  1.89498806e+00  1.93018799e+00  1.96890790e+00  2.00762782e+00
  2.04986774e+00  2.09738764e+00  2.14842753e+00  2.20650741e+00
  2.26986728e+00  2.34202713e+00  2.41946697e+00  2.50746678e+00
  2.60074659e+00  2.70106638e+00  2.80666616e+00  2.91402594e+00
  3.02490571e+00  3.13402548e+00  3.23962526e+00  3.33994505e+00
  3.43146486e+00  3.51242469e+00  3.58282455e+00  3.63914443e+00
  3.68314434e+00  3.71306428e+00  3.73418423e+00  3.74474421e+00
  3.74826420e+00  3.74650421e+00  3.74474421e+00  3.74122422e+00
  3.74122422e+00  3.74650421e+00  3.75354419e+00  3.76586417e+00
  3.77818414e+00  3.79050412e+00  3.80282409e+00  3.80810408e+00
  3.80634408e+00  3.79402411e+00  3.77114416e+00  3.73418423e+00
  3.68314434e+00  3.61978447e+00  3.54234463e+00  3.45258482e+00
  3.35226503e+00  3.24490525e+00  3.13050549e+00  3.01610573e+00
  2.89994597e+00  2.78554621e+00  2.67818643e+00  2.57962663e+00
  2.48810682e+00  2.40890699e+00  2.33850714e+00  2.28042726e+00
  2.23114736e+00  2.19418744e+00  2.16426750e+00  2.14138755e+00
  2.12554758e+00  2.11322760e+00  2.10618762e+00  2.10090763e+00
  2.09562764e+00  2.09034765e+00  2.08506766e+00  2.07802768e+00
  2.06746770e+00  2.05514773e+00  2.03930776e+00  2.01994780e+00
  1.99706785e+00  1.97242790e+00  1.94602795e+00  1.91786801e+00
  1.88794807e+00  1.85802814e+00  1.82634820e+00  1.79466827e+00
  1.76122834e+00  1.72954840e+00  1.69786847e+00  1.66442854e+00
  1.63274860e+00  1.60106867e+00  1.56762874e+00  1.53594881e+00
  1.50250887e+00  1.47082894e+00  1.43738901e+00  1.40570908e+00
  1.37226915e+00  1.34058921e+00  1.30890928e+00  1.27546935e+00
  1.24378941e+00  1.21034948e+00  1.17866955e+00  1.14522962e+00
  1.11354968e+00  1.08186975e+00  1.04842982e+00  1.01674989e+00
  9.83309955e-01  9.51630021e-01  9.18190090e-01  8.86510156e-01
  8.54830222e-01  8.21390292e-01  7.89710357e-01  7.56270427e-01
  7.24590493e-01  6.91150562e-01  6.59470628e-01  6.27790694e-01
  5.94350764e-01  5.62670830e-01  5.29230899e-01  4.97550965e-01
  4.64111035e-01  4.32431101e-01  3.98991170e-01  3.67311236e-01
  3.35631302e-01  3.02191371e-01  2.70511437e-01  2.37071507e-01
  2.05391573e-01  1.73711639e-01  1.42031705e-01  1.10351770e-01
  8.04318327e-02  5.05118949e-02  2.41119498e-02  1.23199744e-03
 -1.81279623e-02 -2.86879403e-02 -3.04479367e-02 -1.98879586e-02
  6.51198646e-03  5.05118949e-02  1.13871763e-01  2.01871580e-01
  3.12751349e-01  4.51791060e-01  6.15470720e-01  8.05550324e-01
  1.01850988e+00  1.25434939e+00  1.50778886e+00  1.77530831e+00
  2.04810774e+00  2.32266717e+00  2.59018661e+00  2.84538608e+00
  3.07946559e+00  3.29066516e+00  3.47018478e+00  3.61978447e+00
  3.73594423e+00  3.81866406e+00  3.86794395e+00  3.88906391e+00
  3.88026393e+00  3.85034399e+00  3.79754410e+00  3.72714425e+00
  3.64266442e+00  3.54762462e+00  3.44202484e+00  3.33290507e+00
  3.21674531e+00  3.09882555e+00  2.97914580e+00  2.85770606e+00
  2.73626631e+00  2.61306656e+00  2.49162682e+00  2.36842707e+00
  2.24522733e+00  2.12202759e+00  1.99882784e+00  1.87562810e+00
  1.75242835e+00  1.63098861e+00  1.50778886e+00  1.38458912e+00]","[nan nan nan nan nan nan nan nan nan nan nan nan nan nan nan nan nan nan
 nan nan nan nan nan nan nan nan nan nan nan nan nan nan nan nan nan nan
 nan nan nan nan nan nan nan nan nan nan nan nan nan nan nan nan nan nan
 nan nan nan nan nan nan nan nan nan nan nan nan nan nan nan nan nan nan
 nan nan nan nan nan nan nan nan nan nan nan nan nan nan nan nan nan nan
 nan nan nan nan nan nan nan nan nan nan nan nan nan nan nan nan nan nan
 nan nan nan nan nan nan nan nan nan nan nan nan nan nan nan nan nan nan
 nan nan nan nan nan nan nan nan nan nan nan nan nan nan]",2.611746567567143,,5.68183,-0.09639499999999934
018,2,1,csm,63b.png,1,1,52,313,55,1,1,388,neu_feedback_onset,2,"[ 0.97467202  0.9020321   0.81901505  0.72907992  0.63049718  0.52499635
  0.41257743  0.29324042  0.16871485  0.04073024 -0.09071342 -0.22042756
 -0.34668265 -0.46429013 -0.57152048 -0.66145562 -0.73236601 -0.78252214
 -0.81019449 -0.81538306 -0.80327641 -0.77560406 -0.73755458 -0.69431653
 -0.65280801 -0.61821757 -0.59573379 -0.5888157  -0.60265188 -0.63897183
 -0.6995051  -0.78425167 -0.89494106 -1.02811424 -1.18550073 -1.36191195
 -1.55734792 -1.76662006 -1.9845398  -2.2059186  -2.42902691 -2.64521714
 -2.85103023 -3.04127763 -3.21250029 -3.36123917 -3.48749426 -3.586077
 -3.66044644 -3.70887305 -3.73308636 -3.73308636 -3.7123321  -3.66909405
 -3.61029031 -3.53419135 -3.44252669 -3.33702586 -3.2211479  -3.09316329
 -2.95653106 -2.81125123 -2.65732379 -2.49474874 -2.32871465 -2.15403294
 -1.9758922  -1.79083336 -1.60231548 -1.41206808 -1.21836164 -1.02292568
 -0.82748971 -0.63378327 -0.44180635 -0.25501799 -0.0734182   0.1012635
  0.2672976   0.42295456  0.56823439  0.70313709  0.82593314  0.93835206
  1.04212337  1.13724707  1.2271822   1.31019925  1.38975725  1.46585621
  1.53849613  1.607677    1.67339883  1.73393209  1.78581775  1.82905579
  1.86018719  1.8774824   1.87921193  1.86364623  1.82905579  1.77544062
  1.70107118  1.607677    1.49525808  1.3620849   1.20988698  1.03866432
  0.84841693  0.64260383  0.41949552  0.18255103 -0.06650011 -0.32419886
 -0.5888157  -0.85516206 -1.1197789  -1.38093669 -1.63344688 -1.87557993
 -2.10214729 -2.31487847 -2.51031444 -2.68845518 -2.84930071 -2.99285102
 -3.11910611 -3.23152503 -3.32837825 -3.4113953  -3.48057617 -3.53419135
 -3.57569987 -3.60337222 -3.6172084  -3.61547887 -3.59991318 -3.56705226
 -3.51862565 -3.45463335 -3.37334582 -3.2764926  -3.16407368 -3.03608907
 -2.89426828 -2.73861132 -2.57257722 -2.39789552 -2.21629573 -2.03123689
 -1.84617806 -1.66457827 -1.48816704 -1.32040343 -1.16301694 -1.01946663
 -0.89148202 -0.7790631  -0.6839394  -0.60265188 -0.53520053 -0.48158535
 -0.43661778 -0.40029782 -0.36916643 -0.33976456 -0.31036269 -0.2792313
 -0.24291134 -0.20140282 -0.1529762  -0.09763151 -0.03709824  0.03035311
  0.10299302  0.17909198  0.25864999  0.33820799  0.41776599  0.497324
  0.57515248  0.65298096  0.72907992  0.80344936  0.87954832  0.9573768
  1.03866432  1.12341089  1.21161651  1.30846973  1.41224104  1.52293043
  1.64226744  1.77025205  1.90688428  2.05043459  2.19917346  2.35483042
  2.51567595  2.678251    2.84255558  3.00686015  3.17116472  3.33373977
  3.49631482  3.65543083  3.81454684  3.97193332  4.12759028  4.28151772
  4.43544517  4.58764309  4.73811148  4.88685036  5.03040067  5.17049194
  5.30539464  5.43337925  5.55271626  5.6668647   5.77236553  5.86921875
  5.95915388  6.04044141  6.11481085  6.18053268  6.2376069   6.28430398
  6.32235346  6.34829629  6.36386199  6.36559151  6.35521438  6.33273059
  6.29468112  6.2462545   6.1822622   6.10789276  6.02314619  5.92629297
  5.82252166  5.70837322  5.58903622  5.46451064  5.33652603  5.20508237
  5.07190919  4.93700649  4.80210379  4.66374205  4.5253803   4.38528903
  4.24173872  4.09299985  3.94080193  3.78341544  3.61911087  3.44961773
  3.27666555  3.0985248 ]","[-0.95525884 -0.95883492 -0.94453062 -0.91234595 -0.85870484 -0.78539531
 -0.69420542 -0.58155908 -0.45282041 -0.30441332 -0.14170194  0.03710177
  0.22663371  0.42689387  0.63251814  0.84350652  1.05270686  1.26011917
  1.46037933  1.64991127  1.82513891  1.98248618  2.12016504  2.23638745
  2.32936538  2.39909883  2.44379976  2.46883228  2.47240835  2.45989209
  2.43307153  2.39731079  2.35260986  2.30254482  2.25247978  2.20241474
  2.1523497   2.10764878  2.06294785  2.02003496  1.97712206  1.93242114
  1.88056806  1.82335087  1.75361742  1.67315575  1.57838978  1.46574344
  1.33700477  1.19038572  1.02588631  0.84529456  0.64682243  0.43404602
  0.2069653  -0.03263168 -0.28295688 -0.5440103  -0.81042783 -1.08399751
 -1.36293131 -1.6418651  -1.92079889 -2.19615661 -2.46615022 -2.72899168
 -2.98110492 -3.21891386 -3.4424185  -3.64625473 -3.8322106  -3.99492197
 -4.13438887 -4.24882325 -4.3382251  -4.40438248 -4.4437193  -4.46159967
 -4.45444752 -4.42583892 -4.37756192 -4.30961651 -4.22915484 -4.13260083
 -4.02710664 -3.91267227 -3.79287378 -3.66949922 -3.54433662 -3.42096205
 -3.29937553 -3.18315311 -3.07408285 -2.97216473 -2.8791868  -2.79693709
 -2.72541561 -2.66641038 -2.61992142 -2.58594871 -2.5662803  -2.56091619
 -2.56806834 -2.59131282 -2.62707356 -2.6771386  -2.73793187 -2.80945335
 -2.88812699 -2.97574081 -3.06871874 -3.16527274 -3.26361479 -3.36374486
 -3.46387494 -3.56221699 -3.66234707 -3.76068911 -3.85903115 -3.95558516
 -4.05213916 -4.14690513 -4.2416711  -4.33643707 -4.42762696 -4.51881686
 -4.60821871 -4.69762057 -4.78702243 -4.87821232 -4.97119025 -5.06953229
 -5.17323845 -5.28409675 -5.4021072  -5.5272698  -5.65958455 -5.79547537
 -5.93673031 -6.07798524]",5.670626406857894,1.6449047646719355,5.781945,0.02676999999999996
018,2,1,csm,45b.png,1,1,116,225,121,1,0,188,neu_feedback_onset,3,"[ 5.96663975e-01  4.52820201e-01  3.20483929e-01  1.97737242e-01
  9.22518072e-02  1.91791699e-04 -7.26890539e-02 -1.28308647e-01
 -1.66666986e-01 -1.89681990e-01 -1.99271575e-01 -1.95435741e-01
 -1.82010322e-01 -1.62831152e-01 -1.35980315e-01 -1.07211560e-01
 -7.65248878e-02 -4.58382160e-02 -1.51515442e-02  1.74530446e-02
  4.81397164e-02  7.88263882e-02  1.09513060e-01  1.42117649e-01
  1.76640155e-01  2.11162660e-01  2.45685166e-01  2.85961423e-01
  3.26237680e-01  3.70349771e-01  4.16379778e-01  4.68163537e-01
  5.23783130e-01  5.83238556e-01  6.46529817e-01  7.17492745e-01
  7.90373591e-01  8.69008188e-01  9.49560701e-01  1.03586697e+00
  1.12217323e+00  1.21231533e+00  1.30437534e+00  1.39643536e+00
  1.49041329e+00  1.58630914e+00  1.68028707e+00  1.77618292e+00
  1.87016086e+00  1.96413879e+00  2.05619880e+00  2.14634090e+00
  2.23648300e+00  2.32662510e+00  2.41676720e+00  2.50499138e+00
  2.59705139e+00  2.68911141e+00  2.78308934e+00  2.87898519e+00
  2.97871688e+00  3.07844856e+00  3.18201608e+00  3.28941943e+00
  3.39682278e+00  3.50806196e+00  3.62121907e+00  3.73821200e+00
  3.85712286e+00  3.97986954e+00  4.10836998e+00  4.24070625e+00
  4.37687836e+00  4.51688630e+00  4.66264799e+00  4.81224552e+00
  4.96376096e+00  5.11911223e+00  5.27446351e+00  5.43173270e+00
  5.58708398e+00  5.74243526e+00  5.89395070e+00  6.03971239e+00
  6.18355616e+00  6.31972827e+00  6.44822871e+00  6.57097540e+00
  6.68413250e+00  6.78578210e+00  6.87784211e+00  6.95647671e+00
  7.02360380e+00  7.07538756e+00  7.11566382e+00  7.14059674e+00
  7.15210424e+00  7.15210424e+00  7.14251466e+00  7.12141757e+00
  7.09456673e+00  7.06196214e+00  7.02552172e+00  6.98524546e+00
  6.94688712e+00  6.90661087e+00  6.86825253e+00  6.82989419e+00
  6.79345377e+00  6.75893126e+00  6.72440875e+00  6.69372208e+00
  6.66303541e+00  6.63426666e+00  6.60741582e+00  6.58248290e+00
  6.55754998e+00  6.53453497e+00  6.50960205e+00  6.48083330e+00
  6.45014662e+00  6.41178828e+00  6.36575828e+00  6.31013868e+00
  6.24301159e+00  6.16054116e+00  6.06272739e+00  5.94573446e+00
  5.81339818e+00  5.66188274e+00  5.49310605e+00  5.30706810e+00
  5.10952265e+00  4.90046970e+00  4.68758091e+00  4.47661004e+00
  4.27331084e+00  4.08535498e+00  3.91657828e+00  3.77465243e+00
  3.66341324e+00  3.58669656e+00  3.54258447e+00  3.53107697e+00
  3.55025614e+00  3.59628615e+00  3.66533116e+00  3.75355534e+00
  3.85712286e+00  3.97027996e+00  4.09494456e+00  4.22728083e+00
  4.36728878e+00  4.51305047e+00  4.66840174e+00  4.82950677e+00
  4.99828346e+00  5.17281391e+00  5.34926227e+00  5.53146439e+00
  5.71174858e+00  5.89203278e+00  6.06848114e+00  6.23917576e+00
  6.40411662e+00  6.56330373e+00  6.71673709e+00  6.86441669e+00
  7.00826047e+00  7.15018633e+00  7.28827635e+00  7.42828429e+00
  7.56829223e+00  7.71405392e+00  7.86173353e+00  8.01324897e+00
  8.17051816e+00  8.32970527e+00  8.49272822e+00  8.65383324e+00
  8.81302035e+00  8.96453580e+00  9.10646165e+00  9.23304418e+00
  9.34428336e+00  9.43442546e+00  9.50347047e+00  9.54758256e+00
  9.56867965e+00  9.56676173e+00  9.54374673e+00  9.50155255e+00
  9.44401504e+00  9.37305212e+00  9.29441752e+00  9.20811125e+00
  9.11796916e+00  9.02590914e+00  8.93576704e+00  8.84562494e+00
  8.75931868e+00  8.67493033e+00  8.59245990e+00  8.51574322e+00
  8.44094446e+00  8.36998153e+00  8.30477235e+00  8.24148109e+00
  8.18394358e+00  8.13215982e+00  8.08612982e+00  8.04585356e+00
  8.01133105e+00  7.98448022e+00  7.96338313e+00  7.94803979e+00
  7.93845021e+00  7.93461437e+00  7.93269646e+00  7.93653229e+00
  7.94228604e+00  7.95187563e+00  7.96338313e+00  7.98064438e+00
  8.00174147e+00  8.02667439e+00  8.05736106e+00  8.09380148e+00
  8.13407774e+00  8.17818983e+00  8.22421984e+00  8.27024985e+00
  8.31436194e+00  8.35463819e+00  8.39107862e+00  8.41792946e+00
  8.43710863e+00  8.44669821e+00  8.44478029e+00  8.43135487e+00
  8.40833987e+00  8.37573528e+00  8.32970527e+00  8.27216776e+00
  8.20120484e+00  8.11873440e+00  8.01900272e+00  7.90584562e+00
  7.77542726e+00  7.62774766e+00  7.46280679e+00  7.28060468e+00
  7.08305923e+00  6.87400628e+00  6.65344583e+00  6.42713162e+00
  6.19698158e+00  5.96491363e+00  5.73668150e+00  5.51228522e+00]","[nan nan nan nan nan nan nan nan nan nan nan nan nan nan nan nan nan nan
 nan nan nan nan nan nan nan nan nan nan nan nan nan nan nan nan nan nan
 nan nan nan nan nan nan nan nan nan nan nan nan nan nan nan nan nan nan
 nan nan nan nan nan nan nan nan nan nan nan nan nan nan nan nan nan nan
 nan nan nan nan nan nan nan nan nan nan nan nan nan nan nan nan nan nan
 nan nan nan nan nan nan nan nan nan nan nan nan nan nan nan nan nan nan
 nan nan nan nan nan nan nan nan nan nan nan nan nan nan nan nan nan nan
 nan nan nan nan nan nan nan nan nan nan nan nan nan nan]",8.673779581472138,,5.213990000000001,0.3137049999999997
018,2,1,csm,11b.png,1,1,316,233,312,1,1,520,neu_feedback_onset,4,"[-0.40412149 -0.33146645 -0.26235556 -0.19501675 -0.13299416 -0.07451571
 -0.02135349  0.02472043  0.06193399  0.09383132  0.11864036  0.13458903
  0.14522147  0.14876562  0.14699354  0.14167732  0.13104488  0.11509621
  0.09383132  0.06547814  0.03180873 -0.01249312 -0.06565534 -0.12945001
 -0.20387712 -0.29070875 -0.38640075 -0.49272519 -0.60613793 -0.72841104
 -0.85245623 -0.98004556 -1.10763489 -1.23168008 -1.35395319 -1.47091008
 -1.58255074 -1.68533104 -1.77925096 -1.86608259 -1.9405097  -2.00607644
 -2.05923866 -2.09999637 -2.12657748 -2.14075407 -2.14252614 -2.13012163
 -2.10531259 -2.06809903 -2.01848096 -1.95645837 -1.88557541 -1.80583207
 -1.71900044 -1.62508052 -1.52584437 -1.42306408 -1.31673963 -1.20864311
 -1.09877452 -0.98713386 -0.87726526 -0.7656246  -0.65398393 -0.54234327
 -0.4307026  -0.31906193 -0.20919334 -0.09755268  0.01054384  0.11686828
  0.22319273  0.32597302  0.42698125  0.52621739  0.62368147  0.72114554
  0.81506546  0.90898539  0.99936117  1.08796487  1.1747965   1.25808398
  1.33605524  1.40871028  1.47250494  1.52921131  1.57528524  1.60895464
  1.62844746  1.63553576  1.62667539  1.60186635  1.56110864  1.50440227
  1.43351931  1.34845976  1.24922361  1.14112709  1.02594228  0.90544124
  0.78316813  0.6626671   0.54393813  0.42875332  0.3206568   0.21964858
  0.12395658  0.0335808  -0.05147875 -0.13299416 -0.21096542 -0.28893668
 -0.36513586 -0.43956297 -0.51221801 -0.58310097 -0.65043978 -0.71423445
 -0.76916875 -0.81701475 -0.8542283  -0.88080941 -0.89498601 -0.89498601
 -0.88258149 -0.85777245 -0.82055889 -0.77094082 -0.7106903  -0.64335149
 -0.57069645 -0.49449727 -0.41829808 -0.3420989  -0.27298801 -0.20919334
 -0.15425905 -0.1099572  -0.07805986 -0.05679497 -0.0479346  -0.05147875
 -0.06565534 -0.09223645 -0.13122208 -0.18084016 -0.24463482 -0.32260608
 -0.41652601 -0.52816667 -0.65752808 -0.80461023 -0.97118519 -1.15548089
 -1.35572526 -1.57014622 -1.79165548 -2.02025303 -2.24885059 -2.47390399
 -2.69009703 -2.89565762 -3.08349747 -3.25361658 -3.40424288 -3.53183221
 -3.63638458 -3.71612791 -3.77106221 -3.80295954 -3.81181991 -3.79587124
 -3.75688562 -3.69486302 -3.61334762 -3.51233939 -3.39183836 -3.25538866
 -3.10299029 -2.93641532 -2.75920792 -2.57136807 -2.37643992 -2.17442348
 -1.96709081 -1.75444193 -1.54179304 -1.32737208 -1.11117904 -0.89675808
 -0.68233712 -0.4714603  -0.26412764 -0.06033912  0.1363611   0.3277451
  0.5120408   0.68747613  0.85582317  1.01353776  1.16239198  1.30415791
  1.43883553  1.56465279  1.68338176  1.7967945   1.90134686  1.99703886
  2.08387049  2.1582976   2.21677605  2.25753375  2.27702657  2.27171034
  2.23981301  2.18133457  2.09273086  1.97754605  1.83578012  1.67097724
  1.48668153  1.28466509  1.0720162   0.84873487  0.62190939  0.38976769
  0.15939806 -0.06919949 -0.29602497 -0.5193063  -0.73727141 -0.94814823
 -1.15370882 -1.35218111 -1.54356511 -1.72963289 -1.91038444 -2.0840477
 -2.25593888 -2.42605799 -2.59263296 -2.75920792 -2.92578288 -3.09235784
 -3.25716073 -3.41841947 -3.57613406 -3.72498828 -3.86498213 -3.99257147
 -4.10421213 -4.19990413 -4.27610332 -4.33280969 -4.37002324 -4.38774398
 -4.38597191 -4.37002324]","[-1.04912659 -1.09342469 -1.11003647 -1.09711619 -1.05466385 -0.98083369
 -0.87747146 -0.74642293 -0.58768808 -0.40680419 -0.20377124  0.01771924
  0.25397575  0.49946104  0.7541751   1.01442641  1.27652349  1.53862056
  1.79887188  2.05358593  2.30645423  2.55193952  2.79004179  3.0226068
  3.24778879  3.46558776  3.67415797  3.87165365  4.0543833   4.22234691
  4.36816148  4.491827    4.58596046  4.64871609  4.6764024   4.66717363
  4.61549252  4.52689633  4.3995393   4.23526719  4.03592576  3.80889801
  3.55418396  3.27916661  2.98753747  2.67929655  2.36367261  2.04066565
  1.71396719  1.38726873  1.06057026  0.73940906  0.42378512  0.1155442
 -0.1816222  -0.46955982 -0.74457717 -1.00852    -1.2613883  -1.50318208
 -1.73205558 -1.95170031 -2.16211627 -2.36514921 -2.55710763 -2.74352879
 -2.91887542 -3.08868479 -3.24741964 -3.39877147 -3.54089453 -3.67563457
 -3.79930009 -3.91373684 -4.02263633 -4.12230704 -4.21459475 -4.29949943
 -4.37886685 -4.45269702 -4.52098991 -4.58374555 -4.64280968 -4.6981823
 -4.74801766 -4.79785302 -4.84399687 -4.89014072 -4.93628457 -4.98611993
 -5.03780104 -5.09317366 -5.15223779 -5.21683918 -5.28513208 -5.35711649
 -5.43463816 -5.51400558 -5.59706451 -5.68381495 -5.76871964 -5.85547008
 -5.94037476 -6.02343369 -6.10464687 -6.18032279 -6.25230719 -6.31875434
 -6.38150997 -6.4405741  -6.49594672 -6.55131934 -6.60484621 -6.66021883
 -6.71928296 -6.7820386  -6.84848574 -6.9223159  -6.99983757 -7.08474226
 -7.1714927  -7.26008889 -7.35053084 -7.43728128 -7.51849446 -7.59232462
 -7.6532345  -7.7012241  -7.73260192 -7.74367645 -7.73444768 -7.70306986
 -7.64954299 -7.57571283 -7.48157937 -7.37083413 -7.24532286 -7.11058282
 -6.966614   -6.82079943]",1.1153434146626684,2.92621229124522,5.643105,-0.06496999999999975
018,2,1,csp,14a.png,1,1,156,319,153,1,1,484,pos_feedback_onset,5,"[-0.63493004 -0.55469215 -0.47827511 -0.40567893 -0.33499318 -0.26812827
 -0.20317379 -0.13821931 -0.07326483 -0.01022078  0.0547337   0.11586733
  0.17891138  0.23813458  0.29735779  0.35084971  0.40243121  0.44828143
  0.4903108   0.52469846  0.55335485  0.57627996  0.58965294  0.59347379
  0.58774252  0.57054868  0.53998187  0.49604208  0.43681887  0.35849141
  0.26105969  0.14452372  0.00888348 -0.14777144 -0.32162019 -0.51266278
 -0.71516792 -0.92722519 -1.14310331 -1.35898144 -1.57103871 -1.77354385
 -1.96076558 -2.12888306 -2.27598585 -2.39825311 -2.49568483 -2.56446016
 -2.6045791  -2.61986251 -2.60839995 -2.57401229 -2.52052036 -2.44792418
 -2.36004459 -2.26261287 -2.15944987 -2.05246603 -1.94548218 -1.84231918
 -1.74488746 -1.6589183  -1.58059084 -1.51563636 -1.46214443 -1.41820464
 -1.38381697 -1.35325016 -1.32841462 -1.30548951 -1.27874355 -1.24817674
 -1.21187865 -1.16602843 -1.11062608 -1.04758202 -0.97116499 -0.88710625
 -0.79158496 -0.68651153 -0.57379641 -0.45343958 -0.32735147 -0.19362166
 -0.05798142  0.08147966  0.21903033  0.35467056  0.48457952  0.6087572
  0.72147233  0.8227249   0.91251491  0.98702152  1.04815515  1.0959158
  1.13030346  1.15131815  1.1627807   1.1627807   1.155139    1.13603474
  1.10737835  1.06725941  1.01758834  0.95454428  0.87812725  0.78833723
  0.68517424  0.56672783  0.43490845  0.29162651  0.14070286 -0.01786248
 -0.18215911 -0.3445453  -0.50502108 -0.65976557 -0.80686836 -0.9425086
 -1.06668628 -1.17940141 -1.27874355 -1.36471271 -1.44112975 -1.50799465
 -1.56721786 -1.62070978 -1.66656    -1.7104998  -1.74870831 -1.78691683
 -1.81939407 -1.85187131 -1.87861727 -1.90154238 -1.92255707 -1.93593005
