sub,run,cat_cond,trial_type,picture,old,response_old,target_pos,response_pos,dot_resp_loc,cat_corr,TN_corr,TN_rt,feedback_type,trial,SP_timeseries,FB_timeseries,SP_peak_response,FB_peak_response,preStim_bl,anticipation
052,1,2,csp,5b.png,1,1,288,309,288,1,1,281,pos_feedback_onset,1,"[-4.97352024e-01 -5.31610469e-01 -5.47732091e-01 -5.45716888e-01
 -5.23549659e-01 -4.81230402e-01 -4.18759119e-01 -3.38151011e-01
 -2.41421282e-01 -1.34615540e-01 -1.97489864e-02  9.71327696e-02
  2.14014526e-01  3.22835471e-01  4.25610808e-01  5.14279726e-01
  5.88842226e-01  6.53328712e-01  7.07739184e-01  7.56104049e-01
  8.06484116e-01  8.60894589e-01  9.29411480e-01  1.01606520e+00
  1.12287094e+00  1.24982871e+00  1.39895371e+00  1.56621553e+00
  1.74758377e+00  1.93298242e+00  2.12039627e+00  2.29974931e+00
  2.46701113e+00  2.61210573e+00  2.73301789e+00  2.82571721e+00
  2.88818849e+00  2.92043174e+00  2.92446214e+00  2.90027971e+00
  2.85191485e+00  2.77936755e+00  2.69069863e+00  2.58792329e+00
  2.47708715e+00  2.36423579e+00  2.25138444e+00  2.14659390e+00
  2.05389458e+00  1.97328647e+00  1.91081519e+00  1.86043512e+00
  1.82617668e+00  1.80400945e+00  1.79191823e+00  1.78990303e+00
  1.79191823e+00  1.79796384e+00  1.81005506e+00  1.82819188e+00
  1.85035911e+00  1.88058715e+00  1.92089120e+00  1.97127127e+00
  2.03374255e+00  2.10830505e+00  2.19495877e+00  2.29571890e+00
  2.40857025e+00  2.53552802e+00  2.67659221e+00  2.83176282e+00
  3.00305505e+00  3.19248410e+00  3.39601957e+00  3.61366146e+00
  3.84137937e+00  4.07111247e+00  4.29479997e+00  4.50236585e+00
  4.68776450e+00  4.83890470e+00  4.94974084e+00  5.01422733e+00
  5.03034895e+00  4.99810571e+00  4.91951280e+00  4.80061585e+00
  4.64544524e+00  4.46810740e+00  4.27263274e+00  4.06909727e+00
  3.86556180e+00  3.66807193e+00  3.48468849e+00  3.31944187e+00
  3.17233207e+00  3.04940471e+00  2.95267498e+00  2.88415809e+00
  2.84788444e+00  2.84183883e+00  2.87005167e+00  2.93252295e+00
  3.02522228e+00  3.14210403e+00  3.27510741e+00  3.41818680e+00
  3.55522058e+00  3.67613275e+00  3.76883207e+00  3.82525774e+00
  3.83936416e+00  3.80712092e+00  3.72852802e+00  3.60761585e+00
  3.44639964e+00  3.25898579e+00  3.04940471e+00  2.83176282e+00
  2.61210573e+00  2.40453985e+00  2.21511080e+00  2.05389458e+00
  1.92290641e+00  1.82819188e+00  1.77378141e+00  1.75765979e+00
  1.77781181e+00  1.83423749e+00  1.92089120e+00  2.03374255e+00
  2.16674593e+00  2.31385573e+00  2.46902633e+00  2.62419694e+00
  2.77735235e+00  2.92043174e+00  3.04738951e+00  3.15822565e+00
  3.24487937e+00  3.30735065e+00  3.34362430e+00  3.35370032e+00
  3.33959390e+00  3.30332025e+00  3.24890978e+00  3.17837768e+00
  3.09776957e+00  3.01111586e+00  2.92043174e+00  2.82974762e+00
  2.73906350e+00  2.64837937e+00  2.55568005e+00  2.45693512e+00
  2.34811417e+00  2.22317161e+00  2.07404661e+00  1.89469357e+00
  1.67906688e+00  1.42313614e+00  1.12690134e+00  7.86332089e-01
  4.09489186e-01 -1.61216215e-03 -4.40926348e-01 -9.00392561e-01
 -1.36993479e+00 -1.84552262e+00 -2.31909525e+00 -2.78460708e+00
 -3.24205809e+00 -3.68540268e+00 -4.11665605e+00 -4.52977260e+00
 -4.92676753e+00 -5.30965605e+00 -5.67239253e+00 -6.01699219e+00
 -6.34345502e+00 -6.64775063e+00 -6.92987901e+00 -7.18782495e+00
 -7.41755806e+00 -7.61907833e+00 -7.78835535e+00 -7.92538914e+00
 -8.03017968e+00 -8.09869657e+00 -8.13093981e+00 -8.13093981e+00
 -8.09869657e+00 -8.03824049e+00 -7.94957157e+00 -7.83873542e+00
 -7.70774725e+00 -7.56466785e+00 -7.40949725e+00 -7.24828103e+00
 -7.08504961e+00 -6.92383340e+00 -6.76866279e+00 -6.62155300e+00
 -6.48653442e+00 -6.36360705e+00 -6.25478611e+00 -6.15805638e+00
 -6.07341786e+00 -5.99482496e+00 -5.92227766e+00 -5.84973037e+00
 -5.77315266e+00 -5.69052935e+00 -5.59379962e+00 -5.48296348e+00
 -5.35802091e+00 -5.21494152e+00 -5.05775571e+00 -4.88444828e+00
 -4.70308004e+00 -4.51163578e+00 -4.31817632e+00 -4.12068646e+00
 -3.92722700e+00 -3.73779795e+00 -3.55642971e+00 -3.38513748e+00
 -3.22392126e+00 -3.07681147e+00 -2.94380809e+00 -2.82692633e+00
 -2.72616620e+00 -2.64354289e+00 -2.57704120e+00 -2.52666113e+00
 -2.49240269e+00 -2.47225066e+00 -2.46217465e+00 -2.46015944e+00
 -2.46620505e+00 -2.47426586e+00 -2.48635708e+00 -2.49643309e+00
 -2.50449390e+00 -2.51053951e+00 -2.51456992e+00 -2.51658512e+00
 -2.51456992e+00 -2.51255471e+00 -2.50852431e+00 -2.50247870e+00
 -2.49844829e+00 -2.49240269e+00 -2.48434188e+00 -2.47628106e+00
 -2.46418985e+00 -2.44806823e+00 -2.42791620e+00 -2.39970336e+00]","[-1.61588896e+00 -1.28400853e+00 -9.77941014e-01 -7.03217765e-01
 -4.65370120e-01 -2.69929420e-01 -1.15051884e-01 -7.37512077e-04
  8.22325966e-02  1.41233563e-01  1.85484287e-01  2.24203671e-01
  2.68454396e-01  3.23767802e-01  3.95675229e-01  4.87864239e-01
  6.04022391e-01  7.40462125e-01  8.99027222e-01  1.07971768e+00
  1.27884594e+00  1.49456822e+00  1.72319697e+00  1.96657595e+00
  2.21548628e+00  2.46808416e+00  2.72068205e+00  2.96406104e+00
  3.19637734e+00  3.41394340e+00  3.61491544e+00  3.79560590e+00
  3.95970234e+00  4.10720476e+00  4.23811315e+00  4.35795886e+00
  4.46858567e+00  4.57183736e+00  4.66955771e+00  4.75990294e+00
  4.84471683e+00  4.92399938e+00  4.99590681e+00  5.05675155e+00
  5.10468984e+00  5.13787788e+00  5.15078434e+00  5.14340922e+00
  5.11206496e+00  5.05675155e+00  4.97378145e+00  4.86684219e+00
  4.73409002e+00  4.58105626e+00  4.40958471e+00  4.22336291e+00
  4.02423465e+00  3.81404370e+00  3.59832142e+00  3.37891158e+00
  3.15581418e+00  2.93271677e+00  2.70961937e+00  2.49020953e+00
  2.27448724e+00  2.06614008e+00  1.86885560e+00  1.68263380e+00
  1.51116225e+00  1.35628471e+00  1.21800119e+00  1.09815548e+00
  9.91216231e-01  8.99027222e-01  8.12369553e-01  7.31243224e-01
  6.46429335e-01  5.56084106e-01  4.52832415e-01  3.36674263e-01
  2.03922089e-01  5.45758937e-02 -1.16895664e-01 -3.06805024e-01
 -5.18839746e-01 -7.56687391e-01 -1.01850418e+00 -1.30797767e+00
 -1.62695164e+00 -1.97173854e+00 -2.34418214e+00 -2.74059488e+00
 -3.15360164e+00 -3.58135864e+00 -4.01464699e+00 -4.45162290e+00
 -4.88491124e+00 -5.31266824e+00 -5.73120635e+00 -6.14052555e+00
 -6.53509451e+00 -6.91491323e+00 -7.27629415e+00 -7.61554970e+00
 -7.93267990e+00 -8.22584095e+00 -8.49134530e+00 -8.73288050e+00
 -8.95044656e+00 -9.14588726e+00 -9.32104638e+00 -9.47961148e+00
 -9.62527011e+00 -9.75433473e+00 -9.87049288e+00 -9.97190079e+00
 -1.00548709e+01 -1.01194032e+01 -1.01618101e+01 -1.01802480e+01
 -1.01691853e+01 -1.01323097e+01 -1.00677774e+01 -9.97927591e+00
 -9.87049288e+00 -9.74327205e+00 -9.60498853e+00 -9.45932990e+00
 -9.30813992e+00 -9.15510616e+00 -9.00391619e+00 -8.85272621e+00
 -8.70153624e+00 -8.55034626e+00 -8.39915629e+00 -8.24612253e+00
 -8.09124499e+00 -7.93821124e+00 -7.78517748e+00 -7.63583129e+00]",3.5895797899352773,4.089965410683587,4.96228,0.3227500000000001
052,1,2,csp,44b.png,1,1,4,7,5,1,1,272,pos_feedback_onset,2,"[-5.69401662e-01 -6.62746196e-01 -7.22901563e-01 -7.51942085e-01
 -7.54016408e-01 -7.29124532e-01 -6.83489426e-01 -6.19185413e-01
 -5.32063848e-01 -4.24199052e-01 -2.95591026e-01 -1.44165448e-01
  3.21520064e-02  2.33361337e-01  4.53239574e-01  6.95935364e-01
  9.53151415e-01  1.22488773e+00  1.50492133e+00  1.79117790e+00
  2.07536015e+00  2.35746808e+00  2.62920439e+00  2.88642044e+00
  3.12289327e+00  3.33654853e+00  3.52116328e+00  3.67051454e+00
  3.78460230e+00  3.86342657e+00  3.90491303e+00  3.91113600e+00
  3.89039277e+00  3.84683199e+00  3.78252798e+00  3.70370370e+00
  3.61658214e+00  3.51908896e+00  3.41122416e+00  3.29091343e+00
  3.15608243e+00  3.00465686e+00  2.83248805e+00  2.63750169e+00
  2.42592074e+00  2.19774521e+00  1.96334671e+00  1.72272525e+00
  1.48832675e+00  1.26222554e+00  1.05271892e+00  8.57732558e-01
  6.81415103e-01  5.23766556e-01  3.82712592e-01  2.60327536e-01
  1.52462740e-01  6.11925283e-02 -1.76317454e-02 -7.98614352e-02
 -1.31719510e-01 -1.71131647e-01 -1.98097846e-01 -2.16766753e-01
 -2.25064045e-01 -2.29212691e-01 -2.22989722e-01 -2.12618107e-01
 -1.93949200e-01 -1.64908678e-01 -1.25496541e-01 -7.36384662e-02
 -3.11148449e-03  8.40100812e-02  1.89800554e-01  3.14259933e-01
  4.57388220e-01  6.15036767e-01  7.76833961e-01  9.40705477e-01
  1.09213106e+00  1.22696205e+00  1.33067820e+00  1.39913086e+00
  1.42609706e+00  1.41157680e+00  1.35349575e+00  1.25600257e+00
  1.12739455e+00  9.75968968e-01  8.14171775e-01  6.48225935e-01
  4.88503065e-01  3.39151809e-01  2.08469461e-01  9.64560192e-02
  1.03716150e-03 -8.19357582e-02 -1.54537063e-01 -2.18841076e-01
 -2.76922120e-01 -3.28780194e-01 -3.72340977e-01 -4.05530145e-01
 -4.22124729e-01 -4.17976083e-01 -3.93084207e-01 -3.41226132e-01
 -2.68624828e-01 -1.71131647e-01 -5.49695593e-02  7.57127892e-02
  2.18841076e-01  3.68192331e-01  5.17543587e-01  6.64820519e-01
  7.99651514e-01  9.19962247e-01  1.02367840e+00  1.10665132e+00
  1.16888101e+00  1.20829314e+00  1.23318502e+00  1.24770528e+00
  1.25392825e+00  1.26015122e+00  1.27259716e+00  1.29334039e+00
  1.33067820e+00  1.38046195e+00  1.44269164e+00  1.51321862e+00
  1.58581993e+00  1.65427259e+00  1.70820498e+00  1.73931983e+00
  1.74139415e+00  1.70820498e+00  1.63560368e+00  1.52359024e+00
  1.37423898e+00  1.18962424e+00  9.73894645e-01  7.35347501e-01
  4.78131450e-01  2.10543784e-01 -6.53411743e-02 -3.41226132e-01
 -6.17111090e-01 -8.86773079e-01 -1.14813778e+00 -1.40120518e+00
 -1.64182665e+00 -1.87207650e+00 -2.08573177e+00 -2.28279245e+00
 -2.46533288e+00 -2.63127872e+00 -2.78062997e+00 -2.91753529e+00
 -3.04199467e+00 -3.16023108e+00 -3.27224452e+00 -3.38010932e+00
 -3.49212276e+00 -3.60413620e+00 -3.71822396e+00 -3.83438605e+00
 -3.95054814e+00 -4.06463590e+00 -4.17042638e+00 -4.26584523e+00
 -4.34881815e+00 -4.41519649e+00 -4.46290592e+00 -4.49194644e+00
 -4.50439238e+00 -4.50024373e+00 -4.48157483e+00 -4.45253430e+00
 -4.41104784e+00 -4.36333842e+00 -4.30525737e+00 -4.23680471e+00
 -4.16005476e+00 -4.07085887e+00 -3.96921705e+00 -3.85098064e+00
 -3.71822396e+00 -3.56887271e+00 -3.40500119e+00 -3.22453509e+00
 -3.03162305e+00 -2.82626508e+00 -2.61260981e+00 -2.39273157e+00
 -2.16870469e+00 -1.94052916e+00 -1.71235363e+00 -1.48210378e+00
 -1.25185393e+00 -1.02367840e+00 -7.93428545e-01 -5.65253016e-01
 -3.39151809e-01 -1.10976280e-01  1.17199249e-01  3.43300455e-01
  5.69401662e-01  7.97577191e-01  1.02367840e+00  1.25185393e+00
  1.47795513e+00  1.70405634e+00  1.93223187e+00  2.15833307e+00
  2.38443428e+00  2.61260981e+00  2.83871102e+00  3.06481222e+00
  3.29091343e+00  3.51701463e+00  3.74104152e+00  3.96299408e+00
  4.18287232e+00  4.39652758e+00  4.60395988e+00  4.80309489e+00
  4.98978396e+00  5.15780412e+00  5.30715538e+00  5.43368908e+00
  5.53325658e+00  5.60378357e+00  5.64527002e+00  5.65564164e+00
  5.63904706e+00  5.59548627e+00  5.52910794e+00  5.44406069e+00
  5.34034455e+00  5.21795949e+00  5.08105417e+00  4.92547995e+00
  4.74708817e+00  4.54173019e+00  4.30318305e+00  4.03144674e+00
  3.71822396e+00  3.36558906e+00  2.97561633e+00  2.55038012e+00
  2.10232635e+00  1.63767800e+00  1.17095533e+00  7.12529948e-01
  2.74847797e-01 -1.29645187e-01 -4.94726034e-01 -8.14171775e-01]","[-1.31086484e+00 -1.22140471e+00 -1.12829314e+00 -1.02970442e+00
 -9.29289979e-01 -8.23398390e-01 -7.12029650e-01 -5.95183758e-01
 -4.72860716e-01 -3.37757654e-01 -1.89874573e-01 -2.37343217e-02
  1.67965969e-01  3.87052015e-01  6.35349534e-01  9.12858525e-01
  1.21045040e+00  1.51899659e+00  1.82571705e+00  2.11600606e+00
  2.37343217e+00  2.58338963e+00  2.73674986e+00  2.82620999e+00
  2.85359575e+00  2.82438428e+00  2.74952988e+00  2.64546401e+00
  2.52861811e+00  2.41177222e+00  2.30770635e+00  2.23102624e+00
  2.18173188e+00  2.16530042e+00  2.17808044e+00  2.22007193e+00
  2.28214631e+00  2.36430358e+00  2.45741515e+00  2.56148102e+00
  2.67102404e+00  2.78604422e+00  2.90106439e+00  3.01973600e+00
  3.13840761e+00  3.25707922e+00  3.37575083e+00  3.49624815e+00
  3.61491976e+00  3.73541709e+00  3.85408869e+00  3.97276030e+00
  4.09143191e+00  4.20827780e+00  4.32512369e+00  4.43831815e+00
  4.54968689e+00  4.65375276e+00  4.74869005e+00  4.83267303e+00
  4.90022456e+00  4.94586749e+00  4.96595038e+00  4.95499607e+00
  4.90570171e+00  4.81806730e+00  4.68661567e+00  4.50952111e+00
  4.28678363e+00  4.02022894e+00  3.71168276e+00  3.36114509e+00
  2.97409308e+00  2.55235244e+00  2.09592317e+00  1.60845672e+00
  1.09543023e+00  5.60495134e-01  1.27800194e-02 -5.38586530e-01
 -1.08265021e+00 -1.61028244e+00 -2.10870319e+00 -2.57060961e+00
 -2.99235025e+00 -3.36844796e+00 -3.69890274e+00 -3.98919176e+00
 -4.24479214e+00 -4.46935534e+00 -4.66835850e+00 -4.85093020e+00
 -5.02072189e+00 -5.17955927e+00 -5.33474522e+00 -5.48445402e+00
 -5.63233710e+00 -5.77839446e+00 -5.92445183e+00 -6.06868348e+00
 -6.21474084e+00 -6.35897249e+00 -6.50320413e+00 -6.64743578e+00
 -6.79349314e+00 -6.93772479e+00 -7.08195644e+00 -7.22618809e+00
 -7.37041973e+00 -7.51465138e+00 -7.65888303e+00 -7.80494039e+00
 -7.95464919e+00 -8.10618370e+00 -8.26319537e+00 -8.42750990e+00
 -8.60095302e+00 -8.78352473e+00 -8.97887645e+00 -9.18518248e+00
 -9.40244281e+00 -9.62883172e+00 -9.86434922e+00 -1.01053439e+01
 -1.03481642e+01 -1.05928103e+01 -1.08374564e+01 -1.10802768e+01
 -1.13212714e+01 -1.15567889e+01 -1.17904807e+01 -1.20205211e+01
 -1.22432585e+01 -1.24623446e+01 -1.26704763e+01 -1.28713052e+01
 -1.30593541e+01 -1.32364486e+01 -1.33971117e+01 -1.35431691e+01]",4.170011512492588,3.298705566611294,4.820850000000001,0.613595000000001
052,1,2,csm,47a.png,1,1,276,137,276,1,1,457,neu_feedback_onset,3,"[-4.91310772e-01 -4.05273862e-01 -2.91224935e-01 -1.51164850e-01
  2.90124463e-03  1.60969056e-01  3.11033433e-01  4.41089227e-01
  5.39131287e-01  5.93154463e-01  5.99157038e-01  5.55138154e-01
  4.59096953e-01  3.17036008e-01  1.36958755e-01 -7.31313734e-02
 -3.05230944e-01 -5.49335665e-01 -7.99442961e-01 -1.04955026e+00
 -1.29765669e+00 -1.54176142e+00 -1.77986356e+00 -2.01196313e+00
 -2.23806013e+00 -2.45815455e+00 -2.67224639e+00 -2.88033566e+00
 -3.08042150e+00 -3.27250390e+00 -3.45658287e+00 -3.63065755e+00
 -3.79472794e+00 -3.94679317e+00 -4.08885412e+00 -4.22091077e+00
 -4.34096227e+00 -4.45100948e+00 -4.54705068e+00 -4.63308759e+00
 -4.70311764e+00 -4.76114253e+00 -4.80716227e+00 -4.84117686e+00
 -4.86518717e+00 -4.88119403e+00 -4.89119832e+00 -4.90120262e+00
 -4.91120691e+00 -4.92921463e+00 -4.95522579e+00 -4.99124124e+00
 -5.04126270e+00 -5.10729103e+00 -5.18532450e+00 -5.27936485e+00
 -5.38340948e+00 -5.49545755e+00 -5.61350820e+00 -5.73155884e+00
 -5.84760862e+00 -5.95365412e+00 -6.04769446e+00 -6.12572794e+00
 -6.18575369e+00 -6.22377000e+00 -6.24377858e+00 -6.24177772e+00
 -6.22377000e+00 -6.19175626e+00 -6.15173910e+00 -6.10571935e+00
 -6.06170047e+00 -6.02368416e+00 -5.99167043e+00 -5.97166184e+00
 -5.96165755e+00 -5.96165755e+00 -5.96766013e+00 -5.97566356e+00
 -5.98366699e+00 -5.98766871e+00 -5.98766871e+00 -5.97966528e+00
 -5.96365841e+00 -5.94565068e+00 -5.92364124e+00 -5.90363266e+00
 -5.88562493e+00 -5.87762150e+00 -5.87562064e+00 -5.88762579e+00
 -5.90763438e+00 -5.93764725e+00 -5.97766442e+00 -6.02568502e+00
 -6.07770734e+00 -6.13573223e+00 -6.19575798e+00 -6.26178631e+00
 -6.33181635e+00 -6.40584811e+00 -6.49188502e+00 -6.58792622e+00
 -6.69797343e+00 -6.82602837e+00 -6.97409189e+00 -7.14216399e+00
 -7.32624296e+00 -7.52832965e+00 -7.74242150e+00 -7.96051506e+00
 -8.17860862e+00 -8.39069961e+00 -8.58678373e+00 -8.76486012e+00
 -8.91892622e+00 -9.04698115e+00 -9.14902493e+00 -9.22705841e+00
 -9.28508330e+00 -9.32910218e+00 -9.36311678e+00 -9.39312965e+00
 -9.42714424e+00 -9.47116313e+00 -9.52918802e+00 -9.60522064e+00
 -9.70126184e+00 -9.81731163e+00 -9.95136914e+00 -1.00994327e+01
 -1.02514979e+01 -1.04015623e+01 -1.05376206e+01 -1.06436661e+01
 -1.07076936e+01 -1.07196988e+01 -1.06656756e+01 -1.05416224e+01
 -1.03435374e+01 -1.00754224e+01 -9.74327987e+00 -9.35911506e+00
 -8.93293223e+00 -8.48473995e+00 -8.02654339e+00 -7.57434940e+00
 -7.14216399e+00 -6.73999146e+00 -6.37783609e+00 -6.05769875e+00
 -5.78358116e+00 -5.55348244e+00 -5.36740262e+00 -5.21533738e+00
 -5.09728674e+00 -5.00724811e+00 -4.93921892e+00 -4.89319918e+00
 -4.86518717e+00 -4.85318202e+00 -4.85718373e+00 -4.87719232e+00
 -4.91320777e+00 -4.96523008e+00 -5.03325927e+00 -5.11529446e+00
 -5.21133566e+00 -5.31938201e+00 -5.44143438e+00 -5.57549189e+00
 -5.72155455e+00 -5.87562064e+00 -6.03769017e+00 -6.20176056e+00
 -6.36783180e+00 -6.53190219e+00 -6.68596828e+00 -6.83003008e+00
 -6.96008588e+00 -7.07413480e+00 -7.17217686e+00 -7.25221120e+00
 -7.31623867e+00 -7.36826098e+00 -7.40627729e+00 -7.43629017e+00
 -7.45629875e+00 -7.46830390e+00 -7.47230562e+00 -7.46630304e+00
 -7.44829532e+00 -7.41628158e+00 -7.37226270e+00 -7.31023609e+00
 -7.23220261e+00 -7.13616141e+00 -7.02611420e+00 -6.90206098e+00
 -6.76400176e+00 -6.61393738e+00 -6.45787043e+00 -6.29380004e+00
 -6.12372708e+00 -5.95165326e+00 -5.77757858e+00 -5.60150304e+00
 -5.42542751e+00 -5.25135283e+00 -5.07927901e+00 -4.91120691e+00
 -4.74713652e+00 -4.58706785e+00 -4.43500262e+00 -4.29294167e+00
 -4.15888416e+00 -4.03683180e+00 -3.92478373e+00 -3.82474081e+00
 -3.73470219e+00 -3.65666871e+00 -3.58663867e+00 -3.52261120e+00
 -3.46458631e+00 -3.40856227e+00 -3.35653996e+00 -3.30451764e+00
 -3.25249532e+00 -3.20047300e+00 -3.14845069e+00 -3.09642837e+00
 -3.04240519e+00 -2.98838202e+00 -2.93235798e+00 -2.87833481e+00
 -2.82231077e+00 -2.76628674e+00 -2.71226356e+00 -2.65623953e+00
 -2.60021549e+00 -2.54419146e+00 -2.49016828e+00 -2.43414425e+00
 -2.37812021e+00 -2.32209618e+00 -2.26807300e+00 -2.21204897e+00
 -2.15602493e+00 -2.10200176e+00 -2.04597772e+00 -1.99195455e+00
 -1.93993223e+00 -1.88790991e+00 -1.83788845e+00 -1.79186871e+00
 -1.74985069e+00 -1.71383524e+00 -1.68582322e+00 -1.66781549e+00]","[-1.79476489 -1.71710483 -1.60061474 -1.45551305 -1.28179975 -1.08560591
 -0.87306259 -0.64621346 -0.41323327 -0.17616572  0.05885815  0.29183834
  0.52073115  0.74758028  0.97238572  1.19923484  1.43221503  1.67541364
  1.93496174  2.21085933  2.50515009  2.81783402  3.14278007  3.47590086
  3.81106533  4.13805507  4.44869531  4.73072396  4.98005363  5.18850958
  5.34791708  5.46236348  5.52571774  5.5461546   5.52776143  5.47666928
  5.40309659  5.3152181   5.22325224  5.13333006  5.05158263  4.98209731
  4.92896148  4.88808776  4.86356353  4.85130142  4.84517036  4.84721405
  4.84925773  4.85130142  4.85130142  4.84721405  4.83495193  4.82064613
  4.79816559  4.77159767  4.74298607  4.7102871   4.67554444  4.63875809
  4.60197175  4.5651854   4.52635537  4.48956903  4.450739    4.41190897
  4.37307894  4.3342489   4.29746256  4.25863253  4.2198025   4.18097247
  4.14214244  4.10535609  4.06652606  4.02769603  3.988866    3.95003597
  3.91120594  3.87237591  3.83150219  3.7865411   3.73749264  3.68231313
  3.61487149  3.53312406  3.4268524   3.29196913  3.12234321  2.91184357
  2.65638284  2.35596102  2.0126218   1.63453993  1.22989013  0.81297822
  0.39606631 -0.00858348 -0.39075273 -0.74431038 -1.06516905 -1.35332876
 -1.61083317 -1.84585704 -2.06044405 -2.26481263 -2.46509385 -2.66537506
 -2.87178733 -3.08841802 -3.31935452 -3.56459682 -3.82414492 -4.09799882
 -4.38002747 -4.66818717 -4.9522595  -5.22406971 -5.47544307 -5.69820483
 -5.88418024 -6.03132562 -6.13350991 -6.19686417 -6.21934471 -6.21116997
 -6.17642731 -6.12533516 -6.0619809  -5.99658296 -5.93527238 -5.88418024
 -5.84943758 -5.83308809 -5.84330652 -5.88009287 -5.94344713 -6.0333693
 -6.14577202 -6.28065529]",-0.7744322314272725,4.171622604800177,4.9978549999999995,0.14121000000000006
052,1,2,csp,22b.png,1,1,28,38,30,1,0,227,neg_feedback_onset,4,"[ 0.46697954  0.49884078  0.51795752  0.52220569  0.50733711  0.47335179
  0.42024973  0.34378276  0.25032313  0.13774675  0.01667405 -0.1107709
 -0.23821586 -0.35504039 -0.45912044 -0.53983557 -0.5971858  -0.62479888
 -0.62692296 -0.60355805 -0.5610764  -0.50372617 -0.44425186 -0.38902572
 -0.35079223 -0.33592365 -0.35504039 -0.41026654 -0.50585025 -0.63754337
 -0.80534589 -0.9986374  -1.20679749 -1.42132982 -1.62948991 -1.82278142
 -1.99270802 -2.13289747 -2.24547385 -2.32831306 -2.38991146 -2.43239311
 -2.46850251 -2.50036375 -2.54072132 -2.58957522 -2.65329769 -2.73188874
 -2.82110021 -2.92093209 -3.02076397 -3.11847177 -3.20768323 -3.27990204
 -3.33088002 -3.35636901 -3.35849309 -3.33512818 -3.28839837 -3.22255181
 -3.14396076 -3.05687337 -2.96553782 -2.87845044 -2.7977353  -2.72764058
 -2.66816627 -2.61506421 -2.57258256 -2.53222499 -2.49611558 -2.4578821
 -2.41752453 -2.37929104 -2.34318164 -2.31344449 -2.29645183 -2.29857591
 -2.32194082 -2.37079471 -2.44726169 -2.54921765 -2.67029035 -2.80410755
 -2.944297   -3.07599011 -3.19493874 -3.29052245 -3.35636901 -3.38823025
 -3.38823025 -3.35212084 -3.28839837 -3.19706282 -3.08873461 -2.96766191
 -2.84446512 -2.72339241 -2.61294012 -2.51948049 -2.44938577 -2.40265595
 -2.37929104 -2.37929104 -2.40053187 -2.43664127 -2.47912292 -2.52372866
 -2.56196214 -2.5916993  -2.60231971 -2.59594746 -2.56833439 -2.51948049
 -2.45363393 -2.36867063 -2.26883875 -2.15838646 -2.03943784 -1.91199289
 -1.78029977 -1.64648257 -1.50629313 -1.36610368 -1.22803831 -1.08997295
 -0.95827983 -0.83508305 -0.72463075 -0.63117112 -0.55470415 -0.50372617
 -0.4761131  -0.4761131  -0.50160209 -0.55895232 -0.64179154 -0.75224383
 -0.89243327 -1.05811171 -1.25140322 -1.47443189 -1.72507363 -2.00120435
 -2.30707224 -2.63418095 -2.98253048 -3.34787268 -3.72383529 -4.10404606
 -4.48000867 -4.84747494 -5.19794856 -5.52718135 -5.83092515 -6.1049318
 -6.34707721 -6.55948546 -6.74640472 -6.91208316 -7.05864486 -7.19458614
 -7.32840334 -7.46222054 -7.60453407 -7.75959209 -7.92527053 -8.10369346
 -8.29698497 -8.49664873 -8.70268473 -8.90872074 -9.11050858 -9.30167601
 -9.47585077 -9.62666063 -9.75622967 -9.85393746 -9.92190811 -9.96014159
 -9.96651384 -9.94527301 -9.8985432  -9.82844847 -9.74136109 -9.64152921
 -9.52895284 -9.4121283  -9.28893151 -9.16361064 -9.03404161 -8.90022441
 -8.76640721 -8.62834185 -8.49027648 -8.35008703 -8.20989759 -8.07183222
 -7.93801502 -7.80844599 -7.68312512 -7.56205242 -7.44310379 -7.32840334
 -7.21370288 -7.10112651 -6.99067422 -6.88022192 -6.7740178  -6.66993775
 -6.57010587 -6.47877033 -6.39380702 -6.31309189 -6.238749   -6.16865428
 -6.10280772 -6.03483708 -5.96474235 -5.88827538 -5.80331208 -5.70772837
 -5.60364832 -5.4846997  -5.35725475 -5.22131347 -5.07899994 -4.93668641
 -4.79862105 -4.67117609 -4.55435155 -4.45876784 -4.38017679 -4.32495064
 -4.28884124 -4.2697245  -4.26122817 -4.26122817 -4.26122817 -4.25273184
 -4.23573918 -4.20175385 -4.15077587 -4.08068115 -3.99359377 -3.89163781
 -3.77906143 -3.66223689 -3.54328827 -3.42858781 -3.32450777 -3.2352963
 -3.16095342 -3.10572727 -3.06961787 -3.05050112 -3.04837704 -3.05899745
 -3.08236236 -3.10997543]","[-3.37774459e+00 -3.30766897e+00 -3.18553719e+00 -2.99933628e+00
 -2.74506192e+00 -2.42271411e+00 -2.03429500e+00 -1.58781325e+00
 -1.09127749e+00 -5.60705001e-01 -8.10874934e-03  5.52496143e-01
  1.11109888e+00  1.65768865e+00  2.18225465e+00  2.68079258e+00
  3.15130025e+00  3.59177553e+00  4.00422055e+00  4.38863534e+00
  4.74301772e+00  5.06736769e+00  5.36168526e+00  5.62597042e+00
  5.85621886e+00  6.05443273e+00  6.22261420e+00  6.36276542e+00
  6.48289504e+00  6.58700738e+00  6.68110892e+00  6.77120613e+00
  6.85930119e+00  6.95140056e+00  7.04750426e+00  7.14761227e+00
  7.25572893e+00  7.36784991e+00  7.48397521e+00  7.60210267e+00
  7.72423445e+00  7.84636623e+00  7.97050017e+00  8.09463411e+00
  8.21876805e+00  8.34290199e+00  8.46703593e+00  8.59317203e+00
  8.71730597e+00  8.84143991e+00  8.96757601e+00  9.09170996e+00
  9.21584390e+00  9.34198000e+00  9.46611394e+00  9.59024788e+00
  9.71638398e+00  9.84051792e+00  9.96465186e+00  1.00887858e+01
  1.02129197e+01  1.03350515e+01  1.04571833e+01  1.05753108e+01
  1.06894339e+01  1.07975506e+01  1.08976586e+01  1.09837515e+01
  1.10518249e+01  1.10978746e+01  1.11178962e+01  1.11058832e+01
  1.10598336e+01  1.09737407e+01  1.08516089e+01  1.06934382e+01
  1.05032330e+01  1.02890018e+01  1.00527469e+01  9.80447903e+00
  9.54820251e+00  9.28792167e+00  9.02563866e+00  8.76135350e+00
  8.49306402e+00  8.21676589e+00  7.93245912e+00  7.63413723e+00
  7.32380238e+00  6.99945241e+00  6.66308947e+00  6.31871790e+00
  5.96633768e+00  5.61195530e+00  5.25757292e+00  4.90719486e+00
  4.56282329e+00  4.22646035e+00  3.90211038e+00  3.59377769e+00
  3.30346444e+00  3.03717711e+00  2.80092220e+00  2.59870400e+00
  2.43853118e+00  2.32641020e+00  2.26634539e+00  2.26234107e+00
  2.31840156e+00  2.43052253e+00  2.59670184e+00  2.81493732e+00
  3.07722032e+00  3.37554221e+00  3.70790082e+00  4.06228320e+00
  4.43468503e+00  4.82110197e+00  5.21552755e+00  5.61595962e+00
  6.02039601e+00  6.42683455e+00  6.83127094e+00  7.23370517e+00
  7.63213507e+00  8.02455850e+00  8.40496896e+00  8.77336646e+00
  9.12174236e+00  9.44809449e+00  9.74441422e+00  1.00066972e+01
  1.02289370e+01  1.04071293e+01  1.05412740e+01  1.06273669e+01
  1.06654080e+01  1.06614037e+01  1.06173561e+01  1.05412740e+01]",-0.0656110622957089,9.801425738371682,4.707915000000001,0.017140000000000377
052,1,2,csp,63b.png,1,1,100,356,98,1,1,325,pos_feedback_onset,5,"[ 1.12163374e-01  5.08183570e-03 -1.09259468e-01 -2.19970888e-01
 -3.19792661e-01 -3.99650079e-01 -4.54098319e-01 -4.75877615e-01
 -4.63173026e-01 -4.15984551e-01 -3.37942074e-01 -2.29045595e-01
 -9.83698197e-02  4.86404275e-02  2.04725381e-01  3.60810335e-01
  5.13265406e-01  6.51200947e-01  7.67357191e-01  8.59919199e-01
  9.21627204e-01  9.48851324e-01  9.43406500e-01  9.05292732e-01
  8.38139903e-01  7.43762954e-01  6.29421651e-01  4.98745876e-01
  3.55365511e-01  2.01095499e-01  3.95657208e-02 -1.29223822e-01
 -3.07088072e-01 -4.95841969e-01 -7.00930339e-01 -9.25983063e-01
 -1.17281508e+00 -1.44868616e+00 -1.75359631e+00 -2.08754551e+00
 -2.45416366e+00 -2.84982087e+00 -3.27088725e+00 -3.71373294e+00
 -4.17472803e+00 -4.65024266e+00 -5.13483199e+00 -5.62486615e+00
 -6.11853019e+00 -6.61037929e+00 -7.09859850e+00 -7.57592807e+00
 -8.03873811e+00 -8.48339873e+00 -8.90083524e+00 -9.28741774e+00
 -9.63407153e+00 -9.93898167e+00 -1.01967033e+01 -1.04054216e+01
 -1.05633215e+01 -1.06740329e+01 -1.07430007e+01 -1.07756696e+01
 -1.07811144e+01 -1.07665949e+01 -1.07375559e+01 -1.07030720e+01
 -1.06685881e+01 -1.06341042e+01 -1.06032502e+01 -1.05760261e+01
 -1.05488020e+01 -1.05215778e+01 -1.04925388e+01 -1.04598698e+01
 -1.04235710e+01 -1.03818274e+01 -1.03346389e+01 -1.02856355e+01
 -1.02311872e+01 -1.01731091e+01 -1.01132160e+01 -1.00515080e+01
 -9.98798509e+00 -9.92083226e+00 -9.85367943e+00 -9.78289672e+00
 -9.71029907e+00 -9.63588647e+00 -9.55784399e+00 -9.47980152e+00
 -9.40175904e+00 -9.32553151e+00 -9.25293385e+00 -9.18759597e+00
 -9.13133278e+00 -9.09140407e+00 -9.06780984e+00 -9.06236501e+00
 -9.08051443e+00 -9.11681325e+00 -9.17489138e+00 -9.25293385e+00
 -9.34731080e+00 -9.45439234e+00 -9.57236353e+00 -9.69759448e+00
 -9.82645531e+00 -9.95713109e+00 -1.00823620e+01 -1.02021482e+01
 -1.03092297e+01 -1.04017917e+01 -1.04743894e+01 -1.05252077e+01
 -1.05506169e+01 -1.05488020e+01 -1.05197629e+01 -1.04671296e+01
 -1.03909021e+01 -1.02965251e+01 -1.01894436e+01 -1.00769172e+01
 -9.96802073e+00 -9.86638402e+00 -9.78108178e+00 -9.71574389e+00
 -9.67218530e+00 -9.65585083e+00 -9.66674047e+00 -9.70303930e+00
 -9.76293236e+00 -9.84278978e+00 -9.94261156e+00 -1.00569529e+01
 -1.01803689e+01 -1.03128596e+01 -1.04471652e+01 -1.05832858e+01
 -1.07121467e+01 -1.08337477e+01 -1.09408293e+01 -1.10315763e+01
 -1.10987292e+01 -1.11422878e+01 -1.11549924e+01 -1.11386579e+01
 -1.10896545e+01 -1.10079821e+01 -1.08990856e+01 -1.07611501e+01
 -1.06032502e+01 -1.04290158e+01 -1.02493366e+01 -1.00696574e+01
 -9.89905296e+00 -9.74841283e+00 -9.61955200e+00 -9.51791529e+00
 -9.44531763e+00 -9.39631422e+00 -9.36727516e+00 -9.34912574e+00
 -9.33279127e+00 -9.31101197e+00 -9.27289821e+00 -9.21119020e+00
 -9.12407302e+00 -9.00791677e+00 -8.86453641e+00 -8.69574687e+00
 -8.51062285e+00 -8.31097931e+00 -8.10226105e+00 -7.89172786e+00
 -7.67937973e+00 -7.46884653e+00 -7.26194322e+00 -7.05685485e+00
 -6.85358142e+00 -6.65575282e+00 -6.46155410e+00 -6.27280020e+00
 -6.08949113e+00 -5.91344182e+00 -5.74828216e+00 -5.58856732e+00
 -5.43792719e+00 -5.29273189e+00 -5.15298140e+00 -5.01686080e+00
 -4.88255515e+00 -4.74643455e+00 -4.60849901e+00 -4.46874853e+00
 -4.32536816e+00 -4.17472803e+00 -4.02045802e+00 -3.85892824e+00
 -3.69376858e+00 -3.52860892e+00 -3.36526420e+00 -3.21099419e+00
 -3.07124371e+00 -2.95327252e+00 -2.86615534e+00 -2.81170710e+00
 -2.79718757e+00 -2.82078180e+00 -2.88430475e+00 -2.98231158e+00
 -3.11298736e+00 -3.26725737e+00 -3.44149174e+00 -3.62843069e+00
 -3.82444436e+00 -4.02408790e+00 -4.22373145e+00 -4.42156005e+00
 -4.61394383e+00 -4.79906785e+00 -4.97693210e+00 -5.14390670e+00
 -5.29817671e+00 -5.43429731e+00 -5.55226850e+00 -5.64483050e+00
 -5.71016839e+00 -5.74646722e+00 -5.75009710e+00 -5.72287298e+00
 -5.66479486e+00 -5.58130756e+00 -5.48148578e+00 -5.37258930e+00
 -5.26369282e+00 -5.16750093e+00 -5.09308834e+00 -5.05134469e+00
 -5.04771481e+00 -5.08945846e+00 -5.17839058e+00 -5.31269624e+00
 -5.49056049e+00 -5.70472357e+00 -5.94792570e+00 -6.21109220e+00
 -6.48333339e+00 -6.75375965e+00 -7.01329626e+00 -7.25468346e+00
 -7.47066147e+00 -7.66123031e+00 -7.82276009e+00 -7.95706575e+00
 -8.06777717e+00 -8.15852423e+00 -8.23293683e+00 -8.29645978e+00]","[ -1.26264628  -1.10774272  -0.95283915  -0.80158038  -0.65578879
  -0.51546439  -0.38242956  -0.25850671  -0.14187344  -0.03252975
   0.07134676   0.17522327   0.28092217   0.39208825   0.51236632
   0.64175635   0.78208076   0.92969474   1.0845983    1.24132426
   1.39440543   1.54019702   1.67505424   1.79350991   1.89556402
   1.98121658   2.05046758   2.10878422   2.15616648   2.19990396
   2.24181904   2.28373412   2.33111639   2.38032105   2.4349929
   2.49330953   2.55527096   2.61905478   2.68466099   2.7520896
   2.81951821   2.88876922   2.95802022   3.02727123   3.09652223
   3.16577324   3.23502424   3.30427525   3.37352625   3.44277726
   3.51202826   3.57945687   3.64870788   3.71613649   3.7835651
   3.84917131   3.91295513   3.97309416   4.02594361   4.07150348
   4.10430659   4.12253054   4.12253054   4.09883941   4.04781235
   3.96944937   3.85828329   3.71795888   3.54665376   3.34619033
   3.12203576   2.87783485   2.61358759   2.33476118   2.043178
   1.73701566   1.41627417   1.08277591   0.7292313    0.35564036
  -0.04164172  -0.46261494  -0.90910168  -1.38110195  -1.87497096
  -2.38888631  -2.91555842  -3.45316491  -3.99441618  -4.53202267
  -5.06051718  -5.57078774  -6.05736717  -6.51478828  -6.9339391
  -7.31481962  -7.64831788  -7.93625627  -8.17681239  -8.37180864
  -8.52488981  -8.6360559   -8.71259648  -8.75815636  -8.7782027
  -8.7763803   -8.75633396  -8.72535325  -8.68343817  -8.6378783
  -8.59049603  -8.54311376  -8.50119868  -8.46657318  -8.44288204
  -8.43012528  -8.43194768  -8.44834923  -8.47932994  -8.52488981
  -8.58320645  -8.65063506  -8.72717564  -8.80736102  -8.89301358
  -8.98048853  -9.06978588  -9.15726083  -9.24291339  -9.32674355
  -9.41057372  -9.49258149  -9.57276686  -9.65112984  -9.72949282
  -9.8078558   -9.88621878  -9.96275936 -10.03929995 -10.11766292]",-0.11406906214721124,3.0942442391820366,5.5098199999999995,0.556589999999999
052,1,2,csm,60a.png,1,1,140,138,137,1,1,412,neu_feedback_onset,6,"[-0.49389112 -0.52600368 -0.53456703 -0.51958117 -0.48960945 -0.44251103
 -0.38256759 -0.31191997 -0.23484983 -0.14921635 -0.06144203  0.03275481
  0.12909248  0.22971182  0.332472    0.4416547   0.55511906  0.67500594
  0.805597    0.94475142  1.09461001  1.26159531  1.44356646  1.64480515
  1.86317054  2.10080346  2.35770391  2.62744939  2.91003988  3.19905289
  3.48592507  3.76851556  4.03826104  4.29302066  4.5263719   4.74045561
  4.93527179  5.11082043  5.26924238  5.41267847  5.54541037  5.66315641
  5.76805743  5.85797258  5.92862021  5.97571863  5.997127    5.98856365
  5.94574691  5.87081761  5.76163491  5.6224805   5.45549521  5.26710154
  5.05944034  4.84321579  4.6184279   4.39364     4.17313378  3.95905007
  3.75352971  3.56085437  3.37888321  3.2054754   3.04063095  2.87792733
  2.71522371  2.55037925  2.37483061  2.19071861  1.9937616   1.78395956
  1.5613125   1.32367959  1.07534248  0.82058286  0.55940074  0.29821861
  0.04131816 -0.20487811 -0.43608852 -0.64160888 -0.81929836 -0.95845277
 -1.05264961 -1.1040297  -1.1040297  -1.05907212 -0.97343863 -0.85141092
 -0.70369316 -0.54098954 -0.37400424 -0.21344146 -0.06786454  0.05630402
  0.15264169  0.22328931  0.26610605  0.28965526  0.29393694  0.28965526
  0.28109191  0.27681024  0.27681024  0.28537359  0.30678196  0.33461284
  0.37100707  0.41382381  0.45664056  0.50373897  0.55083739  0.60007664
  0.65145673  0.71140017  0.7820478   0.86554044  0.96830062  1.08604667
  1.22306024  1.37505968  1.5377633   1.70474859  1.86745221  2.02159248
  2.15860606  2.27207042  2.35770391  2.41764735  2.44333739  2.44119656
  2.41122484  2.34914056  2.26136624  2.14576104  2.00232495  1.82677631
  1.61911511  1.38148219  1.11387755  0.82058286  0.51016148  0.19331759
 -0.11924463 -0.41039847 -0.66729893 -0.87710096 -1.0291004  -1.11901556
 -1.14684644 -1.11473388 -1.03338207 -0.91349519 -0.76791827 -0.613778
 -0.45963773 -0.32048332 -0.20273727 -0.11496295 -0.05287868 -0.02290696
 -0.01648445 -0.02932947 -0.06144203 -0.09997709 -0.14707551 -0.19417393
 -0.23699067 -0.27766657 -0.31191997 -0.34189169 -0.36972257 -0.39755345
 -0.42538433 -0.45963773 -0.50031363 -0.54955289 -0.60521465 -0.66943976
 -0.73580571 -0.80003083 -0.8621151  -0.91563603 -0.95631194 -0.98414282
 -0.99698784 -0.99484701 -0.97772031 -0.94346691 -0.8963685  -0.83214338
 -0.75507325 -0.66301725 -0.55169372 -0.42752517 -0.28622992 -0.12994881
  0.03489564  0.20616261  0.37528875  0.53799237  0.68356929  0.80773784
  0.90193467  0.96401895  0.989709    0.98328648  0.94475142  0.88266714
  0.80345617  0.71140017  0.61934418  0.52942902  0.45021804  0.38385209
  0.332472    0.29607777  0.27895108  0.2746694   0.28751442  0.31748614
  0.36030289  0.41810549  0.49089395  0.57866827  0.67714678  0.78632947
  0.89979384  1.01968072  1.13956759  1.2551728   1.36649633  1.47139735
  1.57201669  1.66407269  1.75184701  1.83533965  1.9188323   2.00018411
  2.07939509  2.16288773  2.24423954  2.32987303  2.41336567  2.49899916
  2.58677348  2.67240696  2.76018129  2.84795561  2.93572993  3.02350425
  3.11127857  3.19691206  3.28468638  3.3724607   3.46023502  3.54800934
  3.63364283  3.72141715]","[ 0.67875866  0.57988032  0.47688204  0.37388376  0.26882551  0.16376727
  0.05870902 -0.04428926 -0.14110764 -0.2276262  -0.30178496 -0.35740403
 -0.39242345 -0.40066331 -0.38212362 -0.32856451 -0.23998599 -0.11226813
  0.05664905  0.27088548  0.53250111  0.84149595  1.19992996  1.60574318
  2.05275572  2.53684763  3.04565914  3.56683043  4.08594176  4.58445344
  5.0479457   5.45993882  5.80601304  6.07998846  6.27362523  6.38692334
  6.42606268  6.3951632   6.31070461  6.18504671  6.03054929  5.86163211
  5.69065497  5.52379775  5.3713603   5.23128264  5.1076847   5.00056649
  4.90580807  4.82134948  4.74719072  4.67715189  4.61329296  4.55149399
  4.49175499  4.43407595  4.37433695  4.31665791  4.26103884  4.2033598
  4.14568077  4.08800173  4.03238266  3.97470362  3.91702459  3.86140551
  3.80578644  3.75016737  3.69660827  3.64716909  3.59978988  3.55859057
  3.52357116  3.49885157  3.48649178  3.48855174  3.5029715   3.53387098
  3.57919023  3.63892923  3.70690809  3.78312682  3.85934555  3.92938438
  3.98912338  4.03238266  4.04886238  4.03238266  3.97470362  3.87170534
  3.71102803  3.49267167  3.20839642  2.8623222   2.45238905  1.98477685
  1.46772549  0.90947481  0.32650455 -0.26882551 -0.86003564 -1.43476604
 -1.97653699 -2.4791686  -2.93236103 -3.33199436 -3.68012854 -3.97676359
 -4.22601943 -4.43201599 -4.5988732  -4.730711   -4.82752938 -4.89344828
 -4.92640773 -4.92640773 -4.89550825 -4.83164931 -4.73689089 -4.61123299
 -4.46291547 -4.29399829 -4.10654142 -3.90466479 -3.69660827 -3.48237184
 -3.26401549 -3.04565914 -2.82730278 -2.60894643 -2.39059008 -2.17429369
 -1.96005727 -1.74376088 -1.52746449 -1.31322807 -1.10311158 -0.89917498
 -0.70759818 -0.52838118]",4.604673019243999,4.136462421077572,4.671069999999999,0.3316699999999999
052,1,2,csp,39b.png,1,0,340,265,339,1,1,410,pos_feedback_onset,7,"[-1.0352368  -1.07027368 -1.09706659 -1.10531056 -1.08676162 -1.03935878
 -0.95485807 -0.83325948 -0.67250202 -0.48082967 -0.25824243 -0.01092326
  0.25288384  0.52905691  0.80729097  1.08552503  1.35757611  1.62138321
  1.87488536  2.11602154  2.34479177  2.56325703  2.77141732  2.96721166
  3.14857905  3.31758048  3.46803297  3.60199751  3.71329114  3.79985285
  3.86168264  3.9008415   3.91526845  3.90702448  3.88023157  3.83901171
  3.78748689  3.72977908  3.6658883   3.59993652  3.53398474  3.47009396
  3.40826417  3.34643438  3.28872657  3.22895778  3.17331096  3.11560316
  3.05995635  3.00430954  2.94866272  2.89301591  2.8373691   2.78172229
  2.72607548  2.67248966  2.61684285  2.56325703  2.50967121  2.45814638
  2.40662156  2.35921872  2.31593787  2.276779    2.24174212  2.21494921
  2.19433928  2.18403431  2.18197332  2.1881563   2.20052226  2.22113219
  2.24380311  2.26647403  2.28502297  2.29120595  2.28090098  2.2479251
  2.1860953   2.09128963  1.95938607  1.79244564  1.59046832  1.35757611
  1.10201297  0.83408388  0.5620328   0.29822569  0.05090653 -0.17168072
 -0.36541406 -0.52823251 -0.66425805 -0.77761267 -0.87654033 -0.96928502
 -1.0640907  -1.16714035 -1.28461695 -1.41445951 -1.55666803 -1.70712052
 -1.85963401 -2.00802551 -2.14405105 -2.26771063 -2.37076028 -2.45526099
 -2.52121277 -2.57479859 -2.61395746 -2.64693335 -2.67784824 -2.70876314
 -2.74586101 -2.78914186 -2.84066669 -2.90043549 -2.96844826 -3.04264401
 -3.11477876 -3.18279153 -3.24256033 -3.28790218 -3.31675608 -3.32500005
 -3.31469509 -3.28584118 -3.23843834 -3.17866955 -3.10653479 -3.02409507
 -2.93959436 -2.85097166 -2.76234895 -2.67578725 -2.59334753 -2.51709078
 -2.44907801 -2.38930922 -2.33984538 -2.30274751 -2.2759546  -2.26152765
 -2.25740566 -2.26358864 -2.2759546  -2.29450354 -2.31717446 -2.33778439
 -2.35633333 -2.36663829 -2.37076028 -2.36869929 -2.35839432 -2.34396737
 -2.32541843 -2.3068695  -2.29244254 -2.28213758 -2.2759546  -2.2759546
 -2.28007659 -2.28832056 -2.30068652 -2.31717446 -2.33984538 -2.36869929
 -2.40991915 -2.46556596 -2.5418227  -2.64075037 -2.76647094 -2.91486244
 -3.09004685 -3.28378019 -3.49194049 -3.71040575 -3.92681002 -4.1390923
 -4.33694763 -4.51625402 -4.67495048 -4.80891503 -4.91608667 -4.9964654
 -5.04592923 -5.06860015 -5.05829519 -5.01501433 -4.9366966  -4.82540298
 -4.67907247 -4.50182707 -4.29366677 -4.06077456 -3.80933341 -3.54552631
 -3.2796582  -3.01997308 -2.77059293 -2.54388369 -2.34190638 -2.17496594
 -2.0410014  -1.94619572 -1.88642692 -1.85963401 -1.86375599 -1.8905489
 -1.93382976 -1.98535458 -2.0410014  -2.08840423 -2.12344112 -2.14199005
 -2.13786807 -2.11107516 -2.05748934 -1.9812326  -1.88436593 -1.76688932
 -1.63086378 -1.48041129 -1.31553185 -1.13828645 -0.9445531  -0.74051479
 -0.52204953 -0.29327931 -0.05420412  0.19105405  0.44043421  0.69187536
  0.93919452  1.1823917   1.41734491  1.64611513  1.86664139  2.08304565
  2.29326694  2.50142724  2.70958753  2.91774783  3.12384713  3.32788544
  3.52367978  3.70710816  3.8719876   4.01007413  4.11724577  4.18938053
  4.22441741  4.22441741  4.18938053  4.12961173  4.04717201  3.95236633
  3.85343866  3.754511  ]","[-1.77088091 -1.73248016 -1.65972085 -1.55462406 -1.42123198 -1.25954461
 -1.07562522 -0.87149492 -0.6451326  -0.40058046 -0.13581739  0.14511441
  0.44019386  0.74739986  1.06471133  1.38808607  1.7134819   2.03483554
  2.34810482  2.64520536  2.92209498  3.17271041  3.39098835  3.57086555
  3.71032091  3.80733333  3.86190282  3.88009265  3.86392391  3.82148098
  3.75882712  3.68404671  3.59916084  3.51225388  3.42534692  3.34046105
  3.25961737  3.18281587  3.10803546  3.03527614  2.96453792  2.89582079
  2.82912475  2.76040761  2.69371157  2.62701553  2.56031949  2.49362345
  2.42894851  2.36225247  2.29555643  2.22886039  2.16216435  2.09546831
  2.02877227  1.96207623  1.89538019  1.83070524  1.7640092   1.69731316
  1.63061712  1.56392108  1.49722504  1.43255009  1.36585405  1.30117911
  1.23650416  1.1738503   1.11523863  1.05864805  1.00609966  0.96365672
  0.92727706  0.90302396  0.89089741  0.8929185   0.91110833  0.94142471
  0.98588873  1.04045822  1.10311208  1.17182921  1.23852525  1.30117911
  1.35574859  1.40021262  1.42850791  1.44265555  1.44063446  1.42042354
  1.38404388  1.33149549  1.26884163  1.19406122  1.11119645  1.0202473
  0.92525597  0.82824355  0.72718894  0.62613434  0.52305864  0.41796185
  0.31084397  0.19564172  0.0723551  -0.05901589 -0.20251343 -0.36015862
 -0.53195145 -0.71587083 -0.91393786 -1.12413144 -1.34443048 -1.57281389
 -1.80726057 -2.04574944 -2.2882805  -2.52676937 -2.76525823 -2.99566274
 -3.21798287 -3.42413427 -3.61411692 -3.77984648 -3.91525965 -4.01833535
 -4.0830103  -4.1072634  -4.08705248 -4.02641972 -3.9273862  -3.78995194
 -3.62422238 -3.43019754 -3.22000396 -2.99566274 -2.76525823 -2.53687483
 -2.3125336  -2.10031893]",2.9619855724599304,2.4928150175228647,4.852030000000001,0.1248149999999999
052,1,2,csm,33a.png,1,1,208,231,208,1,1,345,neu_feedback_onset,8,"[ 0.18980178  0.07371507 -0.03540645 -0.13291929 -0.21650173 -0.28383202
 -0.33026671 -0.35348405 -0.35348405 -0.33026671 -0.28151029 -0.21417999
 -0.12827582 -0.02611951  0.08532374  0.20605392  0.33374931  0.46376643
  0.59842702  0.73540935  0.87239168  1.01401747  1.157965    1.30191253
  1.45282526  1.60605973  1.76393766  1.92413733  2.084337    2.2468584
  2.40473634  2.5579708   2.70191833  2.83425719  2.95266564  3.05250022
  3.13376092  3.19180428  3.22895203  3.24288243  3.2335955   3.20341295
  3.15465653  3.09429144  3.01999594  2.9433787   2.862118    2.78550077
  2.713527    2.64619671  2.58583162  2.53010999  2.48135357  2.43491888
  2.39080593  2.34669298  2.30025829  2.25614534  2.21203239  2.17024117
  2.13773689  2.11916301  2.11916301  2.14238036  2.19345851  2.27704095
  2.39312767  2.53939693  2.71120527  2.90158749  3.10590011  3.3148562
  3.51916882  3.71187277  3.89064631  4.04852425  4.18550657  4.29694982
  4.38981919  4.45947123  4.51054938  4.5453754   4.56162754  4.566271
  4.5593058   4.5453754   4.52680152  4.51054938  4.49661897  4.49197551
  4.49894071  4.51983632  4.55466233  4.60574049  4.66842732  4.74272281
  4.82862698  4.92149636  5.0190092   5.12116551  5.22564356  5.33476507
  5.44620832  5.56461677  5.68999042  5.82465101  5.97092028  6.13111995
  6.30292829  6.48866703  6.68369272  6.88568361  7.08767449  7.28502191
  7.46843892  7.6356038   7.77490786  7.8863511   7.9606466   8.00243782
  8.00475956  7.97225527  7.90724671  7.81205561  7.69364715  7.55434309
  7.4057521   7.2501959   7.0946397   6.94140523  6.79513597  6.65815364
  6.52813652  6.40740633  6.29131962  6.17987637  6.06843312  5.95698987
  5.84322489  5.72945991  5.61801666  5.50657341  5.3974519   5.29297385
  5.19313928  5.0933047   4.99347012  4.88667034  4.77058363  4.63592303
  4.48268857  4.30391502  4.0996024   3.86742897  3.61435993  3.34503874
  3.06410889  2.78317903  2.50689265  2.2468584   2.0100415   1.80572888
  1.63856401  1.51086862  1.42728618  1.3878167   1.3947819   1.44586006
  1.5364077   1.66410309  1.82430275  2.01236324  2.22364106  2.44884929
  2.68566619  2.92712656  3.16858693  3.41004731  3.64686421  3.88135938
  4.11353281  4.34570624  4.58020141  4.81701831  5.06312215  5.31619119
  5.57854717  5.85019009  6.12879821  6.41669327  6.71155353  7.01337899
  7.32216966  7.64024726  7.96993354  8.30890675  8.66413211  9.03328787
  9.41637403  9.8133906  10.22433758 10.64224976 11.06248368 11.48039586
 11.8890211  12.2813942  12.6528717  12.99648838 13.30760078 13.58388716
 13.8230258  14.02966016 14.20379023 14.34773776 14.46382448 14.56133732
 14.64027629 14.70296311 14.75404127 14.79118902 14.8167281  14.8236933
 14.81440636 14.78422382 14.73082393 14.65188496 14.55205038 14.42667673
 14.2827292  14.11788606 13.93679078 13.7417651  13.53513074 13.31688772
 13.08935775 12.85021911 12.60179354 12.34175929 12.07475985 11.80311693
 11.53379575 11.26911803 11.01837072 10.78619729 10.5772412  10.39846766
 10.24755492 10.12914647 10.0362771   9.9689468   9.92251212  9.89232957
  9.8737557   9.86446876  9.86214702  9.86446876  9.86679049  9.8737557
  9.8807209   9.8876861 ]","[ -2.11562874  -1.91940348  -1.71116442  -1.49291387  -1.26865642
  -1.03839207  -0.80212083  -0.5658496   -0.32357146  -0.07929103
   0.16699171   0.41327444   0.65755487   0.89182381   1.11608126
   1.31831342   1.4985203    1.6466904    1.76282372   1.84491797
   1.89697773   1.91900302   1.92100531   1.91099382   1.89898003
   1.88896854   1.89297313   1.91299612   1.9470352    1.99509036
   2.05115473   2.10121219   2.13725357   2.14526276   2.11322598
   2.03313404   1.89497543   1.69474557   1.43444674   1.11608126
   0.74165142   0.3191664   -0.14136228  -0.63192545  -1.13850701
  -1.65309776  -2.15967931  -2.64623788  -3.10075967  -3.51323319
  -3.86964235  -4.16798485  -4.40025149  -4.57044687  -4.678571
  -4.73263306  -4.73863996  -4.70460088  -4.64052733  -4.55242619
  -4.44830666  -4.33217333  -4.20803082  -4.07988371  -3.947732
  -3.81558029  -3.68142628  -3.54727227  -3.41111596  -3.27696195
  -3.14280794  -3.00665164  -2.87249763  -2.73834362  -2.60418961
  -2.4700356   -2.33588159  -2.20372988  -2.07358047  -1.94743566
  -1.82729774  -1.71316672  -1.60904719  -1.51894375  -1.446861
  -1.39480123  -1.37077365  -1.37678054  -1.41482422  -1.48890927
  -1.59903569  -1.74720579  -1.93141727  -2.15367242  -2.40996664
  -2.70230224  -3.02467232  -3.38108148  -3.76552282  -4.17599404
  -4.61249514  -5.06901923  -5.54356401  -6.03012258  -6.52268805
  -7.01525351  -7.50181208  -7.97635686  -8.43488325  -8.86938205
  -9.27584867  -9.65228082  -9.99467389 -10.30102558 -10.56933359
 -10.80360254 -11.0018301  -11.16802089 -11.3041772  -11.41430362
 -11.49840016 -11.56447602 -11.60852659 -11.63856107 -11.64857256
 -11.64256567 -11.61653578 -11.57048291 -11.50440706 -11.41630592
 -11.30617949 -11.18003468 -11.03987378 -10.88970138 -10.73952898
 -10.59336118 -10.45920717 -10.34107155 -10.24896581 -10.18088766]",13.526017935397714,0.5405705750201292,4.307125000000001,-0.02008999999999883
052,1,2,csp,30b.png,1,1,136,218,135,1,1,247,pos_feedback_onset,9,"[-0.09797781  0.01027276  0.10747735  0.18921758  0.25328425  0.29525896
  0.31735091  0.31735091  0.29525896  0.25107505  0.19142678  0.11631413
  0.03236471 -0.06042149 -0.1532077  -0.2482031  -0.33657091 -0.42052033
 -0.49563297 -0.56411803 -0.6259755  -0.67899619 -0.72759848 -0.76957319
 -0.80933871 -0.84689503 -0.88224216 -0.91538009 -0.94851802 -0.98165595
 -1.01258468 -1.04572261 -1.07665135 -1.10758008 -1.13850882 -1.16722835
 -1.1915295  -1.21362146 -1.23129502 -1.23792261 -1.23571341 -1.21803985
 -1.18048353 -1.12083525 -1.03688583 -0.92642606 -0.78945595 -0.62818469
 -0.44703068 -0.25483068 -0.06042149  0.12073252  0.27979459  0.39909114
  0.46978539  0.48304056  0.43222907  0.31735091  0.13840609 -0.09135023
 -0.36749964 -0.6745778  -1.0015387  -1.3373364  -1.67092489 -1.9956766
 -2.31159154 -2.60983291 -2.89481911 -3.16213174 -3.4161892  -3.65257311
 -3.87349264 -4.07232022 -4.24905585 -4.40149032 -4.52078687 -4.60694549
 -4.65775698 -4.66880296 -4.64229261 -4.57601675 -4.47660296 -4.34405124
 -4.18277999 -3.99941677 -3.79838    -3.58408805 -3.36316852 -3.14003979
 -2.91691106 -2.70040992 -2.48832716 -2.282872   -2.08404442 -1.89184442
 -1.70627202 -1.525118   -1.34838237 -1.17827433 -1.01921227 -0.87119618
 -0.74306285 -0.63923067 -0.56411803 -0.51993412 -0.50888815 -0.53318929
 -0.58620998 -0.66132262 -0.75410883 -0.85131342 -0.94851802 -1.03246744
 -1.10095249 -1.1473456  -1.16943755 -1.16943755 -1.15176399 -1.11641686
 -1.07002376 -1.01921227 -0.96840077 -0.91979848 -0.87782377 -0.84468584
 -0.82038469 -0.80492032 -0.80050193 -0.80050193 -0.80712952 -0.8137571
 -0.8159663  -0.8137571  -0.79608354 -0.76294561 -0.70550653 -0.6259755
 -0.51772493 -0.38296401 -0.22169275 -0.04053873  0.16049804  0.37258079
  0.58908194  0.80337388  1.01324744  1.20765663  1.38660145  1.54345432
  1.67821524  1.78204742  1.85716006  1.89913477  1.90576235  1.87925201
  1.81960374  1.73123592  1.61635777  1.48822444  1.35346352  1.2209118
  1.10603364  1.01766583  0.96685434  0.95801756  0.99778307  1.08615089
  1.223121    1.40648421  1.62961294  1.89029799  2.18412097  2.50224509
  2.84687957  3.2091876   3.58475081  3.97135999  4.35575998  4.73132319
  5.08921283  5.41838294  5.70778752  5.95300821  6.1474174   6.2865967
  6.37717371  6.41914842  6.42356681  6.39484727  6.34182658  6.27334153
  6.1938105   6.10323349  6.00602889  5.89777832  5.77627258  5.64151166
  5.48907719  5.32117834  5.13781513  4.94561513  4.74678755  4.54795997
  4.35796918  4.18344274  4.03100827  3.90508413  3.81008873  3.74823126
  3.72613931  3.73939448  3.79020597  3.8741554   3.99345195  4.13704964
  4.30494849  4.4861025   4.67167491  4.85282893  5.01630938  5.1532795
  5.25269329  5.30571397  5.30792317  5.25932087  5.15990708  5.01410019
  4.83073698  4.62086342  4.39773469  4.17018757  3.95368643  3.75485885
  3.58475081  3.44336231  3.33511174  3.25999909  3.21360599  3.19593243
  3.19814162  3.22023358  3.2577899   3.31081059  3.37708645  3.45882667
  3.55161288  3.65765425  3.7769508   3.90950252  4.05089102  4.19890711
  4.35575998  4.51703124  4.68051169  4.84399215  5.01189099  5.17758064
  5.34768868  5.51779673]","[-1.54776871e-01 -2.19145323e-01 -2.65958744e-01 -2.99118250e-01
 -3.22524960e-01 -3.40079992e-01 -3.57635025e-01 -3.71288939e-01
 -3.81041735e-01 -3.82992294e-01 -3.69338380e-01 -3.32277756e-01
 -2.64008185e-01 -1.54776871e-01  1.26786346e-03  2.11928255e-01
  4.77204303e-01  7.95145448e-01  1.16185057e+00  1.56756688e+00
  2.00059102e+00  2.44531851e+00  2.89004600e+00  3.31721846e+00
  3.71513254e+00  4.07208486e+00  4.37832266e+00  4.62799423e+00
  4.82109959e+00  4.95763873e+00  5.04151278e+00  5.07857340e+00
  5.07272172e+00  5.03566110e+00  4.96934209e+00  4.88546804e+00
  4.78403896e+00  4.67480765e+00  4.55777410e+00  4.43488887e+00
  4.31200364e+00  4.18521730e+00  4.05843095e+00  3.93164460e+00
  3.80290770e+00  3.67612135e+00  3.54738445e+00  3.41864754e+00
  3.29186119e+00  3.16312429e+00  3.03633794e+00  2.90760104e+00
  2.77886413e+00  2.65207778e+00  2.52334088e+00  2.39655453e+00
  2.26781763e+00  2.13908072e+00  2.01229437e+00  1.88355747e+00
  1.75482056e+00  1.62413310e+00  1.49344563e+00  1.36080761e+00
  1.22426847e+00  1.08382821e+00  9.35585709e-01  7.79540975e-01
  6.11792886e-01  4.32341441e-01  2.35334965e-01  2.46745736e-02
 -2.05491409e-01 -4.51261865e-01 -7.12636795e-01 -9.85715080e-01
 -1.26854616e+00 -1.55722892e+00 -1.84981280e+00 -2.14044611e+00
 -2.42912887e+00 -2.71195995e+00 -2.99088991e+00 -3.26396820e+00
 -3.53314536e+00 -3.79647085e+00 -4.05589522e+00 -4.31336904e+00
 -4.56694173e+00 -4.81856386e+00 -5.06628488e+00 -5.31205533e+00
 -5.55392467e+00 -5.78994233e+00 -6.01815776e+00 -6.23857094e+00
 -6.44728077e+00 -6.64428725e+00 -6.82763981e+00 -6.99538790e+00
 -7.15143264e+00 -7.29382346e+00 -7.42451092e+00 -7.54544559e+00
 -7.66247914e+00 -7.77561157e+00 -7.88679345e+00 -7.99992588e+00
 -8.11305831e+00 -8.22619074e+00 -8.33542206e+00 -8.44270281e+00
 -8.54023077e+00 -8.62605537e+00 -8.69627550e+00 -8.74894060e+00
 -8.78210011e+00 -8.79380346e+00 -8.78600123e+00 -8.75869340e+00
 -8.71578110e+00 -8.65921488e+00 -8.59094531e+00 -8.51487350e+00
 -8.43099946e+00 -8.34322429e+00 -8.25349857e+00 -8.16182229e+00
 -8.06819545e+00 -7.97456861e+00 -7.88094177e+00 -7.78731493e+00
 -7.69173753e+00 -7.59811069e+00 -7.50253329e+00 -7.40890645e+00
 -7.31332905e+00 -7.21970221e+00 -7.12607537e+00 -7.03049797e+00]",4.716300658229751,3.2411954196969233,4.526535,0.7692050000000004
052,1,2,csm,44a.png,1,1,104,87,104,1,1,334,neu_feedback_onset,10,"[-2.59028212e-02 -3.66956634e-02 -4.31713687e-02 -4.74885056e-02
 -4.96470741e-02 -5.18056425e-02 -5.18056425e-02 -4.96470741e-02
 -4.53299372e-02 -3.66956634e-02 -2.59028212e-02 -1.07928422e-02
  6.47570531e-03  2.59028212e-02  4.53299372e-02  6.25984847e-02
  7.55498953e-02  8.41841691e-02  8.85013059e-02  8.63427375e-02
  7.77084637e-02  6.69156216e-02  5.39642109e-02  4.31713687e-02
  3.45370950e-02  3.23785266e-02  3.45370950e-02  4.31713687e-02
  5.61227794e-02  7.33913269e-02  9.06598744e-02  1.07928422e-01
  1.20879832e-01  1.31672675e-01  1.38148380e-01  1.40306948e-01
  1.38148380e-01  1.31672675e-01  1.25196969e-01  1.14404127e-01
  1.03611285e-01  9.06598744e-02  7.55498953e-02  5.82813478e-02
  3.66956634e-02  1.51099791e-02 -1.07928422e-02 -3.88542319e-02
 -6.90741900e-02 -1.01452717e-01 -1.38148380e-01 -1.74844043e-01
 -2.13698275e-01 -2.52552507e-01 -2.95723876e-01 -3.41053813e-01
 -3.88542319e-01 -4.38189393e-01 -4.89995035e-01 -5.41800678e-01
 -5.97923457e-01 -6.51887668e-01 -7.08010447e-01 -7.66291795e-01
 -8.22414575e-01 -8.76378786e-01 -9.32501565e-01 -9.88624344e-01
 -1.04474712e+00 -1.10302847e+00 -1.16130982e+00 -1.21959117e+00
 -1.28003108e+00 -1.34262957e+00 -1.40522805e+00 -1.46782654e+00
 -1.53258359e+00 -1.59734064e+00 -1.65993913e+00 -1.72469618e+00
 -1.78729467e+00 -1.85205172e+00 -1.91465020e+00 -1.98156583e+00
 -2.05064002e+00 -2.12187277e+00 -2.19526410e+00 -2.27513113e+00
 -2.35931530e+00 -2.44565804e+00 -2.53847648e+00 -2.63345349e+00
 -2.73058907e+00 -2.82988322e+00 -2.93133594e+00 -3.03494722e+00
 -3.13639994e+00 -3.24001122e+00 -3.34146394e+00 -3.44075809e+00
 -3.53357653e+00 -3.62207784e+00 -3.69978630e+00 -3.76886049e+00
 -3.82498327e+00 -3.87031321e+00 -3.90269173e+00 -3.92643599e+00
 -3.93938740e+00 -3.94586310e+00 -3.95018024e+00 -3.95018024e+00
 -3.95233881e+00 -3.95665595e+00 -3.96744879e+00 -3.98471734e+00
 -4.00846159e+00 -4.04084011e+00 -4.07753578e+00 -4.12070715e+00
 -4.16387852e+00 -4.20489132e+00 -4.24158698e+00 -4.27180694e+00
 -4.28907549e+00 -4.29555119e+00 -4.28907549e+00 -4.27180694e+00
 -4.24158698e+00 -4.20273275e+00 -4.15524424e+00 -4.10343860e+00
 -4.04515725e+00 -3.98471734e+00 -3.92427742e+00 -3.85952037e+00
 -3.79476331e+00 -3.73000626e+00 -3.66524921e+00 -3.60049215e+00
 -3.53789367e+00 -3.47529518e+00 -3.41269670e+00 -3.35441535e+00
 -3.30260971e+00 -3.25512120e+00 -3.21626697e+00 -3.18820558e+00
 -3.17525417e+00 -3.17957131e+00 -3.19899842e+00 -3.24001122e+00
 -3.29613400e+00 -3.37168390e+00 -3.46018521e+00 -3.55947935e+00
 -3.66524921e+00 -3.77317763e+00 -3.88326462e+00 -3.98903447e+00
 -4.09480433e+00 -4.19409847e+00 -4.29339262e+00 -4.39052820e+00
 -4.48766378e+00 -4.58479936e+00 -4.68193494e+00 -4.77475338e+00
 -4.86541326e+00 -4.94959743e+00 -5.02946446e+00 -5.09853865e+00
 -5.16113713e+00 -5.21294278e+00 -5.25395558e+00 -5.28417553e+00
 -5.30576122e+00 -5.31223692e+00 -5.30360265e+00 -5.27554126e+00
 -5.22157705e+00 -5.13955145e+00 -5.02298875e+00 -4.86757183e+00
 -4.67330067e+00 -4.44233384e+00 -4.17682993e+00 -3.88542319e+00
 -3.57674790e+00 -3.25727977e+00 -2.94212878e+00 -2.63777063e+00
 -2.35283960e+00 -2.09381138e+00 -1.86068599e+00 -1.65778056e+00
 -1.48293652e+00 -1.33183673e+00 -1.19584691e+00 -1.07496708e+00
 -9.56245818e-01 -8.37524554e-01 -7.08010447e-01 -5.61227794e-01
 -3.90700887e-01 -1.92112591e-01  4.31713687e-02  3.19468129e-01
  6.38936257e-01  1.00373432e+00  1.41602089e+00  1.87363740e+00
  2.37442528e+00  2.90975025e+00  3.47313662e+00  4.05810866e+00
  4.65171498e+00  5.24316273e+00  5.81734194e+00  6.36345975e+00
  6.86640620e+00  7.31538843e+00  7.70177218e+00  8.01908174e+00
  8.26084141e+00  8.43136832e+00  8.53713817e+00  8.58246811e+00
  8.58246811e+00  8.54577244e+00  8.48533253e+00  8.41409977e+00
  8.33854987e+00  8.26299998e+00  8.19608436e+00  8.13780301e+00
  8.08815593e+00  8.04714313e+00  8.01260604e+00  7.98454465e+00
  7.95864183e+00  7.93705614e+00  7.91762903e+00  7.90036048e+00
  7.88525050e+00  7.87229909e+00  7.86150625e+00  7.85718911e+00
  7.85718911e+00  7.86366482e+00  7.87877480e+00  7.90251905e+00
  7.93489758e+00  7.97806894e+00  8.02555745e+00  8.07736309e+00
  8.12701017e+00  8.17234010e+00  8.20471863e+00  8.22198718e+00]","[-0.22012313 -0.19015984 -0.1687575  -0.15591609 -0.15805632 -0.17303797
 -0.19872078 -0.23296454 -0.26934852 -0.29717157 -0.31215322 -0.30145204
 -0.25650712 -0.1751782  -0.04676413  0.12659488  0.34275857  0.59958672
  0.88851839  1.19885241  1.52202783  1.84520325  2.16195797  2.46159081
  2.73982131  2.98808852  3.20639245  3.39045263  3.53812881  3.64942101
  3.72004875  3.75215227  3.74359134  3.69650617  3.61089679  3.49104365
  3.34122723  3.17000846  2.97952759  2.78048577  2.57288301  2.36528026
  2.1576775   1.95007475  1.74247199  1.532729    1.31442507  1.08970044
  0.85427464  0.60814766  0.35131951  0.08593042 -0.18159891 -0.44698799
 -0.70167591 -0.93924195 -1.15754588 -1.34802676 -1.50854435 -1.6412389
 -1.74611039 -1.82743931 -1.88736587 -1.93017057 -1.96013385 -1.9815362
 -1.99651784 -2.00507878 -2.01149948 -2.01792018 -2.02006042 -2.02220065
 -2.02434089 -2.02220065 -2.01792018 -2.00935925 -1.9943776  -1.97297526
 -1.94301197 -1.90448775 -1.85740259 -1.80175649 -1.74182992 -1.67976312
 -1.62411702 -1.57917209 -1.55134904 -1.54920881 -1.57703186 -1.63695843
 -1.72898851 -1.84884165 -1.99651784 -2.15917567 -2.3346749  -2.50803391
 -2.67711244 -2.83334956 -2.97246481 -3.09231795 -3.19290897 -3.27637812
 -3.3427254  -3.40051173 -3.44759689 -3.49254182 -3.53748674 -3.58029144
 -3.62309613 -3.66590082 -3.70870551 -3.74722973 -3.78361372 -3.81357701
 -3.84140006 -3.8628024  -3.88420475 -3.90346686 -3.9248692  -3.95055202
 -3.9805153  -4.01689929 -4.05970398 -4.10678915 -4.15601454 -4.20738017
 -4.25660557 -4.29941026 -4.33793448 -4.36789777 -4.38930011 -4.40428175
 -4.41284269 -4.41712316 -4.41498293 -4.41070246 -4.40214152 -4.39358058
 -4.38501964 -4.37431847]",6.457141623675183,2.0175991490427587,4.6327,-0.26258999999999943
052,1,2,csm,18a.png,1,1,144,314,NaN,0,1,476,neu_feedback_onset,11,"[-0.5150432  -0.54431342 -0.56457741 -0.57133208 -0.56232586 -0.53305564
 -0.48352143 -0.41147167 -0.31690636 -0.20432861 -0.07598998  0.06135487
  0.20320284  0.34054769  0.47113788  0.58821874  0.6850356   0.76158847
  0.81787735  0.85390223  0.87191467  0.87416622  0.86516     0.84714756
  0.82688357  0.80887113  0.78860713  0.7750978   0.76158847  0.75258225
  0.74132448  0.72556359  0.7052996   0.67828094  0.63775295  0.58821874
  0.52292364  0.44862233  0.36306324  0.27074949  0.17393262  0.0748642
 -0.02420422 -0.11876953 -0.20883172 -0.2898877  -0.36193746 -0.424981
 -0.48126988 -0.52855253 -0.56682897 -0.60285385 -0.63437562 -0.66139428
 -0.69066449 -0.7199347  -0.75145647 -0.7852298  -0.82575779 -0.87078889
 -0.92257465 -0.98111508 -1.04641018 -1.11620838 -1.19276125 -1.27156568
 -1.3503701  -1.43142608 -1.50797895 -1.58228026 -1.65207847 -1.71512201
 -1.77141088 -1.81869354 -1.85696997 -1.88624018 -1.90425262 -1.91325884
 -1.91325884 -1.90200107 -1.88173707 -1.85246686 -1.81644198 -1.77366244
 -1.72863134 -1.67909713 -1.63406603 -1.58903493 -1.55075849 -1.51698517
 -1.49221806 -1.47195407 -1.46069629 -1.45169007 -1.44943852 -1.44718696
 -1.44718696 -1.44943852 -1.44943852 -1.44718696 -1.44268385 -1.43592919
 -1.42241986 -1.40440742 -1.37738876 -1.34136388 -1.29633278 -1.23779235
 -1.1702457  -1.08693817 -0.99237286 -0.88204666 -0.75821114 -0.62086629
 -0.4700121  -0.30339703 -0.12327264  0.07036109  0.27300104  0.48464721
  0.69854493  0.9101911   1.11283105  1.29971011  1.46632518  1.60592159
  1.71624778  1.79505221  1.84458642  1.86259886  1.85809575  1.83107709
  1.78604599  1.72975711  1.66446202  1.59241226  1.5203625   1.44831274
  1.38076609  1.315471    1.26143368  1.21415102  1.1803777   1.15786215
  1.15110748  1.15786215  1.17812614  1.20739636  1.24792435  1.29295545
  1.3402381   1.38301765  1.42129408  1.44831274  1.46407363  1.46407363
  1.4505643   1.42129408  1.37851454  1.32222566  1.25693057  1.18488081
  1.10832794  1.03177507  0.95747376  0.89217866  0.83588979  0.79311024
  0.76609158  0.75483381  0.76158847  0.78410402  0.82238046  0.87416622
  0.93946132  1.01151107  1.09256705  1.1803777   1.27494301  1.37175987
  1.47307985  1.58115448  1.69373223  1.81306465  1.93690017  2.06974192
  2.20933832  2.35118629  2.49978892  2.64613999  2.79023951  2.92758436
  3.055923    3.16850075  3.26531761  3.34637359  3.40716557  3.45219667
  3.48146689  3.49947933  3.50848555  3.51749177  3.52874954  3.54676198
  3.58278686  3.63907574  3.72013172  3.83496102  3.98356365  4.17269427
  4.39784976  4.66353325  4.96749317  5.30072331  5.66322366  6.04598801
  6.44001013  6.83628381  7.22580282  7.59730939  7.9417973   8.25251189
  8.52495004  8.7523571   8.9369846   9.08108412  9.19141032  9.2724663
  9.33776139  9.39405027  9.45484225  9.52689201  9.61920576  9.73628662
  9.88038614 10.05375588 10.25414427 10.47929977 10.72471926 10.98589964
 11.26058934 11.54653683 11.84149053 12.1431989  12.45391348 12.77588585
 13.11361909 13.47161634 13.85663224 14.27316991 14.73023557 15.23458388
 15.79071796 16.40314092 17.07635586 17.80135656 18.57589148 19.38870282
 20.22628128 21.07286595]","[-1.11612893 -1.05438439 -0.97527421 -0.88458692 -0.78618157 -0.68584671
 -0.5816528  -0.47359987 -0.3616879  -0.24205787 -0.11470977  0.02614495
  0.18050629  0.35030375  0.53939639  0.74585467  0.97160813  1.21665675
  1.48100053  1.76463948  2.06178505  2.37243724  2.68887798  3.0033892
  3.31018235  3.59960985  3.86588315  4.09935467  4.29616538  4.45631526
  4.57594529  4.65891451  4.70908195  4.73030663  4.72837711  4.71101146
  4.6801392   4.63961934  4.59524046  4.54700254  4.49490559  4.44280864
  4.39071169  4.33861474  4.28651779  4.23442084  4.18232389  4.12829742
  4.07620047  4.02410352  3.97200657  3.91990962  3.86588315  3.8137862
  3.76168925  3.7095923   3.65749535  3.6053984   3.55137193  3.49927498
  3.44717803  3.39508108  3.34105462  3.28895767  3.2349312   3.17897521
  3.12301923  3.06320421  2.99760065  2.92813805  2.84902786  2.75834058
  2.65414668  2.53258712  2.39366192  2.23351204  2.05406699  1.85532677
  1.64115042  1.41539696  1.18192545  0.95038344  0.72077096  0.50273557
  0.29434777  0.09946659 -0.0838375  -0.25556448 -0.42150292 -0.5816528
 -0.73987317 -0.90195257 -1.06596149 -1.23768848 -1.41134498 -1.59079003
 -1.7721646  -1.95353917 -2.12912519 -2.29892265 -2.45907254 -2.60957484
 -2.74850004 -2.87391863 -2.99161914 -3.09967208 -3.19807743 -3.29262375
 -3.38138151 -3.46628025 -3.54924947 -3.62643013 -3.69975177 -3.76535533
 -3.82131132 -3.86376069 -3.8888444  -3.89077392 -3.86761972 -3.81359325
 -3.73062403 -3.61678255 -3.47978687 -3.32349601 -3.15755758 -2.99161914
 -2.83532829 -2.70026212 -2.59220919 -2.51888756 -2.48608577 -2.49380384
 -2.53818272 -2.61922242 -2.73113439 -2.86234153 -3.00898479 -3.16141661
 -3.31191891 -3.45277363]",14.953461162686912,3.543895057446555,4.441375,
052,1,2,csp,57b.png,1,1,224,221,223,1,1,254,pos_feedback_onset,12,"[ 2.18661957e+00  2.03238677e+00  1.85702620e+00  1.66053785e+00
  1.44503450e+00  1.21262892e+00  9.63321118e-01  7.01336649e-01
  4.28788290e-01  1.45676041e-01 -1.41661763e-01 -4.28999568e-01
 -7.09999039e-01 -9.82547398e-01 -1.23608075e+00 -1.47059911e+00
 -1.67765135e+00 -1.85512470e+00 -2.00513194e+00 -2.12556028e+00
 -2.21852251e+00 -2.29035696e+00 -2.34317641e+00 -2.38120642e+00
 -2.40655975e+00 -2.42346198e+00 -2.43613864e+00 -2.44247698e+00
 -2.44458976e+00 -2.44247698e+00 -2.43191309e+00 -2.41501086e+00
 -2.38965753e+00 -2.35162753e+00 -2.30514641e+00 -2.24598863e+00
 -2.18049251e+00 -2.10443250e+00 -2.02414694e+00 -1.93752304e+00
 -1.85089915e+00 -1.76427525e+00 -1.67976413e+00 -1.59736579e+00
 -1.52130578e+00 -1.45369689e+00 -1.39665188e+00 -1.35439632e+00
 -1.33115576e+00 -1.33326854e+00 -1.36073466e+00 -1.42200522e+00
 -1.51285467e+00 -1.63750857e+00 -1.78751581e+00 -1.96076360e+00
 -2.14668806e+00 -2.33895086e+00 -2.52910088e+00 -2.70446145e+00
 -2.86080702e+00 -2.99391203e+00 -3.09743815e+00 -3.17349816e+00
 -3.21997927e+00 -3.24533261e+00 -3.24744539e+00 -3.23688150e+00
 -3.21152816e+00 -3.17983649e+00 -3.14603204e+00 -3.10800204e+00
 -3.07419759e+00 -3.04250592e+00 -3.01715259e+00 -3.00025036e+00
 -2.99391203e+00 -2.99602481e+00 -3.01081425e+00 -3.03828037e+00
 -3.07631037e+00 -3.12701704e+00 -3.18406205e+00 -3.24744539e+00
 -3.31505428e+00 -3.37843762e+00 -3.43336985e+00 -3.47773819e+00
 -3.50097874e+00 -3.50309152e+00 -3.47562541e+00 -3.42069318e+00
 -3.33618206e+00 -3.22420483e+00 -3.08898704e+00 -2.93475425e+00
 -2.76573201e+00 -2.58825866e+00 -2.40867253e+00 -2.23542474e+00
 -2.06851528e+00 -1.91216971e+00 -1.76850080e+00 -1.63539579e+00
 -1.51285467e+00 -1.39031355e+00 -1.26777242e+00 -1.13255463e+00
 -9.82547398e-01 -8.11412382e-01 -6.19149586e-01 -4.05759010e-01
 -1.79691767e-01  5.48265885e-02  2.80893832e-01  4.90058851e-01
  6.71757757e-01  8.15426660e-01  9.18952780e-01  9.75997786e-01
  9.90787232e-01  9.67546674e-01  9.16840002e-01  8.49231107e-01
  7.73171100e-01  7.01336649e-01  6.37953310e-01  5.93584972e-01
  5.66118859e-01  5.61893303e-01  5.72457192e-01  5.97810528e-01
  6.33727754e-01  6.73870535e-01  7.11900539e-01  7.47817764e-01
  7.77396656e-01  8.00637214e-01  8.17539438e-01  8.32328883e-01
  8.42892773e-01  8.53456663e-01  8.64020553e-01  8.70358887e-01
  8.68246109e-01  8.57682219e-01  8.25990550e-01  7.73171100e-01
  6.92885537e-01  5.85133860e-01  4.47803292e-01  2.89344944e-01
  1.13984372e-01 -6.56017561e-02 -2.38849550e-01 -3.93082342e-01
 -5.19849021e-01 -6.08585696e-01 -6.57179589e-01 -6.61405145e-01
 -6.25487920e-01 -5.57879024e-01 -4.67029571e-01 -3.63503451e-01
 -2.57864552e-01 -1.62789543e-01 -8.67295359e-02 -3.39100865e-02
 -1.06695288e-02 -1.27823068e-02 -3.81356425e-02 -8.25039799e-02
 -1.37436207e-01 -1.96593991e-01 -2.47300662e-01 -2.83217888e-01
 -2.98007333e-01 -2.85330666e-01 -2.40962328e-01 -1.62789543e-01
 -5.08123103e-02  8.86310361e-02  2.53427718e-01  4.33013846e-01
  6.21051086e-01  8.09088326e-01  9.82336120e-01  1.13445613e+00
  1.25699726e+00  1.34362115e+00  1.38798949e+00  1.39221505e+00
  1.35841060e+00  1.28657615e+00  1.18727558e+00  1.06473446e+00
  9.27403892e-01  7.81622212e-01  6.35840532e-01  4.92171629e-01
  3.56953839e-01  2.30187160e-01  1.13984372e-01  8.34547300e-03
 -8.46167579e-02 -1.67015099e-01 -2.36736772e-01 -2.91669000e-01
 -3.29699003e-01 -3.48714005e-01 -3.46601227e-01 -3.23360669e-01
 -2.76879554e-01 -2.07157881e-01 -1.14195650e-01 -2.21841687e-03
  1.28773818e-01  2.76668276e-01  4.35126624e-01  6.04148862e-01
  7.81622212e-01  9.59095562e-01  1.14079447e+00  1.31826782e+00
  1.48940283e+00  1.65208674e+00  1.80209397e+00  1.93942454e+00
  2.05774011e+00  2.15915345e+00  2.23943902e+00  2.30282235e+00
  2.35141625e+00  2.38522070e+00  2.41057403e+00  2.43381459e+00
  2.46128070e+00  2.49508515e+00  2.54156627e+00  2.60494960e+00
  2.68946072e+00  2.79509962e+00  2.92397908e+00  3.06976076e+00
  3.23033189e+00  3.39935412e+00  3.57048914e+00  3.73528582e+00
  3.88951861e+00  4.02473640e+00  4.13882642e+00  4.22967587e+00
  4.29517199e+00  4.33742754e+00  4.35855532e+00  4.36489366e+00
  4.35855532e+00  4.34587866e+00  4.32686366e+00  4.30996143e+00]","[ -0.92436004  -0.93004142  -0.9092097   -0.85807731  -0.77664424
  -0.66680428  -0.53234503  -0.37894785  -0.21229412  -0.0437466
   0.12290712   0.27819809   0.41833873   0.54143523   0.64180622
   0.72513309   0.7952034    0.85201717   0.90314957   0.95428196
   1.00920194   1.0679095    1.13608602   1.20805013   1.28569562
   1.36144731   1.43341142   1.49590657   1.54703896   1.58491481
   1.60764032   1.61900307   1.61900307   1.60764032   1.59059618
   1.57165826   1.54703896   1.52431345   1.49969415   1.47696864
   1.45424314   1.43151763   1.41068591   1.3898542    1.36902248
   1.34819077   1.32925284   1.31031492   1.291377     1.27433286
   1.26107632   1.24781977   1.24213839   1.2402446    1.24403219
   1.25728873   1.28190803   1.3141025    1.35765973   1.4125797
   1.47128727   1.53567621   1.59817135   1.65119754   1.68907339
   1.70422373   1.68339201   1.62279065   1.51484449   1.35387214
   1.13797982   0.86527372   0.53764764   0.16078297  -0.26153272
  -0.71983047  -1.2065351   -1.71217765  -2.22539538  -2.74050689
  -3.24993703  -3.74232304  -4.21766492  -4.66838749  -5.09259698
  -5.49218716  -5.86337046  -6.20993446  -6.53187915  -6.83299214
  -7.11516719  -7.37840433  -7.62459733  -7.85185241  -8.06206336
  -8.2514426   -8.41999011  -8.56202454  -8.67943966  -8.77223549
  -8.83662443  -8.88018165  -8.90101337  -8.90480095  -8.89533199
  -8.87450028  -8.84988098  -8.82147409  -8.794961    -8.7703417
  -8.74950998  -8.73246585  -8.71731551  -8.70216517  -8.68701483
  -8.66428933  -8.63588244  -8.5961128   -8.5468742   -8.48627285
  -8.42188391  -8.35560117  -8.29499982  -8.2495488   -8.2249295
  -8.23061088  -8.27038052  -8.34613221  -8.46354734  -8.61694452
  -8.80442996  -9.02221608  -9.26083391  -9.51460209  -9.77594543
 -10.03918256 -10.29863211 -10.55240029 -10.79480571 -11.02584837]",3.5572208941065098,0.20254109055924294,4.733105,0.2892249999999992
052,1,2,csm,28a.png,1,1,16,45,14,1,1,512,neu_feedback_onset,13,"[-8.52608432e-01 -7.69901175e-01 -6.80990874e-01 -5.85877529e-01
 -4.88696503e-01 -3.85312432e-01 -2.81928361e-01 -1.80611972e-01
 -8.13632637e-02  1.58177628e-02  1.06795745e-01  1.89503002e-01
  2.68074896e-01  3.40443745e-01  4.06609550e-01  4.70707674e-01
  5.32738117e-01  5.94768559e-01  6.58866683e-01  7.22964807e-01
  7.89130612e-01  8.55296418e-01  9.23529904e-01  9.87628028e-01
  1.04759079e+00  1.10135051e+00  1.14270413e+00  1.16958399e+00
  1.17785472e+00  1.16544863e+00  1.13029805e+00  1.07240297e+00
  9.87628028e-01  8.80108595e-01  7.53980028e-01  6.11310011e-01
  4.58301586e-01  2.99090117e-01  1.41946329e-01 -6.92673274e-03
 -1.45461388e-01 -2.71589954e-01 -3.85312432e-01 -4.88696503e-01
 -5.83809848e-01 -6.78923193e-01 -7.78171901e-01 -8.85691334e-01
 -1.00354918e+00 -1.13588079e+00 -1.27855080e+00 -1.42949155e+00
 -1.58249997e+00 -1.73757608e+00 -1.88644914e+00 -2.02705148e+00
 -2.15938309e+00 -2.27930861e+00 -2.39096341e+00 -2.49227979e+00
 -2.58739314e+00 -2.67630344e+00 -2.76107838e+00 -2.84171795e+00
 -2.92235753e+00 -3.00092942e+00 -3.07950132e+00 -3.15600553e+00
 -3.23457742e+00 -3.31108164e+00 -3.38965353e+00 -3.46615774e+00
 -3.54472964e+00 -3.62123385e+00 -3.69773806e+00 -3.77630995e+00
 -3.85281417e+00 -3.93138606e+00 -4.00789027e+00 -4.08439448e+00
 -4.16296638e+00 -4.23947059e+00 -4.31804248e+00 -4.39454670e+00
 -4.47105091e+00 -4.54962280e+00 -4.62612702e+00 -4.70469891e+00
 -4.78120312e+00 -4.85770733e+00 -4.93627923e+00 -5.01278344e+00
 -5.09135533e+00 -5.16785955e+00 -5.24436376e+00 -5.32293565e+00
 -5.39943987e+00 -5.47594408e+00 -5.55451597e+00 -5.63102018e+00
 -5.70959208e+00 -5.78609629e+00 -5.86466818e+00 -5.94117240e+00
 -6.01974429e+00 -6.09624850e+00 -6.17482040e+00 -6.25339229e+00
 -6.33196418e+00 -6.41260376e+00 -6.49531102e+00 -6.57801827e+00
 -6.66486089e+00 -6.75377119e+00 -6.84474917e+00 -6.93986252e+00
 -7.03911123e+00 -7.14249530e+00 -7.24794705e+00 -7.35753417e+00
 -7.47125664e+00 -7.58704680e+00 -7.70697233e+00 -7.82689785e+00
 -7.95095873e+00 -8.07501962e+00 -8.20321586e+00 -8.33347979e+00
 -8.46581140e+00 -8.60021070e+00 -8.73460999e+00 -8.87107696e+00
 -9.00754394e+00 -9.14194323e+00 -9.27220716e+00 -9.39833572e+00
 -9.51619356e+00 -9.62578068e+00 -9.72709707e+00 -9.82014273e+00
 -9.90698535e+00 -9.98762493e+00 -1.00641291e+01 -1.01364980e+01
 -1.02067992e+01 -1.02729650e+01 -1.03370631e+01 -1.03928905e+01
 -1.04383795e+01 -1.04714624e+01 -1.04880038e+01 -1.04880038e+01
 -1.04693947e+01 -1.04321764e+01 -1.03804844e+01 -1.03184540e+01
 -1.02481528e+01 -1.01757839e+01 -1.01075504e+01 -1.00455200e+01
 -9.99382797e+00 -9.95247434e+00 -9.92145912e+00 -9.90078231e+00
 -9.88630854e+00 -9.87597013e+00 -9.86563172e+00 -9.85322563e+00
 -9.83461650e+00 -9.81187201e+00 -9.78499215e+00 -9.74984156e+00
 -9.71262330e+00 -9.67333735e+00 -9.63611909e+00 -9.59890082e+00
 -9.56788560e+00 -9.54100574e+00 -9.52032893e+00 -9.50378748e+00
 -9.48931371e+00 -9.47483994e+00 -9.46036617e+00 -9.43968935e+00
 -9.41280949e+00 -9.37559123e+00 -9.32596687e+00 -9.25980107e+00
 -9.17916149e+00 -9.07784510e+00 -8.95585190e+00 -8.81318188e+00
 -8.64776737e+00 -8.45754068e+00 -8.24870486e+00 -8.01712454e+00
 -7.76900277e+00 -7.50640723e+00 -7.23347328e+00 -6.95847165e+00
 -6.68553771e+00 -6.42087448e+00 -6.17275271e+00 -5.94530776e+00
 -5.74474266e+00 -5.57105742e+00 -5.42631972e+00 -5.31259725e+00
 -5.22575463e+00 -5.16372418e+00 -5.12237056e+00 -5.09962606e+00
 -5.09135533e+00 -5.09342302e+00 -5.10169374e+00 -5.11616751e+00
 -5.13684433e+00 -5.15752114e+00 -5.18026564e+00 -5.20507781e+00
 -5.22988999e+00 -5.25470217e+00 -5.27951434e+00 -5.30432652e+00
 -5.32913870e+00 -5.35188319e+00 -5.37462769e+00 -5.39323682e+00
 -5.40977827e+00 -5.42218436e+00 -5.42838740e+00 -5.42631972e+00
 -5.41598132e+00 -5.39323682e+00 -5.35808624e+00 -5.31052956e+00
 -5.25056680e+00 -5.17613027e+00 -5.09135533e+00 -4.99417431e+00
 -4.89079024e+00 -4.77706776e+00 -4.65920992e+00 -4.53308135e+00
 -4.40281742e+00 -4.26635045e+00 -4.12161275e+00 -3.97067201e+00
 -3.81352822e+00 -3.65018139e+00 -3.47856383e+00 -3.30281091e+00
 -3.12292263e+00 -2.93889898e+00 -2.75073997e+00 -2.56258096e+00
 -2.37235427e+00 -2.18212758e+00 -1.99190089e+00 -1.80167420e+00]","[-1.57636178 -1.45728071 -1.31521908 -1.15644432 -0.989313   -0.81800339
 -0.64460464 -0.47538417 -0.30825284 -0.14321066  0.02183153  0.18896286
  0.36027247  0.53993864  0.73213967  0.93687554  1.15832455  1.39230841
  1.6430054   1.91041552  2.19036049  2.48492945  2.78994413  3.10749365
  3.43548887  3.76975153  4.11028161  4.45290083  4.7934309   5.1297827
  5.4515105   5.75861431  6.04482671  6.30388027  6.53368584  6.73215429
  6.89928562  7.03716896  7.14580432  7.23354827  7.29831166  7.3505402
  7.38814475  7.41739273  7.44037329  7.45917556  7.47797784  7.49260183
  7.50931496  7.52811723  7.54900865  7.57198921  7.60332633  7.64093088
  7.68689199  7.74538796  7.81432963  7.89789529  7.99608495  8.11098774
  8.24051451  8.38257614  8.53717262  8.69803652  8.86098956  9.02185347
  9.17644994  9.31642243  9.4355035   9.53369315  9.60472397  9.6465068
  9.65904165  9.64023937  9.59009998  9.51489088  9.41252294  9.28926359
  9.14511282  8.9884272   8.82129587  8.64789712  8.47449837  8.30109962
  8.13396829  7.97310439  7.82059706  7.67644629  7.54065208  7.41530359
  7.29831166  7.1896763   7.09148664  7.00165356  6.92435532  6.85750279
  6.80109596  6.75304571  6.71544116  6.68619318  6.66321262  6.64441035
  6.62769721  6.61098408  6.59218181  6.56920125  6.54204241  6.51070528
  6.47101159  6.42713962  6.37700022  6.3205934   6.26209744  6.19942319
  6.1346598   6.06780727  5.9988656   5.92992392  5.86098225  5.78995144
  5.71892062  5.64997895  5.57894814  5.51000647  5.43897565  5.36794484
  5.29691402  5.22797235  5.15694154  5.08382158  5.01070163  4.93549253
  4.85819429  4.77671777  4.69106297  4.59705159  4.49259452  4.37978087
  4.25025409  4.10819246]",0.4174131858111558,8.537068161377798,4.836335,0.14110499999999782
052,1,2,csm,48a.png,1,1,152,301,149,1,1,580,neu_feedback_onset,14,"[ 2.40748072  2.21057549  2.01576499  1.82095449  1.62195451  1.41667033
  1.19462826  0.95582829  0.69398622  0.40700731  0.0969863  -0.23817155
 -0.59008729 -0.95666618 -1.32533982 -1.68982398 -2.04383446 -2.37480283
 -2.6764449  -2.94666591 -3.18127641 -3.38027638 -3.54576057 -3.67982371
 -3.78875001 -3.88091842 -3.96051841 -4.03383418 -4.10505523 -4.18046574
 -4.26006573 -4.34804467 -4.44230781 -4.5449499  -4.65178147 -4.76489724
 -4.88220249 -5.00160247 -5.12100246 -5.24040244 -5.36189716 -5.48129714
 -5.60069713 -5.72009711 -5.84159183 -5.96727603 -6.09924443 -6.23749704
 -6.38622334 -6.54751805 -6.71719171 -6.89733906 -7.08167587 -7.26601269
 -7.44197056 -7.60117054 -7.73732841 -7.84415998 -7.91747576 -7.95518102
 -7.95727575 -7.9258547  -7.86720208 -7.78341262 -7.68077053 -7.56346528
 -7.43568635 -7.30162321 -7.1633706  -7.02092851 -6.87639169 -6.72976013
 -6.58522331 -6.43859175 -6.28986546 -6.1432339  -5.99241286 -5.84159183
 -5.68867606 -5.52947609 -5.36608663 -5.19641297 -5.01836037 -4.83192881
 -4.63711831 -4.43392887 -4.22654995 -4.01498156 -3.8055079  -3.60022372
 -3.40541322 -3.22317114 -3.05768695 -2.90896065 -2.77489752 -2.65549753
 -2.5507607  -2.45649756 -2.37061336 -2.29101337 -2.21769759 -2.15276076
 -2.09620287 -2.0522134  -2.02288709 -2.01241341 -2.02707656 -2.07106603
 -2.14647655 -2.25749759 -2.40203441 -2.58008702 -2.78956067 -3.0262659
 -3.2839185  -3.55413951 -3.83483421 -4.11762365 -4.40041308 -4.67901304
 -4.9513288  -5.2152656  -5.47082346 -5.72009711 -5.96099182 -6.19560231
 -6.42392859 -6.64387593 -6.85753906 -7.06282324 -7.26182322 -7.45453898
 -7.63678106 -7.81064419 -7.97403365 -8.12485468 -8.25682308 -8.36574938
 -8.44953884 -8.50400199 -8.52285462 -8.50609673 -8.45163358 -8.36365464
 -8.24006519 -8.08924416 -7.91538102 -7.72266526 -7.51738108 -7.30581268
 -7.08796008 -6.87220222 -6.66063383 -6.45534964 -6.25634967 -6.06572864
 -5.88767604 -5.72219185 -5.56927608 -5.43102347 -5.30533927 -5.19431824
 -5.09586562 -5.01207616 -4.93876038 -4.88220249 -4.84030776 -4.81517092
 -4.81307618 -4.83192881 -4.87801302 -4.94923406 -5.0434972  -5.16289719
 -5.29696033 -5.44568662 -5.59860239 -5.75151816 -5.89605498 -6.02592865
 -6.13904442 -6.22911809 -6.29614966 -6.34013913 -6.3610865  -6.35899176
 -6.33594966 -6.29614966 -6.23959178 -6.166276   -6.08248654 -5.98403392
 -5.87720235 -5.75989711 -5.63630765 -5.50433925 -5.37027611 -5.23202349
 -5.08958141 -4.94713932 -4.8026025  -4.65806568 -4.51352886 -4.36899203
 -4.22445521 -4.07991839 -3.93538157 -3.79503422 -3.65468687 -3.52062373
 -3.39075006 -3.27135008 -3.1582343  -3.05768695 -2.96970801 -2.8942975
 -2.83355014 -2.78746593 -2.75395015 -2.73719226 -2.73509752 -2.74766594
 -2.77908699 -2.82936067 -2.90058171 -2.99693959 -3.12052905 -3.27135008
 -3.44730795 -3.64630792 -3.85787631 -4.07363418 -4.2810131  -4.46953939
 -4.62454989 -4.73766567 -4.80469724 -4.82354987 -4.79212882 -4.7167183
 -4.60360253 -4.45697097 -4.28939204 -4.10296049 -3.90814999 -3.70705528
 -3.51015005 -3.31952902 -3.14147641 -2.9801817  -2.83983435 -2.72462384
 -2.6366449  -2.57380281 -2.53819228 -2.52562386 -2.52981334 -2.5507607
 -2.58008702 -2.61569754]","[-0.38001722 -0.41316789 -0.43968843 -0.45736879 -0.45957883 -0.44852861
 -0.41758798 -0.37117704 -0.30708574 -0.22752412 -0.13470224 -0.03083013
  0.08188216  0.20122459  0.3249871   0.45095966  0.57693221  0.70069473
  0.82003715  0.93053939  1.0344115   1.12944343  1.21342514  1.28635662
  1.34823788  1.39685886  1.43442963  1.45653007  1.46537025  1.45874012
  1.43884972  1.40790909  1.36591823  1.31729725  1.26646622  1.21784523
  1.17364433  1.13828361  1.11176307  1.09850281  1.09629276  1.10734298
  1.12723339  1.15375393  1.18911464  1.22668541  1.26867626  1.31287716
  1.3592881   1.40569904  1.45432003  1.50073097  1.54935196  1.59797295
  1.64438389  1.69300488  1.74162586  1.78803681  1.83665779  1.88527878
  1.93168972  1.98031071  2.0289317   2.07534264  2.12396363  2.17258461
  2.2212056   2.26761654  2.31623753  2.36485852  2.41126946  2.45989045
  2.50851144  2.55492238  2.60354336  2.65216435  2.69857529  2.74719628
  2.79581727  2.84222821  2.8908492   2.93947019  2.98809117  3.03450212
  3.0831231   3.13174409  3.17815503  3.22677602  3.27318696  3.32180795
  3.36821889  3.41462983  3.45883073  3.50082158  3.54060239  3.57596311
  3.60469369  3.6245841   3.63563432  3.63563432  3.62016401  3.59364347
  3.55165262  3.50082158  3.44336042  3.38368921  3.32843808  3.28423719
  3.25771665  3.25329656  3.27539701  3.32622804  3.40578965  3.51408185
  3.64226446  3.79254751  3.95609083  4.12847433  4.30527792  4.47987146
  4.64783487  4.80695811  4.94840098  5.07437354  5.18266573  5.26885748
  5.33957892  5.39483004  5.43903094  5.48102179  5.52743273  5.5848939
  5.66224547  5.76390754  5.89872027  6.06226359  6.26116763  6.48880226
  6.74295742  7.01700298]",-8.393286066166183e-15,5.574896079217287,4.7738700000000005,0.23565999999999931
052,2,2,csp,27b.png,1,1,8,4,9,1,1,338,pos_feedback_onset,1,"[-1.75916525e-01 -1.57822254e-01 -1.39727983e-01 -1.21633712e-01
 -1.05549915e-01 -9.14765930e-02 -7.94137456e-02 -6.53404236e-02
 -5.12671016e-02 -3.51833050e-02 -1.70890339e-02  5.02618643e-03
  2.91518813e-02  5.52880507e-02  8.34346948e-02  1.13591813e-01
  1.43748932e-01  1.73906051e-01  2.04063169e-01  2.32209813e-01
  2.58345983e-01  2.84482152e-01  3.08607847e-01  3.32733542e-01
  3.56859237e-01  3.80984931e-01  4.09131576e-01  4.37278220e-01
  4.69445813e-01  5.03623880e-01  5.37801948e-01  5.73990490e-01
  6.10179033e-01  6.42346626e-01  6.74514219e-01  7.04671338e-01
  7.30807507e-01  7.54933202e-01  7.77048422e-01  7.97153168e-01
  8.17257914e-01  8.41383609e-01  8.67519778e-01  8.99687371e-01
  9.39896863e-01  9.86137778e-01  1.04243107e+00  1.10676625e+00
  1.17914334e+00  1.25755185e+00  1.33998130e+00  1.42643171e+00
  1.51288212e+00  1.59933252e+00  1.68578293e+00  1.77223334e+00
  1.85868374e+00  1.94312367e+00  2.02756361e+00  2.11200354e+00
  2.19443300e+00  2.27686245e+00  2.36130239e+00  2.44373184e+00
  2.52616130e+00  2.60859076e+00  2.69303069e+00  2.77546015e+00
  2.85788960e+00  2.94031906e+00  3.02274852e+00  3.10517798e+00
  3.18961791e+00  3.27204737e+00  3.35447682e+00  3.43891676e+00
  3.52335669e+00  3.60779662e+00  3.69625750e+00  3.78471838e+00
  3.87518974e+00  3.97169252e+00  4.07020577e+00  4.17475045e+00
  4.28532655e+00  4.39992360e+00  4.51653113e+00  4.63514913e+00
  4.75175665e+00  4.86233275e+00  4.96486696e+00  5.05533831e+00
  5.12972587e+00  5.18400869e+00  5.22019723e+00  5.23427055e+00
  5.23024960e+00  5.20813438e+00  5.16993536e+00  5.11967350e+00
  5.06338021e+00  4.99904502e+00  4.93269936e+00  4.86635370e+00
  4.80000804e+00  4.73567286e+00  4.67334814e+00  4.61504438e+00
  4.55674062e+00  4.50245781e+00  4.44817499e+00  4.39590265e+00
  4.34564079e+00  4.29738940e+00  4.25315896e+00  4.21495994e+00
  4.18480282e+00  4.16469808e+00  4.15866665e+00  4.17072950e+00
  4.20088662e+00  4.25315896e+00  4.32754652e+00  4.42605977e+00
  4.54266730e+00  4.67937957e+00  4.83016516e+00  4.99301360e+00
  5.16591441e+00  5.34283618e+00  5.52176841e+00  5.70271112e+00
  5.88164336e+00  6.05856512e+00  6.22945546e+00  6.39431438e+00
  6.55515234e+00  6.70593794e+00  6.85069211e+00  6.98740438e+00
  7.11808522e+00  7.23871370e+00  7.35331075e+00  7.45785543e+00
  7.55636868e+00  7.64281909e+00  7.71519617e+00  7.76947899e+00
  7.80164658e+00  7.80164658e+00  7.76344756e+00  7.68101810e+00
  7.54631631e+00  7.35532122e+00  7.11205380e+00  6.81852451e+00
  6.48478573e+00  6.12692126e+00  5.76101489e+00  5.40717136e+00
  5.08147448e+00  4.80000804e+00  4.57282442e+00  4.40193408e+00
  4.28934750e+00  4.22702279e+00  4.20289709e+00  4.20691804e+00
  4.22702279e+00  4.25516943e+00  4.28331608e+00  4.30945225e+00
  4.33156747e+00  4.35368269e+00  4.37981886e+00  4.41399692e+00
  4.46023784e+00  4.51854160e+00  4.59091869e+00  4.67535862e+00
  4.76381950e+00  4.85630133e+00  4.94476221e+00  5.02317072e+00
  5.08951638e+00  5.14178872e+00  5.18400869e+00  5.22220770e+00
  5.26442767e+00  5.32072096e+00  5.40717136e+00  5.53383126e+00
  5.71075302e+00  5.94798902e+00  6.24956021e+00  6.60943516e+00
  7.02359292e+00  7.48198112e+00  7.96650549e+00  8.46510319e+00
  8.95565898e+00  9.42611003e+00  9.86238302e+00  1.02564360e+01
  1.06042481e+01  1.09038088e+01  1.11571286e+01  1.13722494e+01
  1.15531921e+01  1.17059882e+01  1.18386795e+01  1.19572975e+01
  1.20658631e+01  1.21663869e+01  1.22649001e+01  1.23593924e+01
  1.24538847e+01  1.25463666e+01  1.26368379e+01  1.27232883e+01
  1.28077283e+01  1.28881472e+01  1.29665558e+01  1.30429538e+01
  1.31233728e+01  1.32098232e+01  1.33063260e+01  1.34169021e+01
  1.35435620e+01  1.36883161e+01  1.38451331e+01  1.40120025e+01
  1.41788719e+01  1.43336785e+01  1.44724012e+01  1.45809668e+01
  1.46553544e+01  1.46915429e+01  1.46895325e+01  1.46573649e+01
  1.45990611e+01  1.45286945e+01  1.44603384e+01  1.44060555e+01
  1.43799194e+01  1.43939927e+01  1.44543069e+01  1.45648830e+01
  1.47237105e+01  1.49187266e+01  1.51378683e+01  1.53630414e+01
  1.55721308e+01  1.57450316e+01  1.58656601e+01  1.59199429e+01
  1.58998382e+01  1.58093668e+01  1.56505393e+01  1.54374290e+01]","[ -2.65506543  -2.38289237  -2.08143487  -1.76275122  -1.43028666
  -1.09609948  -0.76880277  -0.45356435  -0.15555207   0.12178883
   0.37845836   0.61445652   0.83150593   1.03477442   1.22770722
   1.40685911   1.57739792   1.73243321   1.87196497   1.98910274
   2.07867869   2.13724757   2.16308679   2.1527511    2.10968574
   2.03389071   1.93225647   1.80650563   1.66352864   1.50677074
   1.34139976   1.16741572   0.98998644   0.80911194   0.62651482
   0.44391771   0.25959798   0.07527825  -0.10904149  -0.29336122
  -0.47768095  -0.66200068  -0.84632041  -1.03064014  -1.21495987
  -1.3992796   -1.58359933  -1.76791906  -1.9522388   -2.13655853
  -2.32087826  -2.50519799  -2.69124033  -2.87556006  -3.0598798
  -3.24419953  -3.42851926  -3.61283899  -3.79715872  -3.98147845
  -4.16579818  -4.35011791  -4.53443764  -4.71875737  -4.90307711
  -5.08739684  -5.27171657  -5.4560363   -5.64035603  -5.82639838
  -6.01071811  -6.19503784  -6.37935757  -6.5636773   -6.74799703
  -6.93231676  -7.11663649  -7.30095622  -7.48527595  -7.66959569
  -7.85391542  -8.03823515  -8.22255488  -8.40687461  -8.59119434
  -8.77551407  -8.9598338   -9.14587615  -9.32847326  -9.512793
  -9.69711273  -9.87970984 -10.06230696 -10.24318146 -10.42233335
 -10.59804001 -10.76857883 -10.9339498  -11.0907077  -11.24229776
 -11.38355213 -11.51791605 -11.64711212 -11.77286297 -11.90033643
 -12.03642296 -12.18112256 -12.34132569 -12.51875496 -12.71168777
 -12.92184671 -13.14234134 -13.36800382 -13.59538891 -13.81588354
 -14.02604248 -14.2206979  -14.39640456 -14.55660769 -14.69786206
 -14.82361291 -14.93902807 -15.04410754 -15.14574178 -15.2439308
 -15.34556504 -15.45064452 -15.56089183 -15.67630699 -15.79516738
 -15.91575038 -16.03461077 -16.1465807  -16.25166017 -16.34468134
 -16.42219899 -16.48765833 -16.53761414 -16.57378905 -16.59790565]",15.004211944229425,0.7198374541138591,4.97395,-0.4270149999999999
052,2,2,csm,16a.png,1,0,348,87,347,1,1,417,neu_feedback_onset,2,"[ 0.06032836  0.19349463  0.30648419  0.39727937  0.45982717  0.49614524
  0.50623359  0.48807456  0.44570347  0.37710267  0.28630748  0.17533559
  0.04418699 -0.10310298 -0.26451664 -0.43400098 -0.60752067 -0.78104035
 -0.94648935 -1.09983233 -1.23501627 -1.34598816 -1.43476568 -1.49933114
 -1.54170223 -1.56389661 -1.57196729 -1.56994962 -1.56591428 -1.56187894
 -1.56187894 -1.57196729 -1.592144   -1.6264444  -1.67285083 -1.73136328
 -1.79391107 -1.85847654 -1.92102433 -1.9714661  -2.00778417 -2.02392554
 -2.01787253 -1.98760747 -1.93514803 -1.86452955 -1.78382272 -1.69706288
 -1.61433838 -1.54775524 -1.49933114 -1.48117211 -1.4952958  -1.5437199
 -1.62846207 -1.74548697 -1.8887416  -2.05217293 -2.22972796 -2.40930066
 -2.58483801 -2.75230468 -2.90161232 -3.03276092 -3.14373281 -3.234528
 -3.3031288  -3.35558824 -3.39190632 -3.41208302 -3.42015371 -3.41410069
 -3.39795933 -3.36769427 -3.32330551 -3.26479306 -3.19215691 -3.10539707
 -3.0065312  -2.89152397 -2.76844605 -2.63326211 -2.49404283 -2.34877053
 -2.20148057 -2.05620827 -1.91497132 -1.78180505 -1.65872713 -1.54775524
 -1.45090704 -1.3641472  -1.28949338 -1.22089258 -1.15632711 -1.08772631
 -1.00903715 -0.91622429 -0.80727007 -0.68015681 -0.53690219 -0.38557688
 -0.23425158 -0.09301462  0.02804562  0.11480547  0.16121189  0.16121189
  0.11077012  0.00988659 -0.13538571 -0.31697608 -0.52883151 -0.76288131
 -1.00903715 -1.26124599 -1.51345484 -1.76566368 -2.01383719 -2.26201069
 -2.51220186 -2.76642838 -3.02670791 -3.29304045 -3.565426   -3.83781155
 -4.10616176 -4.36240595 -4.59847343 -4.80831119 -4.98183087 -5.11499714
 -5.20175699 -5.24412807 -5.2421104  -5.20175699 -5.12912084 -5.03025497
 -4.91726541 -4.79418749 -4.66909191 -4.54399632 -4.42697142 -4.31398185
 -4.21108064 -4.11221478 -4.02141959 -3.93465975 -3.85395292 -3.77526376
 -3.70262761 -3.63402681 -3.57147901 -3.51498423 -3.4685778  -3.43024206
 -3.40199467 -3.3858533  -3.38181796 -3.39190632 -3.41410069 -3.45243644
 -3.50489588 -3.57349668 -3.65823886 -3.76114006 -3.88220031 -4.02545493
 -4.19090394 -4.37652965 -4.58636741 -4.81638187 -5.06455538 -5.32685257
 -5.59722046 -5.86758834 -6.12988554 -6.3740237  -6.58991447 -6.7674695
 -6.8986181  -6.9813426  -7.00958999 -6.98336027 -6.91072412 -6.79168155
 -6.64035624 -6.46280121 -6.26910482 -6.06733774 -5.86758834 -5.67389195
 -5.49028391 -5.31878189 -5.16140357 -5.01411361 -4.87489432 -4.74374573
 -4.61865014 -4.49355455 -4.36845896 -4.24134571 -4.10817944 -3.97097782
 -3.82570553 -3.67236255 -3.50893122 -3.33541153 -3.15382117 -2.96416011
 -2.76642838 -2.5646613  -2.35684122 -2.14498579 -1.93111268 -1.71522191
 -1.49731347 -1.27940503 -1.06149659 -0.84358814 -0.6256797  -0.40978893
 -0.19389816  0.02199261  0.23384804  0.4436858   0.64948822  0.84923762
  1.04293402  1.22855973  1.40409708  1.56752841  1.71885372  1.85605533
  1.97913325  2.0860698   2.17484731  2.24143045  2.28380153  2.29792523
  2.27774852  2.22125374  2.12440554  1.98316859  1.79754288  1.56954608
  1.30119587  0.99652759  0.66159424  0.29841351 -0.08696161 -0.48847809
 -0.90613594 -1.33993515 -1.78382272 -2.24385165 -2.71598661 -3.19820992
 -3.68850392 -4.18081558]","[-3.46230055e-01 -2.92001251e-01 -2.39858171e-01 -1.89800813e-01
 -1.37657733e-01 -8.34289290e-02 -2.92001251e-02  2.50286787e-02
  7.92574825e-02  1.27229117e-01  1.66857858e-01  1.93972260e-01
  2.06486599e-01  2.00229430e-01  1.75200751e-01  1.35572010e-01
  8.34289290e-02  2.50286787e-02 -2.92001251e-02 -7.09145896e-02
 -9.38575451e-02 -9.17718219e-02 -5.84002503e-02  6.25716967e-03
  9.59432683e-02  2.08572322e-01  3.31629993e-01  4.56773386e-01
  5.77745333e-01  6.82031494e-01  7.67546147e-01  8.30117843e-01
  8.67660861e-01  8.82260924e-01  8.73918031e-01  8.48889352e-01
  8.11346334e-01  7.61288977e-01  7.04974450e-01  6.44488476e-01
  5.77745333e-01  5.11002190e-01  4.42173324e-01  3.73344457e-01
  3.02429868e-01  2.33601001e-01  1.62686412e-01  9.38575451e-02
  2.29429555e-02 -4.79716342e-02 -1.16800501e-01 -1.87715090e-01
 -2.58629680e-01 -3.27458546e-01 -3.98373136e-01 -4.69287726e-01
 -5.38116592e-01 -6.09031182e-01 -6.77860048e-01 -7.48774638e-01
 -8.17603504e-01 -8.86432370e-01 -9.55261237e-01 -1.02200438e+00
 -1.08874752e+00 -1.15340494e+00 -1.21806236e+00 -1.28480551e+00
 -1.35154865e+00 -1.42454896e+00 -1.50380644e+00 -1.59557827e+00
 -1.70195015e+00 -1.82917927e+00 -1.98143706e+00 -2.16080926e+00
 -2.36729586e+00 -2.59881114e+00 -2.85535509e+00 -3.12858484e+00
 -3.41641464e+00 -3.70841589e+00 -4.00041714e+00 -4.28616123e+00
 -4.56147669e+00 -4.82219210e+00 -5.06622171e+00 -5.29356554e+00
 -5.50005214e+00 -5.68985296e+00 -5.86505371e+00 -6.02356867e+00
 -6.17165502e+00 -6.30722703e+00 -6.43654187e+00 -6.55959954e+00
 -6.67640004e+00 -6.79111482e+00 -6.89957243e+00 -7.00594431e+00
 -7.10397330e+00 -7.19574512e+00 -7.27708833e+00 -7.34591720e+00
 -7.40223172e+00 -7.44394619e+00 -7.46897487e+00 -7.47940348e+00
 -7.47106059e+00 -7.44394619e+00 -7.40014600e+00 -7.33966003e+00
 -7.25831682e+00 -7.16028783e+00 -7.04348733e+00 -6.91000104e+00
 -6.75982897e+00 -6.59505684e+00 -6.41777036e+00 -6.23214099e+00
 -6.03816874e+00 -5.84002503e+00 -5.64188132e+00 -5.44373762e+00
 -5.24559391e+00 -5.04953593e+00 -4.85139222e+00 -4.65324851e+00
 -4.45093336e+00 -4.24236104e+00 -4.03170299e+00 -3.81478778e+00
 -3.59787256e+00 -3.38721452e+00 -3.18489936e+00 -2.99927000e+00
 -2.84075503e+00 -2.71352592e+00 -2.62383982e+00 -2.57378246e+00]",0.5196511043720821,0.31838565022421095,4.9562100000000004,0.03427999999999898
052,2,2,csp,9b.png,1,1,264,190,264,1,1,342,pos_feedback_onset,3,"[ 0.5072773   0.56330622  0.61287028  0.65381449  0.68398392  0.69691367
  0.69260375  0.66243433  0.60425044  0.51589713  0.39306448  0.23575249
  0.04827108 -0.1672248  -0.40858018 -0.6693302  -0.9516298  -1.24685915
 -1.55501825 -1.87179719 -2.19504101 -2.52043978 -2.8436836  -3.15615262
 -3.45353693 -3.72937166 -3.97719192 -4.19053284 -4.36723945 -4.50300186
 -4.60212996 -4.66246881 -4.68832831 -4.68186344 -4.64953905 -4.59351013
 -4.51377665 -4.41464855 -4.29397086 -4.15174358 -3.98581175 -3.79617538
 -3.58498942 -3.35225387 -3.10658857 -2.84799352 -2.58724351 -2.32864845
 -2.08082819 -1.85455752 -1.64983644 -1.47312982 -1.32659262 -1.20806989
 -1.11756162 -1.04860294 -0.99472897 -0.9516298  -0.91284054 -0.86974136
 -0.82233227 -0.76630334 -0.70165458 -0.62838598 -0.55080746 -0.46891903
 -0.39134051 -0.32022687 -0.25988803 -0.22109877 -0.20170414 -0.21032398
 -0.24264836 -0.30083225 -0.37841076 -0.47322895 -0.57666697 -0.68010499
 -0.77923309 -0.86112153 -0.92577029 -0.96886947 -0.98610914 -0.97964426
 -0.94947484 -0.89775583 -0.82879715 -0.74259879 -0.64131573 -0.53141283
 -0.41504506 -0.29436737 -0.17368968 -0.0573219   0.05473595  0.15817397
  0.2508372   0.33488059  0.41030415  0.48141779  0.55253143  0.62580003
  0.70337854  0.79173185  0.888705    0.9986079   1.11713063  1.2442732
  1.3800356   1.52226288  1.67095503  1.83042198  1.99850877  2.17737035
  2.37562655  2.59112243  2.8281679   3.08460799  3.36044271  3.65351711
  3.9573663   4.26768036  4.57583946  4.87753369  5.16198825  5.42273826
  5.65978373  5.86234985  6.03474656  6.17481888  6.28472177  6.37307508
  6.44203376  6.50021765  6.5605565   6.62520526  6.70709369  6.81053171
  6.93767428  7.09067636  7.26953793  7.46779414  7.68329002  7.90309581
  8.12074665  8.32977765  8.51941402  8.68319089  8.81895329  8.92239131
  8.99135     9.02798429  9.03444917  9.01289958  8.96764545  8.90084173
  8.81248842  8.70474048  8.57544295  8.42459584  8.24788922  8.04316813
  7.81258755  7.54968257  7.2609181   6.94413916  6.60581063  6.25239739
  5.88820936  5.52186637  5.16198825  4.81503989  4.4853312   4.18148201
  3.90349233  3.65782703  3.44233115  3.26131461  3.1104675   2.98978981
  2.89928154  2.83247781  2.78937864  2.76567409  2.75920922  2.76998401
  2.78937864  2.82170302  2.86264724  2.91005633  2.96608526  3.02857906
  3.09753774  3.17511626  3.26131461  3.35397784  3.4552609   3.56300884
  3.6750667   3.79143447  3.9099572   4.02417002  4.13622787  4.24182085
  4.33663904  4.41852747  4.4853312   4.53920517  4.57583946  4.59954401
  4.60816385  4.60169897  4.58014938  4.547825    4.50472582  4.4486969
  4.38620309  4.31724441  4.24613077  4.17501713  4.10605845  4.04356465
  3.98969068  3.94228158  3.90349233  3.8733229   3.85177332  3.83453365
  3.82375885  3.81513902  3.8108291   3.80651918  3.80436422  3.80436422
  3.80220926  3.8000543   3.8000543   3.8000543   3.79789935  3.79789935
  3.79789935  3.79574439  3.79574439  3.79574439  3.79358943  3.79358943
  3.79358943  3.79143447  3.79143447  3.79143447  3.78927951  3.78927951
  3.78927951  3.78712455  3.78712455  3.78712455  3.78496959  3.78496959
  3.78281463  3.78281463]","[-1.38011421 -1.31546727 -1.23123035 -1.13328044 -1.01769955 -0.88448767
 -0.73952181 -0.57888396 -0.40649212 -0.22430529 -0.03232347  0.16553535
  0.37123015  0.57888396  0.78849676  0.99810957  1.20772237  1.41341718
  1.61323499  1.80717581  1.99132164  2.16567248  2.32631032  2.47127619
  2.59665207  2.70243797  2.7827569   2.83760885  2.86699382  2.87287081
  2.85523983  2.81801887  2.76120792  2.69264298  2.61036506  2.52025114
  2.42426023  2.32435133  2.22052442  2.11473852  2.00895262  1.90120772
  1.79346282  1.68571792  1.57797302  1.47022813  1.36248323  1.25473833
  1.14699343  1.03924853  0.93150363  0.82375873  0.71601383  0.60630993
  0.49856503  0.39082013  0.28307524  0.17533034  0.06758544 -0.03820046
 -0.14594536 -0.25173126 -0.35555817 -0.45742607 -0.55733498 -0.65136689
 -0.73952181 -0.81984073 -0.89232367 -0.95305261 -1.00202756 -1.03924853
 -1.06275651 -1.0745105  -1.07842849 -1.0745105  -1.0666745  -1.06079751
 -1.06079751 -1.0725515  -1.09997747 -1.14895243 -1.22143536 -1.32330326
 -1.45259714 -1.61323499 -1.80129882 -2.01287062 -2.2459914  -2.49478417
 -2.75141293 -3.01195968 -3.26858844 -3.51738121 -3.75050199 -3.96990979
 -4.1716866  -4.35387343 -4.52234727 -4.67906713 -4.82795099 -4.97095785
 -5.11396472 -5.26284858 -5.41760943 -5.58216528 -5.75455712 -5.93478495
 -6.11893078 -6.3050356  -6.48918143 -6.66549127 -6.82808812 -6.97501298
 -7.09842986 -7.19637977 -7.26690371 -7.30804267 -7.31587866 -7.29432968
 -7.24143673 -7.15915881 -7.05141391 -6.92212003 -6.77127717 -6.60672132
 -6.42649349 -6.23842967 -6.04448885 -5.84467104 -5.64093523 -5.43719942
 -5.23150461 -5.0258098  -4.82011499 -4.61637918 -4.41264337 -4.21282556
 -4.01692574 -3.82690292]",7.598707886718148,1.8461108988862844,4.640459999999999,0.22043499999999927
052,2,2,csp,58b.png,1,1,300,251,301,1,1,336,pos_feedback_onset,4,"[nan nan nan nan nan nan nan nan nan nan nan nan nan nan nan nan nan nan
 nan nan nan nan nan nan nan nan nan nan nan nan nan nan nan nan nan nan
 nan nan nan nan nan nan nan nan nan nan nan nan nan nan nan nan nan nan
 nan nan nan nan nan nan nan nan nan nan nan nan nan nan nan nan nan nan
 nan nan nan nan nan nan nan nan nan nan nan nan nan nan nan nan nan nan
 nan nan nan nan nan nan nan nan nan nan nan nan nan nan nan nan nan nan
 nan nan nan nan nan nan nan nan nan nan nan nan nan nan nan nan nan nan
 nan nan nan nan nan nan nan nan nan nan nan nan nan nan nan nan nan nan
 nan nan nan nan nan nan nan nan nan nan nan nan nan nan nan nan nan nan
 nan nan nan nan nan nan nan nan nan nan nan nan nan nan nan nan nan nan
 nan nan nan nan nan nan nan nan nan nan nan nan nan nan nan nan nan nan
 nan nan nan nan nan nan nan nan nan nan nan nan nan nan nan nan nan nan
 nan nan nan nan nan nan nan nan nan nan nan nan nan nan nan nan nan nan
 nan nan nan nan nan nan nan nan nan nan nan nan nan nan nan nan nan nan
 nan nan nan nan nan nan nan nan]","[ -2.12975984  -1.93474714  -1.71963004  -1.48641897  -1.23511395
  -0.97174628  -0.70234729  -0.4329483   -0.16958063   0.08172439
   0.31493546   0.52804212   0.72104438   0.8919318    1.0467357
   1.18746651   1.32015557   1.44480286   1.56542927   1.68002437
   1.78456726   1.87302663   1.94339203   1.98963216   2.00571568
   1.99365304   1.9514338    1.88307883   1.79461946   1.69409745
   1.58553368   1.47495946   1.36840613   1.26788412   1.17540387
   1.09096538   1.01456866   0.94420325   0.87986916   0.81955595
   0.76125319   0.70295042   0.64866854   0.59237621   0.53809432
   0.48381244   0.42953055   0.37524867   0.32096678   0.26668489
   0.21240301   0.15812112   0.1018288    0.04352603  -0.01477674
  -0.07911082  -0.14746579  -0.22185208  -0.30830101  -0.40480214
  -0.51738679  -0.6480654   -0.80085886  -0.97375672  -1.16876942
  -1.38589696  -1.62312891  -1.87845482  -2.1478538   -2.42730499
  -2.71278751  -3.0022909   -3.29179429  -3.58129768  -3.87281151
  -4.1623149   -4.45583917  -4.75539477  -5.06098168  -5.37461035
  -5.69829123  -6.03001386  -6.36977826  -6.71557398  -7.06539057
  -7.41520717  -7.76502377  -8.11282993  -8.4566152   -8.7963796
  -9.13212312  -9.46384575  -9.78953707 -10.1112075  -10.42483617
 -10.72841265 -11.02193692 -11.30138811 -11.56475578 -11.80801904
 -12.03117791 -12.23021149 -12.40713023 -12.56193412 -12.69261274
 -12.80318695 -12.8956672  -12.97407437 -13.0404189  -13.1007321
 -13.15702443 -13.21532719 -13.27765084 -13.34198493 -13.4103399
 -13.47668442 -13.53498719 -13.57720643 -13.59932128 -13.59127951
 -13.54704983 -13.46261134 -13.33595361 -13.17109751 -12.97005349
