sub,run,cat_cond,trial_type,picture,old,response_old,target_pos,response_pos,dot_resp_loc,cat_corr,TN_corr,TN_rt,feedback_type,trial,SP_timeseries,FB_timeseries,SP_peak_response,FB_peak_response,preStim_bl,anticipation
012,1,1,csp,8a.png,1,1,200,198,202,1,1,477,pos_feedback_onset,1,"[nan nan nan nan nan nan nan nan nan nan nan nan nan nan nan nan nan nan
 nan nan nan nan nan nan nan nan nan nan nan nan nan nan nan nan nan nan
 nan nan nan nan nan nan nan nan nan nan nan nan nan nan nan nan nan nan
 nan nan nan nan nan nan nan nan nan nan nan nan nan nan nan nan nan nan
 nan nan nan nan nan nan nan nan nan nan nan nan nan nan nan nan nan nan
 nan nan nan nan nan nan nan nan nan nan nan nan nan nan nan nan nan nan
 nan nan nan nan nan nan nan nan nan nan nan nan nan nan nan nan nan nan
 nan nan nan nan nan nan nan nan nan nan nan nan nan nan nan nan nan nan
 nan nan nan nan nan nan nan nan nan nan nan nan nan nan nan nan nan nan
 nan nan nan nan nan nan nan nan nan nan nan nan nan nan nan nan nan nan
 nan nan nan nan nan nan nan nan nan nan nan nan nan nan nan nan nan nan
 nan nan nan nan nan nan nan nan nan nan nan nan nan nan nan nan nan nan
 nan nan nan nan nan nan nan nan nan nan nan nan nan nan nan nan nan nan
 nan nan nan nan nan nan nan nan nan nan nan nan nan nan nan nan nan nan
 nan nan nan nan nan nan nan nan]","[nan nan nan nan nan nan nan nan nan nan nan nan nan nan nan nan nan nan
 nan nan nan nan nan nan nan nan nan nan nan nan nan nan nan nan nan nan
 nan nan nan nan nan nan nan nan nan nan nan nan nan nan nan nan nan nan
 nan nan nan nan nan nan nan nan nan nan nan nan nan nan nan nan nan nan
 nan nan nan nan nan nan nan nan nan nan nan nan nan nan nan nan nan nan
 nan nan nan nan nan nan nan nan nan nan nan nan nan nan nan nan nan nan
 nan nan nan nan nan nan nan nan nan nan nan nan nan nan nan nan nan nan
 nan nan nan nan nan nan nan nan nan nan nan nan nan nan]",,,6.213220000000001,
012,1,1,csm,27b.png,1,1,36,28,36,1,0,371,neu_feedback_onset,2,"[nan nan nan nan nan nan nan nan nan nan nan nan nan nan nan nan nan nan
 nan nan nan nan nan nan nan nan nan nan nan nan nan nan nan nan nan nan
 nan nan nan nan nan nan nan nan nan nan nan nan nan nan nan nan nan nan
 nan nan nan nan nan nan nan nan nan nan nan nan nan nan nan nan nan nan
 nan nan nan nan nan nan nan nan nan nan nan nan nan nan nan nan nan nan
 nan nan nan nan nan nan nan nan nan nan nan nan nan nan nan nan nan nan
 nan nan nan nan nan nan nan nan nan nan nan nan nan nan nan nan nan nan
 nan nan nan nan nan nan nan nan nan nan nan nan nan nan nan nan nan nan
 nan nan nan nan nan nan nan nan nan nan nan nan nan nan nan nan nan nan
 nan nan nan nan nan nan nan nan nan nan nan nan nan nan nan nan nan nan
 nan nan nan nan nan nan nan nan nan nan nan nan nan nan nan nan nan nan
 nan nan nan nan nan nan nan nan nan nan nan nan nan nan nan nan nan nan
 nan nan nan nan nan nan nan nan nan nan nan nan nan nan nan nan nan nan
 nan nan nan nan nan nan nan nan nan nan nan nan nan nan nan nan nan nan
 nan nan nan nan nan nan nan nan]","[nan nan nan nan nan nan nan nan nan nan nan nan nan nan nan nan nan nan
 nan nan nan nan nan nan nan nan nan nan nan nan nan nan nan nan nan nan
 nan nan nan nan nan nan nan nan nan nan nan nan nan nan nan nan nan nan
 nan nan nan nan nan nan nan nan nan nan nan nan nan nan nan nan nan nan
 nan nan nan nan nan nan nan nan nan nan nan nan nan nan nan nan nan nan
 nan nan nan nan nan nan nan nan nan nan nan nan nan nan nan nan nan nan
 nan nan nan nan nan nan nan nan nan nan nan nan nan nan nan nan nan nan
 nan nan nan nan nan nan nan nan nan nan nan nan nan nan]",,,6.4726550000000005,
012,1,1,csm,14b.png,1,1,300,326,299,1,1,646,neu_feedback_onset,3,"[nan nan nan nan nan nan nan nan nan nan nan nan nan nan nan nan nan nan
 nan nan nan nan nan nan nan nan nan nan nan nan nan nan nan nan nan nan
 nan nan nan nan nan nan nan nan nan nan nan nan nan nan nan nan nan nan
 nan nan nan nan nan nan nan nan nan nan nan nan nan nan nan nan nan nan
 nan nan nan nan nan nan nan nan nan nan nan nan nan nan nan nan nan nan
 nan nan nan nan nan nan nan nan nan nan nan nan nan nan nan nan nan nan
 nan nan nan nan nan nan nan nan nan nan nan nan nan nan nan nan nan nan
 nan nan nan nan nan nan nan nan nan nan nan nan nan nan nan nan nan nan
 nan nan nan nan nan nan nan nan nan nan nan nan nan nan nan nan nan nan
 nan nan nan nan nan nan nan nan nan nan nan nan nan nan nan nan nan nan
 nan nan nan nan nan nan nan nan nan nan nan nan nan nan nan nan nan nan
 nan nan nan nan nan nan nan nan nan nan nan nan nan nan nan nan nan nan
 nan nan nan nan nan nan nan nan nan nan nan nan nan nan nan nan nan nan
 nan nan nan nan nan nan nan nan nan nan nan nan nan nan nan nan nan nan
 nan nan nan nan nan nan nan nan]","[nan nan nan nan nan nan nan nan nan nan nan nan nan nan nan nan nan nan
 nan nan nan nan nan nan nan nan nan nan nan nan nan nan nan nan nan nan
 nan nan nan nan nan nan nan nan nan nan nan nan nan nan nan nan nan nan
 nan nan nan nan nan nan nan nan nan nan nan nan nan nan nan nan nan nan
 nan nan nan nan nan nan nan nan nan nan nan nan nan nan nan nan nan nan
 nan nan nan nan nan nan nan nan nan nan nan nan nan nan nan nan nan nan
 nan nan nan nan nan nan nan nan nan nan nan nan nan nan nan nan nan nan
 nan nan nan nan nan nan nan nan nan nan nan nan nan nan]",,,6.105755,
012,1,1,csp,16a.png,1,1,8,19,4,1,1,687,neg_feedback_onset,4,"[-0.22359656 -0.27368772 -0.30823335 -0.32896072 -0.33241528 -0.31859703
 -0.28923325 -0.24432394 -0.18732366 -0.11995969 -0.04568659  0.03204107
  0.10804144  0.18058726  0.24795123  0.31013335  0.36886092  0.42240664
  0.47422508  0.5277708   0.5830438   0.64004408  0.70395349  0.76959018
  0.83868143  0.90949996  0.97859121  1.04595518  1.10813731  1.16513759
  1.21350147  1.25322894  1.28604728  1.3119565   1.33441116  1.35168397
  1.36895678  1.3862296   1.40522969  1.43113891  1.46395725  1.505412
  1.55723044  1.61941257  1.69195838  1.77659517  1.86986836  1.97350523
  2.08232395  2.1980518   2.31550693  2.43296205  2.55041718  2.66269047
  2.7697819   2.8716915   2.96496469  3.04960147  3.12560185  3.19123854
  3.24823882  3.2966027   3.33460289  3.36396667  3.3881486   3.40542142
  3.41923967  3.4347852   3.45205801  3.47623995  3.51251286  3.56260401
  3.62996798  3.71633205  3.82687805  3.95642415  4.10497034  4.26906206
  4.44351747  4.62142744  4.79415557  4.95306545  5.09470251  5.20870308
  5.29161258  5.34170374  5.35724927  5.34343102  5.30370355  5.24670327
  5.18279386  5.11888445  5.06706601  5.03770223  5.03942951  5.07397514
  5.14824823  5.25879424  5.40215858  5.57315943  5.76488765  5.96525228
  6.16734419  6.3607997   6.53870967  6.6924377   6.82025652  6.91871155
  6.9878028   7.03098484  7.04998493  7.04998493  7.0344394   7.01198474
  6.98262096  6.95325718  6.92734796  6.90662058  6.89280233  6.88762049
  6.89107505  6.9048933   6.92907524  6.96362087  7.0068029   7.06034862
  7.12253074  7.19334928  7.26934965  7.35053187  7.43344137  7.51635088
  7.5975331   7.67353347  7.74262472  7.80480685  7.85835257  7.9015346
  7.93780751  7.96717129  7.98962595  8.00862604  8.02244429  8.03453526
  8.04489895  8.05353536  8.06044448  8.06908089  8.07599001  8.08289914
  8.08980826  8.09671739  8.10362651  8.11053564  8.11744476  8.12435389
  8.13126301  8.13817214  8.14508126  8.15199039  8.15889951  8.16753592
  8.17444505  8.18135417  8.1882633   8.19517242  8.20208155  8.20899067
  8.2158998   8.22280892  8.22971805  8.23662717  8.2435363   8.25044542
  8.25735455  8.26426367  8.2711728   8.27808192  8.28499105  8.29190017
  8.30053658  8.30744571  8.31435483  8.32126396  8.32817308  8.33508221
  8.34199133  8.34890046  8.35580958  8.36271871  8.36962783  8.37653696
  8.38344608  8.39035521  8.39726433  8.40417346  8.41108258  8.41799171
  8.42490083  8.43353724  8.44044636  8.44735549  8.45426461  8.46117374
  8.46808286  8.47499199  8.48190111  8.48881024  8.49571937  8.50262849
  8.50953762  8.51644674  8.52335587  8.53026499  8.53717412  8.54408324
  8.55099237  8.55790149  8.56481062  8.57344702  8.58035615  8.58726527
  8.5941744   8.60108352  8.60799265  8.61490177  8.6218109   8.62872002
  8.63562915  8.64253827  8.6494474   8.65635652  8.66326565  8.67017477
  8.6770839   8.68399303  8.69090215  8.69781128  8.70644768  8.71335681
  8.72026593  8.72717506  8.73408418  8.74099331  8.74790243  8.75481156
  8.76172068  8.76862981  8.77553893  8.78244806  8.78935718  8.79626631
  8.80317543  8.81008456  8.81699368  8.82390281  8.83081193  8.83944834
  8.84635747  8.85326659]","[nan nan nan nan nan nan nan nan nan nan nan nan nan nan nan nan nan nan
 nan nan nan nan nan nan nan nan nan nan nan nan nan nan nan nan nan nan
 nan nan nan nan nan nan nan nan nan nan nan nan nan nan nan nan nan nan
 nan nan nan nan nan nan nan nan nan nan nan nan nan nan nan nan nan nan
 nan nan nan nan nan nan nan nan nan nan nan nan nan nan nan nan nan nan
 nan nan nan nan nan nan nan nan nan nan nan nan nan nan nan nan nan nan
 nan nan nan nan nan nan nan nan nan nan nan nan nan nan nan nan nan nan
 nan nan nan nan nan nan nan nan nan nan nan nan nan nan]",8.782694812961982,,5.789444999999999,
012,1,1,csm,28b.png,1,1,40,29,39,1,1,570,neu_feedback_onset,5,"[-0.23158022 -0.20847994 -0.17547956 -0.13587909 -0.08637851 -0.03027786
  0.03077286  0.0934736   0.15287429  0.20732493  0.2469254   0.27002567
  0.27167569  0.24527538  0.19082474  0.10667375 -0.00717758 -0.14577921
 -0.30748111 -0.48733321 -0.68038548 -0.88168784 -1.08464022 -1.28429256
 -1.48064486 -1.66874707 -1.84694916 -2.01360111 -2.17035295 -2.31720467
 -2.45250626 -2.57625771 -2.69175906 -2.79406026 -2.88646134 -2.96401225
 -3.02836301 -3.07456355 -3.10096386 -3.1042639  -3.08446367 -3.0366131
 -2.96401225 -2.86501109 -2.74455968 -2.60265802 -2.4475562  -2.28420428
 -2.11590231 -1.94760034 -1.78754846 -1.63409666 -1.492195   -1.36019345
 -1.23974204 -1.1258907  -1.02028946 -0.91798826 -0.81733708 -0.7166859
 -0.61603472 -0.5120835  -0.40648227 -0.29758099 -0.18537967 -0.06987832
  0.05057309  0.17597456  0.30632609  0.44492772  0.58682938  0.73533112
  0.88878292  1.04223472  1.1940365   1.3392382   1.47453979  1.59829124
  1.7055425   1.79464354  1.86559437  1.92169503  1.96624555  1.99924594
  2.02729627  2.05369658  2.08174691  2.11309728  2.14609766  2.18074807
  2.21704849  2.25004888  2.27809921  2.30119948  2.31274962  2.31769968
  2.3110996   2.29789944  2.27644919  2.24674884  2.21209844  2.17249797
  2.12794745  2.07679685  2.01904617  1.9530454   1.87549449  1.78639345
  1.68079221  1.56034079  1.42338919  1.26993739  1.10658547  0.93498346
  0.76008141  0.59012942  0.42842752  0.27992578  0.14792423  0.03242288
 -0.06327824 -0.14247917 -0.20682993 -0.25798052 -0.30088103 -0.33553143
 -0.36523178 -0.39163209 -0.41308234 -0.43288258 -0.45103279 -0.46588296
 -0.4774331  -0.48733321 -0.49393329 -0.49723333 -0.49723333 -0.49558331
 -0.49063325 -0.48403318 -0.4774331  -0.46753298 -0.45598285 -0.44443271
 -0.43288258 -0.42133244 -0.40813229 -0.39493213 -0.383382   -0.37018184
 -0.35698169 -0.34378153 -0.33058138 -0.31738122 -0.30418107 -0.29098091
 -0.27613074 -0.26128056 -0.24643039 -0.22828018 -0.20847994 -0.18537967
 -0.15732934 -0.12597898 -0.08637851 -0.04182799  0.01097263  0.07367336
  0.14297418  0.22052509  0.30632609  0.40037719  0.49937836  0.60332957
  0.71223085  0.82278215  0.93663348  1.05213484  1.16928621  1.28643758
  1.40358896  1.52239035  1.63954172  1.75834312  1.87714451  1.9959459
  2.11309728  2.23189867  2.35070006  2.46950145  2.58665283  2.70545422
  2.82425561  2.94305701  3.06020838  3.17900977  3.29616115  3.41331252
  3.53046389  3.64431523  3.75816656  3.86706784  3.9743191   4.07497028
  4.1706714   4.26142247  4.34392343  4.41982432  4.48912513  4.55347589
  4.61287659  4.67227728  4.733328    4.79602873  4.86532955  4.9379304
  5.01878135  5.10128231  5.18708332  5.26958429  5.34548518  5.40983593
  5.45273643  5.47418668  5.46593659  5.4246861   5.35373527  5.25143407
  5.12438258  4.97918088  4.82572908  4.67227728  4.5287256   4.40497415
  4.30927303  4.24327225  4.21027187  4.20862185  4.23502216  4.28452274
  4.34722347  4.41652428  4.4858251   4.54852583  4.59802641  4.63267682
  4.65082703  4.65247705  4.63762688  4.60957655  4.56997608  4.52542556
  4.477575    4.42972444  4.38517392  4.34722347  4.3158731   4.29112281
  4.27627264  4.26637252]","[nan nan nan nan nan nan nan nan nan nan nan nan nan nan nan nan nan nan
 nan nan nan nan nan nan nan nan nan nan nan nan nan nan nan nan nan nan
 nan nan nan nan nan nan nan nan nan nan nan nan nan nan nan nan nan nan
 nan nan nan nan nan nan nan nan nan nan nan nan nan nan nan nan nan nan
 nan nan nan nan nan nan nan nan nan nan nan nan nan nan nan nan nan nan
 nan nan nan nan nan nan nan nan nan nan nan nan nan nan nan nan nan nan
 nan nan nan nan nan nan nan nan nan nan nan nan nan nan nan nan nan nan
 nan nan nan nan nan nan nan nan nan nan nan nan nan nan]",4.74904443254596,,6.060535000000001,0.22207500000000024
012,1,1,csp,40a.png,1,1,184,162,179,1,1,476,pos_feedback_onset,6,"[nan nan nan nan nan nan nan nan nan nan nan nan nan nan nan nan nan nan
 nan nan nan nan nan nan nan nan nan nan nan nan nan nan nan nan nan nan
 nan nan nan nan nan nan nan nan nan nan nan nan nan nan nan nan nan nan
 nan nan nan nan nan nan nan nan nan nan nan nan nan nan nan nan nan nan
 nan nan nan nan nan nan nan nan nan nan nan nan nan nan nan nan nan nan
 nan nan nan nan nan nan nan nan nan nan nan nan nan nan nan nan nan nan
 nan nan nan nan nan nan nan nan nan nan nan nan nan nan nan nan nan nan
 nan nan nan nan nan nan nan nan nan nan nan nan nan nan nan nan nan nan
 nan nan nan nan nan nan nan nan nan nan nan nan nan nan nan nan nan nan
 nan nan nan nan nan nan nan nan nan nan nan nan nan nan nan nan nan nan
 nan nan nan nan nan nan nan nan nan nan nan nan nan nan nan nan nan nan
 nan nan nan nan nan nan nan nan nan nan nan nan nan nan nan nan nan nan
 nan nan nan nan nan nan nan nan nan nan nan nan nan nan nan nan nan nan
 nan nan nan nan nan nan nan nan nan nan nan nan nan nan nan nan nan nan
 nan nan nan nan nan nan nan nan]","[-0.25343263 -0.45259383 -0.66171309 -0.87913073 -1.09322902 -1.29239022
 -1.46001756 -1.57619493 -1.6210062  -1.57453525 -1.421845   -1.1513177
 -0.75963401 -0.24513424  0.38056386  1.10584256  1.91410509  2.78045631
  3.67834139  4.58286517  5.46415347  6.29067245  7.03254792  7.6665444
  8.1644474   8.5129795   8.69886329  8.72209876  8.59596333  8.33705378
  7.97524426  7.54040898  7.06906081  6.5927336   6.14296123  5.74131948
  5.40108576  5.13221814  4.93305694  4.80028281  4.72725704  4.70070221
  4.71231995  4.75381186  4.8152199   4.89156503  4.97786821  5.06915043
  5.163752    5.26167292  5.36125352  5.46083412  5.56041472  5.65999532
  5.75957592  5.8608162   5.9603968   6.06163707  6.16287735  6.2657773
  6.37033693  6.47821591  6.58775457  6.70393194  6.82342866  6.94956409
  7.08067854  7.21511235  7.34954616  7.48066062  7.59849766  7.69641858
  7.76778468  7.80263789  7.79599918  7.74288953  7.64496861  7.50223641
  7.32465101  7.11885111  6.89645443  6.67073841  6.45332076  6.25747892
  6.08985158  5.96371615  5.88405167  5.85417749  5.87741296  5.95209841
  6.07657416  6.2442015   6.44668206  6.67073841  6.90475282  7.13212852
  7.33626875  7.49725738  7.60015734  7.62505249  7.55866542  7.3893784
  7.10723337  6.71223032  6.20602894  5.59194858  4.88326664  4.08828152
  3.22524966  2.30910814  1.35313438  0.37392515 -0.61358246 -1.59611105
 -2.55540416 -3.47984406 -4.34951463 -5.14947878 -5.86479942 -6.48385881
 -6.99171987 -7.38506324 -7.65890989 -7.81823885 -7.86802915 -7.8215582
 -7.69210342 -7.49626158 -7.24896976 -6.97014408 -6.67140228 -6.36934112
 -6.07557836 -5.80007203 -5.54946085 -5.33038353 -5.14284007 -4.99014982
 -4.8706531  -4.77937088]",,4.4621236890628975,6.267950000000001,0.4952849999999991
012,1,1,csm,66b.png,1,1,124,304,303,0,1,543,neu_feedback_onset,7,"[ 3.79173474  2.96304318  2.15506891  1.3904126   0.68037461  0.04567221
 -0.50239426 -0.95252445 -1.29153463 -1.51942481 -1.6343116  -1.63996177
 -1.54390888 -1.3536865  -1.08624513 -0.75100173 -0.36302341  0.06827288
  0.52970341  1.01373462  1.51659973  2.02888178  2.55058079  3.07981336
  3.6128127   4.155229    4.70706224  5.27396261  5.85593009  6.46238164
  7.09896743  7.76568746  8.47195868  9.21213091  9.98620417 10.78664488
 11.60026932 12.41577716 13.21433448 13.98464096 14.70974607 15.38023288
 15.99045121 16.53851768 17.03008245 17.46702891 17.8606574  18.21850148
 18.54621133 18.85320388 19.13947915 19.40503713 19.6517612  19.87211782
 20.06045682 20.2130114  20.32224801 20.38251649 20.39193344 20.35049886
 20.25632937 20.11507512 19.93426969 19.71956324 19.4841395  19.23553203
 18.98692457 18.74585066 18.52361065 18.32585471 18.16199978 18.03581266
 17.94540994 17.89644181 17.88325808 17.90397537 17.9529435  18.0282791
 18.1224486  18.23168521 18.35410555 18.48405946 18.61966353 18.76091778
 18.90782219 19.05849338 19.21669813 19.38243645 19.56324188 19.75911443
 19.97947105 20.22619513 20.50682023 20.82511312 21.1829572  21.58035248
 22.01353216 22.47872947 22.96276067 23.45620883 23.94589021 24.41862108
 24.86498449 25.27744688 25.65412486 25.99313504 26.30201099 26.58640287
 26.85761101 27.12505238 27.39814392 27.68441919 27.98764496 28.31158803
 28.6524816  29.0084423  29.36816977 29.72789724 30.07444099 30.40026744
 30.69407627 30.9502173  31.15927358 31.31559494 31.41164782 31.44554884
 31.41164782 31.31182816 31.14420646 30.91443289 30.63004101 30.30421456
 29.95202064 29.59229317 29.24386603 28.93122331 28.66754872 28.47167617
 28.34737244 28.2984043  28.3172382  28.38880701 28.49992702 28.62423075
 28.74288432 28.83140364 28.87472161 28.85965449 28.77866873 28.63176431
 28.42082464 28.15526666 27.84074055 27.48854664 27.10998526 26.71258999
 26.30201099 25.88201504 25.45825231 25.0307228  24.60319329 24.171897
 23.73871732 23.29988747 22.85352406 22.3977437  21.930663   21.44663179
 20.94565008 20.42583446 19.88530155 19.32781814 18.75903439 18.18648385
 17.61958349 17.06775024 16.54793463 16.06578681 15.63637391 15.26346271
 14.94893659 14.69656234 14.50068979 14.35755216 14.25773249 14.19558063
 14.15979622 14.14849588 14.15037927 14.163563   14.18428029 14.21064774
 14.23889859 14.26903283 14.29916707 14.3311847  14.36320233 14.39333657
 14.4253542  14.45737182 14.48938945 14.52140708 14.55342471 14.58544234
 14.61745997 14.65136098 14.685262   14.7229298  14.7605976  14.80391557
 14.85100032 14.90373523 14.9658871  15.03368914 15.11090812 15.19566067
 15.28418    15.37458271 15.46310204 15.54220441 15.60812306 15.65520781
 15.67969188 15.67969188 15.65332442 15.60247289 15.52713729 15.43485119
 15.32373118 15.20131084 15.06759016 14.9282193  14.78508167 14.64006065
 14.49315623 14.3500186  14.20876435 14.07316028 13.94508977 13.83020298
 13.73038332 13.64939755 13.59101246 13.55711144 13.5476945  13.564645
 13.60419619 13.6588145  13.72661654 13.79818535 13.86787078 13.93190604
 13.98652435 14.02607553 14.05432638 14.0693935  14.07316028 14.06562672
 14.04867621 14.02419214]","[-2.07475067e+00 -2.01129779e+00 -1.93515433e+00 -1.83997500e+00
 -1.72417349e+00 -1.58140450e+00 -1.40690907e+00 -1.19910087e+00
 -9.53220948e-01 -6.70855615e-01 -3.50418551e-01  4.91759850e-03
  3.93566512e-01  8.10769223e-01  1.25176677e+00  1.71021385e+00
  2.18135151e+00  2.65724814e+00  3.13314477e+00  3.60428244e+00
  4.06114320e+00  4.49738178e+00  4.90506655e+00  5.27626592e+00
  5.60146195e+00  5.87113671e+00  6.07735858e+00  6.21219596e+00
  6.26771723e+00  6.24233608e+00  6.13605250e+00  5.95203914e+00
  5.69981392e+00  5.39682640e+00  5.05735348e+00  4.70360365e+00
  4.35302646e+00  4.02624411e+00  3.73436085e+00  3.48848092e+00
  3.29177698e+00  3.14424903e+00  3.04272441e+00  2.98085785e+00
  2.95230405e+00  2.94754509e+00  2.96182199e+00  2.98878946e+00
  3.02368855e+00  3.06651924e+00  3.11252259e+00  3.16169857e+00
  3.21563352e+00  3.27432744e+00  3.33936665e+00  3.41233746e+00
  3.49799885e+00  3.59476450e+00  3.70739337e+00  3.83271282e+00
  3.97072284e+00  4.11349183e+00  4.25784714e+00  4.38951187e+00
  4.50055442e+00  4.57828420e+00  4.60842432e+00  4.58621581e+00
  4.50372706e+00  4.35937175e+00  4.15473620e+00  3.89775202e+00
  3.60110979e+00  3.27750008e+00  2.94119980e+00  2.60648584e+00
  2.28922142e+00  1.99733815e+00  1.74194029e+00  1.52620049e+00
  1.35011874e+00  1.21369504e+00  1.11375674e+00  1.04554489e+00
  1.00271420e+00  9.82092010e-01  9.77333044e-01  9.86850976e-01
  1.00905949e+00  1.04237225e+00  1.08837559e+00  1.14865583e+00
  1.22321297e+00  1.31997862e+00  1.43736645e+00  1.58172176e+00
  1.75463087e+00  1.95926642e+00  2.19562841e+00  2.46213053e+00
  2.76035908e+00  3.08238247e+00  3.42344172e+00  3.77877787e+00
  4.13728666e+00  4.49262281e+00  4.83685470e+00  5.16205073e+00
  5.46027929e+00  5.72836772e+00  5.96314339e+00  6.16301998e+00
  6.32958380e+00  6.46283485e+00  6.56435947e+00  6.64050293e+00
  6.68967891e+00  6.71823271e+00  6.72933696e+00  6.72299168e+00
  6.70236949e+00  6.66905673e+00  6.62939867e+00  6.58180901e+00
  6.53263303e+00  6.48345704e+00  6.43745370e+00  6.39779565e+00
  6.36606920e+00  6.34544702e+00  6.33751541e+00  6.33910173e+00
  6.35337863e+00  6.37400082e+00  6.39938197e+00  6.42476312e+00
  6.44221267e+00  6.44697163e+00  6.42952209e+00  6.38193243e+00]",29.20619823620533,5.719167053993646,5.309575000000001,-0.06370499999999968
012,1,1,csm,30b.png,1,1,228,282,226,1,1,563,neu_feedback_onset,8,"[  4.2117861    4.07492113   3.88051066   3.62233356   3.29572398
   2.89912663   2.43565208   1.9084109    1.3251795    0.69373431
   0.02962815  -0.65625197  -1.34990851  -2.03578863  -2.6983395
  -3.32200828  -3.89435269  -4.40137518  -4.83374406  -5.18523818
  -5.45430226  -5.64404688  -5.76224844  -5.81357281  -5.81201752
  -5.76846958  -5.68915011  -5.58339081  -5.45585755  -5.31432673
  -5.16035364  -5.00015942  -4.84152048  -4.69065796  -4.55534827
  -4.44803369  -4.37493536  -4.34382968  -4.35782724  -4.41537274
  -4.51646618  -4.65022058  -4.80885952  -4.97838544  -5.14635609
  -5.30032918  -5.42786244  -5.52273475  -5.58028025  -5.59894365
  -5.58028025  -5.52895588  -5.45274698  -5.36098524  -5.26144708
  -5.16346421  -5.07325775  -4.99860413  -4.93950335  -4.90062126
  -4.88040257  -4.87418143  -4.88040257  -4.89595541  -4.91306353
  -4.92706108  -4.9348375   -4.93172693  -4.91461881  -4.877292
  -4.81819122  -4.73576118  -4.63000189  -4.50246862  -4.35316139
  -4.1898566   -4.02188595  -3.85702588  -3.70771864  -3.58796179
  -3.51019761  -3.48686835  -3.52886101  -3.64395201  -3.83369662
  -4.10120542  -4.44181256  -4.8492969   -5.31121616  -5.81512809
  -6.34392456  -6.87894216  -7.40307277  -7.89609772  -8.33935358
  -8.71417696  -9.00501501  -9.19787019  -9.28030023  -9.24297342
  -9.08122391  -8.79505171  -8.38912266  -7.87276846  -7.26154195
  -6.57721712  -5.84156791  -5.08414474  -4.33449798  -3.6252886
  -2.98606699  -2.44482825  -2.02645693  -1.752727    -1.63608072
  -1.6858498   -1.90203423  -2.27996818  -2.80409879  -3.45576268
  -4.20229886  -5.0110464   -5.84156791  -6.65031545  -7.39218579
  -8.02829683  -8.51976649  -8.84015494  -8.97546462  -8.92102969
  -8.68618185  -8.29269507  -7.77011973  -7.16044851  -6.50100821
  -5.83690206  -5.20701215  -4.64555473  -4.18052489  -3.83680719
  -3.62373332  -3.55219027  -3.62217803  -3.8259202   -4.15252979
  -4.58956451  -5.11525041  -5.7093688   -6.35170097  -7.02202826
  -7.70013197  -8.3751251   -9.03301012  -9.67223173 -10.28812409
 -10.88535304 -11.46391858 -12.02693129 -12.57750173 -13.11251933
 -13.63042882 -14.12345376 -14.58692831 -15.00996548 -15.38945471
 -15.71917486 -15.99912593 -16.22775264 -16.41438669 -16.56213864
 -16.67878492 -16.77521251 -16.85608726 -16.92763032 -16.99450752
 -17.05827415 -17.1204855  -17.17647571 -17.22468951 -17.26046103
 -17.27756915 -17.26979274 -17.23246593 -17.15781231 -17.04116603
 -16.87941652 -16.66945322 -16.4128314  -16.11110636 -15.76894394
 -15.39412056 -15.00218906 -14.60559171 -14.2245472  -13.87616364
 -13.57754917 -13.34892246 -13.20117051 -13.14206972 -13.17473068
 -13.29604281 -13.49356385 -13.75329623 -14.05813184 -14.38785199
 -14.71912742 -15.03485002 -15.31791166 -15.56053592 -15.75183582
 -15.89181135 -15.98201781 -16.02712104 -16.03334217 -16.01001292
 -15.96490969 -15.90425362 -15.83737642 -15.77049922 -15.70828787
 -15.65385294 -15.610305   -15.57764404 -15.55587007 -15.54653837
 -15.54498308 -15.54964893 -15.55898064 -15.56675705 -15.57297819
 -15.57453347 -15.56675705 -15.54964893 -15.52009854 -15.47966117
 -15.42367095 -15.35368318 -15.26969786 -15.16704914 -15.04573701
 -14.90109562 -14.72845913 -14.51694054 -14.25876344 -13.94304084
 -13.55733048 -13.09541121 -12.54484077 -11.90561916 -11.17619109
 -10.36588827  -9.48715297  -8.55864858  -7.60059381  -6.64098375
  -5.70003709  -4.79952782  -3.95345347  -3.17114575  -2.45571524]","[ -0.54103052  -0.61656976  -0.69519224  -0.76456501  -0.81543837
  -0.84164586  -0.83393778  -0.78768926  -0.69981709  -0.57032125
  -0.40228498  -0.19724991   0.03707589   0.29606757   0.56893379
   0.84950811   1.12699919   1.39369895   1.63881607   1.85464246
   2.03347005   2.16604912   2.24621321   2.26779585   2.22463057
   2.11209252   1.92247362   1.65114901   1.29349384   0.84488326
   0.30531727  -0.32674575  -1.04668094  -1.8452386   -2.71162742
  -3.62734798  -4.57235927  -5.51891217  -6.44079921  -7.31181287
  -8.10882892  -8.80872309  -9.40224567  -9.88014698 -10.242427
 -10.49371059 -10.64324745 -10.69874566 -10.66791332 -10.56308336
 -10.39196386 -10.16226291  -9.88323021  -9.56565709  -9.22033485
  -8.86113807  -8.49577481  -8.13811964  -7.79588064  -7.47522429
  -7.18077542  -6.91407566  -6.67512501  -6.45929861  -6.26505485
  -6.0893105   -5.92589909  -5.77173738  -5.62374214  -5.48191336
  -5.34316782  -5.20442228  -5.06875998  -4.93155605  -4.79589375
  -4.66023144  -4.52302752  -4.38428198  -4.24399482  -4.09908281
  -3.94800434  -3.78767616  -3.61347343  -3.42077129  -3.20186166
  -2.9536613   -2.66846214  -2.34318093  -1.97627605  -1.57083075
  -1.1330115   -0.67206798  -0.20649961   0.24827744   0.67222214
   1.0468351    1.35515852   1.58331785   1.72206339   1.76522867
   1.71281369   1.5694433    1.33820073   1.03296054   0.6598892
   0.23440288  -0.22962387  -0.72139973  -1.22550852  -1.7280757
  -2.21522671  -2.67462861  -3.09394846  -3.46239495  -3.77225999
  -4.01583549  -4.18541337  -4.27945202  -4.2964098   -4.23782835
  -4.10524928  -3.90638068  -3.64893062  -3.34523205  -3.00915952
  -2.65458758  -2.29847403  -1.95469341  -1.64020352  -1.36887891
  -1.14996928  -0.99118272  -0.89714408  -0.86785335  -0.89868569
  -0.98655787  -1.12222018  -1.29488129  -1.49529152  -1.71574276]",4.929390229335695e-15,-0.9700240261026483,6.429695,0.5904299999999987
012,1,1,csm,26b.png,1,1,76,88,79,1,1,364,neu_feedback_onset,9,"[ 5.12178610e+00  3.91871530e+00  2.84865727e+00  1.92153834e+00
  1.13735853e+00  4.92147283e-01 -2.60069762e-02 -4.34971640e-01
 -7.50628833e-01 -9.84890145e-01 -1.15760823e+00 -1.27870942e+00
 -1.35812003e+00 -1.40378114e+00 -1.42164852e+00 -1.41569273e+00
 -1.38988428e+00 -1.34223791e+00 -1.27870942e+00 -1.19731354e+00
 -1.10202080e+00 -9.90845941e-01 -8.67759489e-01 -7.32761445e-01
 -5.89822339e-01 -4.40927437e-01 -2.86076738e-01 -1.29240775e-01
  2.95804539e-02  1.84431152e-01  3.33326054e-01  4.76265160e-01
  6.09277939e-01  7.30379126e-01  8.39568721e-01  9.32876193e-01
  1.01228681e+00  1.07780056e+00  1.12941746e+00  1.17110804e+00
  1.19890175e+00  1.22073967e+00  1.23265126e+00  1.24059232e+00
  1.24456285e+00  1.24456285e+00  1.24456285e+00  1.24257759e+00
  1.23860706e+00  1.23463653e+00  1.23066600e+00  1.22669547e+00
  1.22073967e+00  1.21676914e+00  1.21279861e+00  1.20882808e+00
  1.20287228e+00  1.19890175e+00  1.19493122e+00  1.19096069e+00
  1.18699016e+00  1.18301963e+00  1.18103436e+00  1.18103436e+00
  1.18500489e+00  1.19096069e+00  1.20485755e+00  1.23066600e+00
  1.26838604e+00  1.32595873e+00  1.40933988e+00  1.52647054e+00
  1.68330650e+00  1.88580357e+00  2.14388806e+00  2.46153052e+00
  2.84270147e+00  3.28938618e+00  3.79959937e+00  4.37135580e+00
  4.99869965e+00  5.67766040e+00  6.39831173e+00  7.15271257e+00
  7.93490712e+00  8.73496906e+00  9.54495733e+00  1.03589161e+01
  1.11728749e+01  1.19788927e+01  1.27710135e+01  1.35492376e+01
  1.43076089e+01  1.50461276e+01  1.57608232e+01  1.64556660e+01
  1.71306563e+01  1.77857938e+01  1.84190935e+01  1.90345257e+01
  1.96241496e+01  2.01899502e+01  2.07220013e+01  2.12163324e+01
  2.16669876e+01  2.20660260e+01  2.24134474e+01  2.27032961e+01
  2.29375574e+01  2.31162313e+01  2.32432883e+01  2.33246842e+01
  2.33663748e+01  2.33723306e+01  2.33544632e+01  2.33147579e+01
  2.32591704e+01  2.31976272e+01  2.31360840e+01  2.30765260e+01
  2.30268944e+01  2.29951301e+01  2.29832186e+01  2.29971154e+01
  2.30407912e+01  2.31162313e+01  2.32254209e+01  2.33683600e+01
  2.35410781e+01  2.37415899e+01  2.39659249e+01  2.42101125e+01
  2.44681970e+01  2.47381931e+01  2.50161303e+01  2.52960527e+01
  2.55720046e+01  2.58400154e+01  2.60921441e+01  2.63184644e+01
  2.65070646e+01  2.66480184e+01  2.67274290e+01  2.67353701e+01
  2.66639005e+01  2.65110351e+01  2.62747885e+01  2.59650871e+01
  2.55938425e+01  2.51749515e+01  2.47302521e+01  2.42815821e+01
  2.38448237e+01  2.34398296e+01  2.30785113e+01  2.27727804e+01
  2.25266075e+01  2.23399926e+01  2.22109503e+01  2.21355102e+01
  2.21057313e+01  2.21176429e+01  2.21613187e+01  2.22327882e+01
  2.23241105e+01  2.24273443e+01  2.25345486e+01  2.26357971e+01
  2.27231488e+01  2.27807215e+01  2.28005741e+01  2.27648394e+01
  2.26635908e+01  2.24769759e+01  2.21910977e+01  2.17880888e+01
  2.12540524e+01  2.05711211e+01  1.97333392e+01  1.87347507e+01
  1.75793262e+01  1.62809627e+01  1.48654685e+01  1.33705637e+01
  1.18399241e+01  1.03331077e+01  8.91165768e+00  7.64108785e+00
  6.57897088e+00  5.78486473e+00  5.30045999e+00  5.15553561e+00
  5.36200321e+00  5.90993645e+00  6.77551215e+00  7.91306920e+00
  9.26900544e+00  1.07758219e+01  1.23660194e+01  1.39720991e+01
  1.55305324e+01  1.69916877e+01  1.83138744e+01  1.94732694e+01
  2.04559757e+01  2.12600082e+01  2.18952931e+01  2.23796979e+01
  2.27310899e+01  2.29713070e+01  2.31241724e+01  2.32075535e+01
  2.32393178e+01  2.32373325e+01  2.32115241e+01  2.31777746e+01
  2.31460103e+01  2.31241724e+01  2.31221871e+01  2.31460103e+01
  2.31976272e+01  2.32790231e+01  2.33862274e+01  2.35132844e+01
  2.36522530e+01  2.37951921e+01  2.39282049e+01  2.40473208e+01
  2.41445988e+01  2.42160683e+01  2.42597442e+01  2.42815821e+01
  2.42835674e+01  2.42736410e+01  2.42577589e+01  2.42398915e+01
  2.42279799e+01  2.42240094e+01  2.42279799e+01  2.42458473e+01
  2.42716558e+01  2.43054053e+01  2.43451106e+01  2.43907717e+01
  2.44364328e+01  2.44860644e+01  2.45337108e+01  2.45833424e+01
  2.46309888e+01  2.46766499e+01  2.47242963e+01  2.47699574e+01
  2.48156185e+01  2.48592943e+01  2.49029702e+01  2.49466460e+01
  2.49883366e+01  2.50240713e+01  2.50578209e+01  2.50816440e+01]","[ -2.09161981  -2.1143441   -2.08101514  -1.99314787  -1.84922734
  -1.6507685   -1.40080126  -1.10235552  -0.75997615  -0.38275287
   0.02173958   0.43683669   0.84890389   1.24279166   1.59880561
   1.90482611   2.14873354   2.32446808   2.42899984   2.46990357
   2.45475404   2.39870078   2.31689332   2.22448119   2.13509896
   2.05935131   2.00329805   1.96845413   1.95784946   1.96845413
   1.99572329   2.03662702   2.08662047   2.14570363   2.20933166
   2.27447463   2.34264752   2.41233535   2.48202319   2.55171103
   2.62139886   2.69260165   2.76228949   2.83349228   2.90318011
   2.9743829    3.04407074   3.11527353   3.18496136   3.25616415
   3.32585199   3.39553983   3.46674262   3.53643045   3.60763324
   3.67732108   3.74852387   3.8182117    3.88941449   3.95910233
   4.03030512   4.09999296   4.16968079   4.24088358   4.31057142
   4.38177421   4.45146204   4.52266483   4.59235267   4.66204051
   4.73172834   4.80141618   4.86807411   4.93321709   4.9938152
   5.04835351   5.09228715   5.12107125   5.13016097   5.10743668
   5.04835351   4.9392769    4.77263207   4.53629941   4.22270415
   3.82881637   3.35009124   2.79107359   2.15933821   1.4670047
   0.73225252  -0.02825387  -0.79330512  -1.54320684  -2.25826464
  -2.92484394  -3.53385503  -4.07620819  -4.55493333  -4.97003044
  -5.3321042   -5.64569947  -5.92293586  -6.1729031   -6.39863109
  -6.60617964  -6.79706372  -6.9682534   -7.11671879  -7.23942998
  -7.32881221  -7.38486547  -7.40152995  -7.38032061  -7.32123744
  -7.23034027  -7.11368889  -6.97582817  -6.82736278  -6.67738243
  -6.5334619   -6.40317595  -6.29409933  -6.21380683  -6.16987319
  -6.16835824  -6.21683673  -6.32288344  -6.49407313  -6.7364656
  -7.05763563  -7.45606826  -7.93630835  -8.48926618  -9.10736699
  -9.77394629 -10.47233961 -11.17527779 -11.86003653 -12.49934668]",24.377371151314936,3.095692761478978,5.03711,0.3187899999999999
012,1,1,csm,36b.png,1,1,80,89,84,1,1,634,neu_feedback_onset,10,"[nan nan nan nan nan nan nan nan nan nan nan nan nan nan nan nan nan nan
 nan nan nan nan nan nan nan nan nan nan nan nan nan nan nan nan nan nan
 nan nan nan nan nan nan nan nan nan nan nan nan nan nan nan nan nan nan
 nan nan nan nan nan nan nan nan nan nan nan nan nan nan nan nan nan nan
 nan nan nan nan nan nan nan nan nan nan nan nan nan nan nan nan nan nan
 nan nan nan nan nan nan nan nan nan nan nan nan nan nan nan nan nan nan
 nan nan nan nan nan nan nan nan nan nan nan nan nan nan nan nan nan nan
 nan nan nan nan nan nan nan nan nan nan nan nan nan nan nan nan nan nan
 nan nan nan nan nan nan nan nan nan nan nan nan nan nan nan nan nan nan
 nan nan nan nan nan nan nan nan nan nan nan nan nan nan nan nan nan nan
 nan nan nan nan nan nan nan nan nan nan nan nan nan nan nan nan nan nan
 nan nan nan nan nan nan nan nan nan nan nan nan nan nan nan nan nan nan
 nan nan nan nan nan nan nan nan nan nan nan nan nan nan nan nan nan nan
 nan nan nan nan nan nan nan nan nan nan nan nan nan nan nan nan nan nan
 nan nan nan nan nan nan nan nan]","[-0.77801754 -0.71862689 -0.66088598 -0.60314506 -0.54045493 -0.47446532
 -0.400227   -0.32103947 -0.23525297 -0.14451725 -0.04718257  0.05675107
  0.16563393  0.27946601  0.39824732  0.52362758  0.65560681  0.79583474
  0.94431137  1.10433618  1.27590917  1.46232983  1.66194841  1.87641465
  2.10407882  2.34659065  2.60065066  2.86460911  3.13351678  3.4040742
  3.67298187  3.93859007  4.19429982  4.44011113  4.67107477  4.8888405
  5.09010882  5.27652947  5.44645273  5.59987858  5.73845677  5.86053755
  5.96777067  6.05685665  6.12944523  6.18388666  6.22018094  6.23997783
  6.24162757  6.23172913  6.20698302  6.17233847  6.12944523  6.07995302
  6.02551158  5.96942041  5.90838002  5.84733963  5.78629924  5.7236091
  5.65926923  5.5965791   5.53388897  5.46954909  5.40685896  5.34251909
  5.27982895  5.21548908  5.15279895  5.08845908  5.02576894  4.96142907
  4.89873894  4.83604881  4.77170893  4.7090188   4.64467893  4.58198879
  4.51764892  4.45495879  4.39226866  4.32957852  4.26853813  4.20914748
  4.15305631  4.09861488  4.05242215  4.01117864  3.98148331  3.96333617
  3.96003669  3.97158487  4.0012802   4.04582319  4.10521384  4.17780241
  4.25863969  4.34442619  4.42856294  4.50940022  4.58528828  4.65127789
  4.7090188   4.75686127  4.79810478  4.83109958  4.85749543  4.88059179
  4.90038868  4.91853582  4.93503323  4.95153063  4.96637829  4.98122596
  4.99607362  5.01092128  5.02576894  5.04061661  5.05546427  5.07031193
  5.0851596   5.09835752  5.11320518  5.12805284  5.14290051  5.15774817
  5.17259583  5.1874435   5.20229116  5.21713882  5.23033674  5.24518441
  5.26003207  5.27487973  5.2897274   5.30457506  5.31942272  5.33427039
  5.34911805  5.36231597]",,5.4495047479526715,6.2992799999999995,-0.34471000000000096
012,1,1,csp,33a.png,1,1,280,275,278,1,1,528,neg_feedback_onset,11,"[ 1.77386357  1.59354493  1.40480018  1.21099977  1.01382892  0.81497285
  0.617802    0.42231637  0.2318864   0.04482688 -0.13717699 -0.31412518
 -0.48770294 -0.65791026 -0.82643235 -0.99326923 -1.16179132 -1.33536908
 -1.5140025  -1.70106203 -1.89823288 -2.10382983 -2.31785289 -2.53861684
 -2.75938078 -2.97677428 -3.18068602 -3.3643751  -3.51941543 -3.64075134
 -3.71995672 -3.75366114 -3.74017937 -3.67951142 -3.5733425  -3.42672828
 -3.24303919 -3.02733091 -2.78297388 -2.52007941 -2.23864751 -1.94373384
 -1.64039407 -1.33199864 -1.02191798 -0.71520777 -0.41523844 -0.12538044
  0.14762536  0.4004085   0.63128377  0.83351028  1.01045848  1.15875792
  1.28009383  1.38120709  1.4620977   1.53287698  1.60028581  1.66937987
  1.7519557   1.85475418  1.98283097  2.14124174  2.33335693  2.56086175
  2.822071    3.11361423  3.43043576  3.76410951  4.10957981  4.45673532
  4.79714995  5.12576804  5.43247825  5.71559537  5.96837851  6.19082768
  6.37957243  6.53629797  6.66100432  6.75706192  6.82447076  6.86660128
  6.88850915  6.89187959  6.88176827  6.86323084  6.83795252  6.81435943
  6.79413678  6.78402545  6.7873959   6.80761855  6.84806385  6.9087318
  6.99130763  7.09242089  7.21038635  7.34183359  7.48002171  7.61820982
  7.75471272  7.88278951  7.99906976  8.10018301  8.18444406  8.25522334
  8.31420608  8.36139226  8.39846712  8.43048632  8.45744986  8.47935773
  8.49452472  8.5012656   8.49620994  8.47598729  8.43891243  8.38498536
  8.31420608  8.23163025  8.1389431   8.04457072  7.95525401  7.87941907
  7.82212156  7.78673192  7.77830581  7.79178758  7.82886244  7.88110429
  7.94514269  8.01423675  8.08333081  8.14905442  8.20972238  8.26364945
  8.31252085  8.35802182  8.40183756  8.44565331  8.49115428  8.53497002
  8.57541532  8.60911974  8.63102761  8.63439806  8.61586063  8.57204488
  8.49958038  8.39846712  8.26870511  8.11197956  7.93166092  7.72943441
  7.5120409   7.28116563  7.04017904  6.79245156  6.53966842  6.28182961
  6.01893514  5.75435545  5.4847201   5.21171431  4.93365285  4.64885051
  4.36067773  4.06744928  3.7708504   3.47088107  3.17259696  2.87599807
  2.58445485  2.29965251  2.02496149  1.76206702  1.51433955  1.28177905
  1.06775599  0.87227036  0.69700738  0.54365228  0.41220504  0.30098046
  0.21334897  0.14425491  0.09538351  0.06504953  0.04988254  0.04819732
  0.06167909  0.08864262  0.1274027   0.18132977  0.24873861  0.32962922
  0.42400159  0.53017051  0.64476554  0.76778666  0.89417824  1.01888459
  1.14022049  1.2531303   1.35592878  1.44693071  1.52445087  1.58848927
  1.64241634  1.68454686  1.7199365   1.74690004  1.76712269  1.78566012
  1.79914189  1.81262365  1.8244202   1.83453153  1.84464285  1.85475418
  1.86318028  1.87329161  1.88171771  1.89182904  1.90194036  1.91036647
  1.92047779  1.9289039   1.93901522  1.94912655  1.95755265  1.96766398
  1.97609009  1.98620141  1.99631274  2.00473884  2.01485017  2.02327627
  2.0333876   2.0418137   2.05192503  2.06203635  2.07046246  2.08057378
  2.08899989  2.09911121  2.10922254  2.11764864  2.12775997  2.13618608
  2.1462974   2.15472351  2.16483483  2.17494616  2.18337226  2.19348359
  2.20190969  2.21202102]","[-1.48467801e-01 -2.45174004e-01 -3.48221597e-01 -4.51269190e-01
 -5.47975392e-01 -6.30413467e-01 -6.89071327e-01 -7.16022236e-01
 -7.06510151e-01 -6.52608333e-01 -5.51146087e-01 -4.03708762e-01
 -2.11881705e-01  2.11643902e-02  2.89088132e-01  5.80792087e-01
  8.88349518e-01  1.20224834e+00  1.51139112e+00  1.80943646e+00
  2.08845764e+00  2.34211325e+00  2.57040330e+00  2.77174245e+00
  2.94771603e+00  3.09832405e+00  3.22990790e+00  3.34405293e+00
  3.44710052e+00  3.54222137e+00  3.63258619e+00  3.71978030e+00
  3.80538907e+00  3.89099784e+00  3.97343592e+00  4.05270330e+00
  4.12562928e+00  4.18745784e+00  4.23977431e+00  4.27782265e+00
  4.30001752e+00  4.30477356e+00  4.29526148e+00  4.26831057e+00
  4.22867688e+00  4.17477506e+00  4.10977581e+00  4.03684982e+00
  3.95758244e+00  3.87197367e+00  3.78477955e+00  3.69600009e+00
  3.60722062e+00  3.51844116e+00  3.43441774e+00  3.35039432e+00
  3.27112694e+00  3.19503025e+00  3.12210426e+00  3.05393432e+00
  2.98734972e+00  2.92235047e+00  2.86210726e+00  2.80186405e+00
  2.74320619e+00  2.68613368e+00  2.62906117e+00  2.57357400e+00
  2.51650149e+00  2.46101432e+00  2.40552716e+00  2.35003999e+00
  2.29455282e+00  2.23906566e+00  2.18357849e+00  2.12809133e+00
  2.07260416e+00  2.01711700e+00  1.96162983e+00  1.90772801e+00
  1.85224085e+00  1.79675368e+00  1.74126652e+00  1.68577935e+00
  1.63029219e+00  1.57480502e+00  1.51931786e+00  1.46224534e+00
  1.40675818e+00  1.34968567e+00  1.29102780e+00  1.23236994e+00
  1.17054139e+00  1.10554214e+00  1.03737219e+00  9.64446202e-01
  8.86764171e-01  8.02740749e-01  7.13961284e-01  6.17255082e-01
  5.17378184e-01  4.14330591e-01  3.09697650e-01  2.05064710e-01
  1.00431769e-01 -4.20117110e-03 -1.08834112e-01 -2.15052400e-01
 -3.26026731e-01 -4.43342452e-01 -5.66999563e-01 -7.00168760e-01
 -8.36508652e-01 -9.72848545e-01 -1.10284705e+00 -1.21699207e+00
 -1.30418619e+00 -1.35491731e+00 -1.36125870e+00 -1.31528362e+00
 -1.21699207e+00 -1.06796940e+00 -8.76142342e-01 -6.49437638e-01
 -4.02123415e-01 -1.48467801e-01  1.00431769e-01  3.30307169e-01
  5.33231660e-01  7.04449199e-01  8.43959786e-01  9.51763422e-01
  1.03261615e+00  1.09285936e+00  1.14041978e+00  1.18322417e+00
  1.22444321e+00  1.26883294e+00  1.31797871e+00  1.37346588e+00]",7.692612328402397,3.644198856488804,5.933939999999999,0.19998999999999967
012,1,1,csp,61a.png,1,1,140,155,134,1,1,670,neg_feedback_onset,12,"[ 1.64854783  1.52443068  1.38331117  1.22688956  1.05516582  0.87324068
  0.68111413  0.48558711  0.28665962  0.08943236 -0.10609466 -0.29822121
 -0.48864753 -0.67397314 -0.85589829 -1.03612319 -1.20954716 -1.37787042
 -1.53429204 -1.67371131 -1.78762705 -1.86583786 -1.90154279 -1.88624068
 -1.8097301  -1.6686106  -1.46288217 -1.19254481 -0.86609969 -0.492048
 -0.0788909   0.35636925  0.80013058  1.24219167  1.66725041  2.06680563
  2.42895568  2.75200033  3.02913863  3.26037058  3.4456962   3.58851593
  3.69223027  3.7619399   3.80274554  3.82144812  3.82484859  3.81294695
  3.79254413  3.76023967  3.71773379  3.65822557  3.57491405  3.46439878
  3.3147781   3.12095132  2.87441724  2.57177542  2.21132561  1.79476804
  1.32720342  0.81883316  0.27985868 -0.27441792 -0.82699429 -1.35916784
 -1.84713527 -2.27389425 -2.61394125 -2.85367438 -2.97949177 -2.98289224
 -2.86557602 -2.63944477 -2.3198006  -1.93044679 -1.4985871  -1.04972507
 -0.61106445 -0.20130782  0.1642427   0.47708593  0.73722188  0.94295032
  1.10107217  1.21668815  1.29659919  1.34760624  1.37481     1.38161094
  1.36800906  1.33910506  1.29149849  1.22858979  1.14867875  1.05686606
  0.95485196  0.84943739  0.74232259  0.64370896  0.56039745  0.49918899
  0.46518429  0.46518429  0.50088922  0.57399933  0.68111413  0.81883316
  0.98375596  1.1656811   1.35950788  1.55843538  1.75226216  1.93928801
  2.11271198  2.27083383  2.41195333  2.53777072  2.65168646  2.75200033
  2.84551325  2.9356257   3.02403792  3.11245014  3.20596306  3.30287646
  3.40659079  3.51370559  3.62422087  3.73813661  3.85205235  3.96426786
  4.0730829   4.17849747  4.2771111   4.37062402  4.45563577  4.53554681
  4.60865692  4.67666632  4.73957501  4.79908323  4.85349075  4.90619804
  4.95550485  5.0014112   5.04221683  5.08132224  5.11702717  5.15103187
  5.17993587  5.20883986  5.23434339  5.25814668  5.28194997  5.30405302
  5.32445584  5.34655889  5.36696171  5.38906477  5.40946759  5.42987041
  5.45027323  5.47067605  5.4927791   5.51318192  5.53358474  5.5556878
  5.57779085  5.59989391  5.62369719  5.65090095  5.67980495  5.71380965
  5.75461529  5.8039221   5.86343033  5.93654043  6.02495265  6.13376769
  6.26298554  6.41770693  6.59963207  6.81046121  7.05189457  7.32223193
  7.61977305  7.94111746  8.27946422  8.62801239  8.97656056  9.31660756
  9.63625173  9.92699191 10.18542763 10.4030577  10.57988214 10.71760117
 10.81791504 10.88592443 10.92502984 10.94203219 10.94203219 10.93013054
 10.90802749 10.87912349 10.84681903 10.81281433 10.77540916 10.73970423
 10.70059882 10.66319365 10.62578848 10.58838331 10.54927791 10.51187274
 10.47276734 10.43536217 10.397957   10.35885159 10.32144642 10.28234102
 10.24493585 10.20753068 10.16842528 10.13102011 10.0919147  10.05450953
 10.01710436  9.97799896  9.94059379  9.90148839  9.86408322  9.82667805
  9.78757264  9.75016747  9.7127623   9.6736569   9.63625173  9.59714633
  9.55974116  9.52233599  9.48323058  9.44582541  9.40672001  9.36931484
  9.33190967  9.29280427  9.2553991   9.21629369  9.17888852  9.14148335
  9.10237795  9.06497278  9.02586737  8.98846221  8.95105704  8.91195163
  8.87454646  8.83544106]","[-9.11475873e-01 -8.21675294e-01 -7.28667552e-01 -6.35659810e-01
 -5.44255649e-01 -4.52851489e-01 -3.63050911e-01 -2.73250332e-01
 -1.85053335e-01 -9.52527566e-02 -3.84859622e-03  9.07627276e-02
  1.91788379e-01  2.97624775e-01  4.11479080e-01  5.33351293e-01
  6.61637834e-01  7.99545866e-01  9.40661061e-01  1.08819058e+00
  1.23572010e+00  1.38164604e+00  1.52276124e+00  1.65585853e+00
  1.77612716e+00  1.88035997e+00  1.96534981e+00  2.02628591e+00
  2.06156471e+00  2.06797904e+00  2.04552889e+00  1.99421428e+00
  1.91403519e+00  1.80659521e+00  1.67189434e+00  1.51634691e+00
  1.33995292e+00  1.14912669e+00  9.43868224e-01  7.28988268e-01
  5.07693985e-01  2.79985375e-01  5.06731836e-02 -1.81846172e-01
 -4.12761945e-01 -6.42074137e-01 -8.64972001e-01 -1.08305912e+00
 -1.28992117e+00 -1.48235098e+00 -1.65714139e+00 -1.80627449e+00
 -1.92975029e+00 -2.02115445e+00 -2.08048698e+00 -2.10935145e+00
 -2.10774787e+00 -2.08209056e+00 -2.04039743e+00 -1.98747923e+00
 -1.93456104e+00 -1.88645358e+00 -1.84957120e+00 -1.82551748e+00
 -1.81910315e+00 -1.82872464e+00 -1.85117478e+00 -1.88805716e+00
 -1.93456104e+00 -1.98747923e+00 -2.04681176e+00 -2.10935145e+00
 -2.17349472e+00 -2.24084515e+00 -2.30659200e+00 -2.37233886e+00
 -2.43808571e+00 -2.50062540e+00 -2.55995792e+00 -2.61447970e+00
 -2.65937999e+00 -2.69626237e+00 -2.71871252e+00 -2.72512684e+00
 -2.71229819e+00 -2.68022655e+00 -2.62891194e+00 -2.55995792e+00
 -2.47817525e+00 -2.38677109e+00 -2.29376335e+00 -2.20716993e+00
 -2.13019801e+00 -2.07086549e+00 -2.03237952e+00 -2.01474012e+00
 -2.01794729e+00 -2.03879385e+00 -2.07407265e+00 -2.11897294e+00
 -2.16868397e+00 -2.21839501e+00 -2.26329530e+00 -2.30178126e+00
 -2.33064573e+00 -2.34828513e+00 -2.35469946e+00 -2.34988871e+00
 -2.33385289e+00 -2.30979917e+00 -2.28253828e+00 -2.25207022e+00
 -2.22641292e+00 -2.21198068e+00 -2.21358426e+00 -2.24084515e+00
 -2.29857410e+00 -2.39799616e+00 -2.54392210e+00 -2.74276624e+00
 -2.99452858e+00 -3.30241628e+00 -3.66642934e+00 -4.08015343e+00
 -4.53877781e+00 -5.03268100e+00 -5.55544865e+00 -6.09425212e+00
 -6.63946992e+00 -7.17666981e+00 -7.69141955e+00 -8.17409766e+00
 -8.60706474e+00 -8.98069929e+00 -9.28377624e+00 -9.50346694e+00
 -9.63816781e+00 -9.68146452e+00 -9.63496065e+00 -9.50346694e+00]",9.811078391033638,0.8490965420362924,5.88154,-0.1340300000000001
012,1,1,csp,10a.png,1,1,112,135,108,1,1,331,pos_feedback_onset,13,"[nan nan nan nan nan nan nan nan nan nan nan nan nan nan nan nan nan nan
 nan nan nan nan nan nan nan nan nan nan nan nan nan nan nan nan nan nan
 nan nan nan nan nan nan nan nan nan nan nan nan nan nan nan nan nan nan
 nan nan nan nan nan nan nan nan nan nan nan nan nan nan nan nan nan nan
 nan nan nan nan nan nan nan nan nan nan nan nan nan nan nan nan nan nan
 nan nan nan nan nan nan nan nan nan nan nan nan nan nan nan nan nan nan
 nan nan nan nan nan nan nan nan nan nan nan nan nan nan nan nan nan nan
 nan nan nan nan nan nan nan nan nan nan nan nan nan nan nan nan nan nan
 nan nan nan nan nan nan nan nan nan nan nan nan nan nan nan nan nan nan
 nan nan nan nan nan nan nan nan nan nan nan nan nan nan nan nan nan nan
 nan nan nan nan nan nan nan nan nan nan nan nan nan nan nan nan nan nan
 nan nan nan nan nan nan nan nan nan nan nan nan nan nan nan nan nan nan
 nan nan nan nan nan nan nan nan nan nan nan nan nan nan nan nan nan nan
 nan nan nan nan nan nan nan nan nan nan nan nan nan nan nan nan nan nan
 nan nan nan nan nan nan nan nan]","[nan nan nan nan nan nan nan nan nan nan nan nan nan nan nan nan nan nan
 nan nan nan nan nan nan nan nan nan nan nan nan nan nan nan nan nan nan
 nan nan nan nan nan nan nan nan nan nan nan nan nan nan nan nan nan nan
 nan nan nan nan nan nan nan nan nan nan nan nan nan nan nan nan nan nan
 nan nan nan nan nan nan nan nan nan nan nan nan nan nan nan nan nan nan
 nan nan nan nan nan nan nan nan nan nan nan nan nan nan nan nan nan nan
 nan nan nan nan nan nan nan nan nan nan nan nan nan nan nan nan nan nan
 nan nan nan nan nan nan nan nan nan nan nan nan nan nan]",,,5.854425,0.08591999999999889
012,1,1,csp,59a.png,1,1,44,37,49,1,1,417,pos_feedback_onset,14,"[ 2.38013485  2.07947905  1.73611645  1.36029669  0.96397768  0.56765866
  0.18671409 -0.16177332 -0.46072086 -0.70158716 -0.87753913 -0.98857679
 -1.03640839 -1.02957531 -0.97661889 -0.88437222 -0.76479321 -0.62300666
 -0.46755394 -0.3018516  -0.12931616  0.04663582  0.22429606  0.40366458
  0.5830331   0.76240162  0.94006187  1.11601385  1.29196583  1.46279299
  1.63362015  1.7993225   1.96331658  2.12901892  2.29472127  2.46554843
  2.6483335   2.846493    3.06686004  3.31114288  3.58446634  3.88683042
  4.2131103   4.55988944  4.91691821  5.27053044  5.61218476  5.92479847
  6.1998302   6.4287386   6.60639884  6.7293944   6.79943354  6.82164107
  6.80114181  6.74818539  6.66960489  6.57394168  6.4646123   6.34503329
  6.21520464  6.06487674  5.88721649  5.66855772  5.39181772  5.04503858
  4.61113759  4.08498993  3.46488733  2.75595461  1.97527448  1.14505447
  0.29604347 -0.53759308 -1.31656494 -2.0049984  -2.56872804 -2.9804215
 -3.22299607 -3.28278558 -3.15979002 -2.86084249 -2.40302569 -1.80683889
 -1.09448963 -0.29160197  0.57278347  1.47645916  2.39380102  3.3043098
  4.18748623  5.02624759  5.80521945  6.51415218  7.14279613  7.68944305
  8.15067639  8.52991269  8.83569331  9.07485134  9.26105294  9.40454776
  9.51900196  9.61637344  9.70178702  9.78378406  9.86407283  9.94777814
 10.02977517 10.11006394 10.18351962 10.25014221 10.30651518 10.34922197
 10.37826259 10.39192876 10.39192876 10.37826259 10.35605505 10.32188962
 10.28259937 10.23647604 10.18864444 10.13910456 10.09127295 10.04856616
 10.01269246  9.98706838  9.97511048  9.9802353  10.00244283 10.04344135
 10.10323085 10.17839481 10.26551666 10.3594716  10.45684308 10.55421456
 10.64304469 10.72162518 10.78483123 10.83266284 10.86341173 10.8770779
 10.87366136 10.8531621  10.81728839 10.76604024 10.70283419 10.62767024
 10.54225666 10.45000999 10.34922197 10.2450174  10.13910456 10.0280669
  9.91702925  9.80599159  9.69324566  9.58049974  9.46775381  9.35500788
  9.24226196  9.1312243   9.01847837  8.90573245  8.79298652  8.68024059
  8.56920294  8.45645701  8.34371108  8.23096516  8.1199275   8.00718157
  7.89443565  7.78168972  7.66894379  7.55790614  7.44516021  7.33241428
  7.21966836  7.1086307   6.99588477  6.88313885  6.77039292  6.65764699
  6.54660934  6.43386341  6.32111748  6.20837156  6.0973339   5.98458797
  5.87184205  5.75909612  5.64635019  5.53531254  5.42256661  5.30982068
  5.19707476  5.0860371   4.97329117  4.86054525  4.74779932  4.63505339
  4.52401574  4.41126981  4.29852388  4.18577796  4.07303203  3.96199437
  3.84924845  3.73650252  3.62375659  3.51271894  3.39997301  3.28722708
  3.17448116  3.06173523  2.95069757  2.83795165  2.72520572  2.61245979
  2.50142214  2.38867621  2.27593028  2.16318435  2.05043843  1.93940077
  1.82665485  1.71390892  1.60116299  1.49012534  1.37737941  1.26463348
  1.15188755  1.03914163  0.92810397  0.81535805  0.70261212  0.58986619
  0.47882854  0.36608261  0.25333668  0.14059075  0.02784483 -0.08319283
 -0.19593876 -0.30868468 -0.42143061 -0.53417654 -0.64521419 -0.75796012
 -0.87070605 -0.98345197 -1.09448963 -1.20723556 -1.31998148 -1.43272741
 -1.54547334 -1.65651099]","[nan nan nan nan nan nan nan nan nan nan nan nan nan nan nan nan nan nan
 nan nan nan nan nan nan nan nan nan nan nan nan nan nan nan nan nan nan
 nan nan nan nan nan nan nan nan nan nan nan nan nan nan nan nan nan nan
 nan nan nan nan nan nan nan nan nan nan nan nan nan nan nan nan nan nan
 nan nan nan nan nan nan nan nan nan nan nan nan nan nan nan nan nan nan
 nan nan nan nan nan nan nan nan nan nan nan nan nan nan nan nan nan nan
 nan nan nan nan nan nan nan nan nan nan nan nan nan nan nan nan nan nan
 nan nan nan nan nan nan nan nan nan nan nan nan nan nan]",10.259409587161986,,5.853870000000001,0.02939999999999987
012,2,1,csm,43b.png,1,1,4,347,3,1,0,NaN,neu_feedback_onset,1,"[-1.94601493 -1.79520506 -1.63953035 -1.48061242 -1.32007288 -1.15629011
 -0.98926412 -0.81250846 -0.6211583  -0.40872719 -0.17035029  0.095594
  0.39234891  0.713428    1.05234481  1.39774807  1.73504327  2.05287913
  2.33341793  2.56692999  2.74368565  2.86206329  2.92206292  2.93179259
  2.89936036  2.83936073  2.7647666   2.68855085  2.61882156  2.56692999
  2.53287615  2.51666003  2.51828164  2.52963292  2.54584904  2.56206515
  2.57341644  2.58152449  2.58476772  2.58963255  2.60098383  2.625308
  2.66909152  2.73557759  2.82476622  2.93665742  3.06800796  3.21070977
  3.35827642  3.50097824  3.63232877  3.74746319  3.84151666  3.91448918
  3.96962397  4.00854265  4.03935327  4.06692067  4.09773128  4.13664996
  4.18529831  4.25016277  4.32800012  4.42205359  4.53070157  4.65232243
  4.78529458  4.92637478  5.07394143  5.22312969  5.37069634  5.51339816
  5.64474869  5.76150473  5.86204464  5.94150361  5.99988162  6.03717869
  6.05825964  6.0663677   6.0663677   6.06474608  6.06961092  6.08907026
  6.12636732  6.18798856  6.27555558  6.38744678  6.52366215  6.67771525
  6.84311962  7.01338884  7.18041482  7.33771114  7.48203457  7.60689866
  7.7106818   7.79338399  7.85338361  7.89230229  7.90527518  7.89230229
  7.84851878  7.76581659  7.63933089  7.46419684  7.23554962  6.95501082
  6.62582368  6.26096108  5.87501753  5.48745238  5.12096817  4.79988908
  4.54367446  4.37016202  4.28745983  4.29881112  4.39935103  4.57610669
  4.81286197  5.08691432  5.37393957  5.64961353  5.89447687  6.08907026
  6.2220424   6.28366364  6.27555558  6.19933984  6.06150286  5.87663915
  5.65609998  5.41934469  5.18096779  4.95556379  4.75772718  4.59718764
  4.48205322  4.41556715  4.40097264  4.4366481   4.52259351  4.65556565
  4.8306997   5.04475242  5.29285899  5.56853295  5.86204464  6.16852922
  6.47663542  6.77825516  7.06203718  7.31987342  7.54527742  7.73500597
  7.88257262  7.9912206   8.0625715   8.09824696  8.10311179  8.08365245
  8.04149055  7.98473415  7.91662646  7.83878911  7.75608692  7.6685199
  7.57933126  7.48852102  7.39771077  7.30690052  7.21446867  7.12528003
  7.0360914   6.94852437  6.86257896  6.78149839  6.70366103  6.63231012
  6.56582405  6.50582442  6.45555447  6.41339257  6.38258195  6.35987938
  6.3485281   6.34690649  6.35663616  6.37285228  6.39879806  6.42960868
  6.46690575  6.50744603  6.55285116  6.59987789  6.64852624  6.69717459
  6.74744454  6.7977145   6.84960607  6.89987603  6.9517676   7.00203755
  7.05392912  7.10582069  7.15609065  7.20798222  7.25825218  7.31014375
  7.36203532  7.41230527  7.46419684  7.5144668   7.56635837  7.61824994
  7.6685199   7.72041147  7.77230304  7.82257299  7.87446456  7.92473452
  7.97662609  8.02851766  8.07878762  8.13067919  8.18094915  8.23284071
  8.28473228  8.33500224  8.38689381  8.43878538  8.49067695  8.54419013
  8.59770331  8.6528381   8.71121612  8.77445897  8.84418827  8.92364723
  9.01121425  9.11499739  9.23175342  9.36634718  9.51877867  9.68580466
  9.86418193 10.05066725 10.23715258 10.41715146 10.57931262 10.71390637
 10.80958145 10.85336497 10.83228402 10.73336571 10.54525877 10.25823353
  9.86904676  9.37932007]","[-2.04675589 -1.84217104 -1.67883314 -1.55179255 -1.44950013 -1.35710697
 -1.25646443 -1.12942384 -0.9611363  -0.74170256 -0.46452309 -0.1295979
  0.25977326  0.68874148  1.14740751  1.61927255  2.08618797  2.53330485
  2.94907405  3.32524618  3.65687162  3.94725011  4.19968141  4.42076503
  4.62040024  4.80683643  4.98502323  5.16485991  5.34799635  5.53278266
  5.7225186   5.91390443  6.10364037  6.29337632  6.48146239  6.66789858
  6.85763452  7.05561985  7.2602047   7.47798857  7.70897146  7.94985361
  8.20063504  8.45141646  8.69889813  8.93648053  9.15756415  9.35719937
  9.53208641  9.68387517  9.81256563  9.92310745 10.01715048 10.10294412
 10.18048838 10.25638276 10.33392701 10.40982139 10.48571577 10.55666052
 10.62265563 10.67710159 10.71834854 10.73979695 10.74309671 10.72494805
 10.68865074 10.63255489 10.56161015 10.47911626 10.38342335 10.28113093
 10.16728936 10.0451984   9.90990842  9.75976955  9.59313189  9.40504582
  9.19551134  8.96287857  8.7087974   8.43326781  8.13958956  7.83106241
  7.50933625  7.17606093  6.83288635  6.48311226  6.12673866  5.76541543
  5.40244231  5.04441883  4.69959438  4.37456845  4.08418996  3.84000805
  3.65522174  3.54138017  3.50673274  3.56117871  3.70471807  3.93405109
  4.23927848  4.60390147  5.00647165  5.41894109  5.81656164  6.17293524
  6.46661349  6.68439735  6.81638758  6.86588391  6.83618611  6.74214308
  6.59530395  6.41051764  6.20428292  5.98814893  5.77366482  5.57072985
  5.3809939   5.21105649  5.05926773  4.92727751  4.80848631  4.69959438
  4.5940022   4.48511027  4.36136943  4.21288043  4.03304375  3.81361001
  3.54632981  3.23120315  2.86823004  2.46730973  2.03999139  1.6011239
  1.17050579  0.77123537]",9.708146859267265,9.871218789468145,6.166705,-0.07481999999999811
012,2,1,csp,48a.png,1,1,24,322,27,1,1,456,pos_feedback_onset,2,"[-2.16069426e-01 -1.76712517e-01 -1.56246925e-01 -1.54672649e-01
 -1.65692583e-01 -1.87732452e-01 -2.12920873e-01 -2.36535018e-01
 -2.53852057e-01 -2.57000610e-01 -2.41257847e-01 -2.03475215e-01
 -1.42078438e-01 -5.39189641e-02  5.94289313e-02  1.94816695e-01
  3.47521499e-01  5.14394789e-01  6.85990909e-01  8.56012752e-01
  1.01186611e+00  1.14725387e+00  1.24958183e+00  1.31097861e+00
  1.32357282e+00  1.28579019e+00  1.19448216e+00  1.05437157e+00
  8.73329791e-01  6.62376764e-01  4.34106697e-01  2.07410906e-01
 -5.11639806e-03 -1.89306728e-01 -3.30991597e-01 -4.27022453e-01
 -4.69527914e-01 -4.63230809e-01 -4.12853966e-01 -3.24694492e-01
 -2.12920873e-01 -8.69787669e-02  4.21118917e-02  1.64905445e-01
  2.71956235e-01  3.60115709e-01  4.27809591e-01  4.75037881e-01
  5.06523408e-01  5.23840447e-01  5.33286105e-01  5.41157487e-01
  5.53751697e-01  5.74217289e-01  6.07277092e-01  6.52931106e-01
  7.14327882e-01  7.89893146e-01  8.81201173e-01  9.85103410e-01
  1.10474841e+00  1.23541335e+00  1.38182104e+00  1.53924868e+00
  1.71084480e+00  1.89503513e+00  2.09181967e+00  2.29647559e+00
  2.50742862e+00  2.71838164e+00  2.92461184e+00  3.11824783e+00
  3.29614106e+00  3.44884586e+00  3.57321369e+00  3.66767027e+00
  3.72906704e+00  3.76212685e+00  3.76684968e+00  3.75268119e+00
  3.72119566e+00  3.68183875e+00  3.64090757e+00  3.59997639e+00
  3.56691658e+00  3.54015389e+00  3.51968829e+00  3.50551981e+00
  3.49449987e+00  3.48190566e+00  3.46616290e+00  3.44412303e+00
  3.41106323e+00  3.37013204e+00  3.31660665e+00  3.25363559e+00
  3.18279316e+00  3.10722790e+00  3.03008836e+00  2.95609737e+00
  2.88997776e+00  2.83645237e+00  2.80181829e+00  2.78764980e+00
  2.80024401e+00  2.83960092e+00  2.90886908e+00  3.00804849e+00
  3.13399059e+00  3.28512112e+00  3.45671724e+00  3.64405612e+00
  3.84084066e+00  4.04234803e+00  4.24228113e+00  4.43434284e+00
  4.61381034e+00  4.77596080e+00  4.91921995e+00  5.04201350e+00
  5.14276718e+00  5.22148100e+00  5.28287778e+00  5.32695751e+00
  5.36159159e+00  5.38835429e+00  5.41354271e+00  5.44030541e+00
  5.47179094e+00  5.51429640e+00  5.56782179e+00  5.63236712e+00
  5.70793238e+00  5.79451758e+00  5.88897416e+00  5.98815357e+00
  6.09048153e+00  6.19123522e+00  6.28726607e+00  6.37542555e+00
  6.45413936e+00  6.52025897e+00  6.57221009e+00  6.61156700e+00
  6.63360686e+00  6.64305252e+00  6.63832969e+00  6.62101265e+00
  6.59424996e+00  6.55804160e+00  6.51553614e+00  6.46830785e+00
  6.41478245e+00  6.35968278e+00  6.30300884e+00  6.24476061e+00
  6.18493811e+00  6.12511561e+00  6.06529311e+00  6.00389633e+00
  5.94407383e+00  5.88425133e+00  5.82285456e+00  5.76303206e+00
  5.70163528e+00  5.64181278e+00  5.58199028e+00  5.52059350e+00
  5.46077100e+00  5.39937423e+00  5.33955172e+00  5.27815495e+00
  5.21833245e+00  5.15693567e+00  5.09711317e+00  5.03729067e+00
  4.97589389e+00  4.91607139e+00  4.85624889e+00  4.79485212e+00
  4.73502962e+00  4.67678139e+00  4.61853317e+00  4.56185922e+00
  4.50833383e+00  4.45795698e+00  4.41230297e+00  4.37452034e+00
  4.34460909e+00  4.32571777e+00  4.31942067e+00  4.32571777e+00
  4.34775764e+00  4.38396600e+00  4.43434284e+00  4.49416534e+00
  4.56185922e+00  4.63112738e+00  4.69882126e+00  4.75706948e+00
  4.80114922e+00  4.82633764e+00  4.83106047e+00  4.81059488e+00
  4.76966370e+00  4.70826692e+00  4.63427593e+00  4.55241356e+00
  4.47212547e+00  4.40285731e+00  4.34933192e+00  4.31942067e+00
  4.31469784e+00  4.33988626e+00  4.39183738e+00  4.46740264e+00
  4.56028494e+00  4.66418718e+00  4.77123797e+00  4.86884310e+00
  4.95070547e+00  5.00737942e+00  5.03256784e+00  5.01682508e+00
  4.95542830e+00  4.84837751e+00  4.69252416e+00  4.48944251e+00
  4.24542968e+00  3.96520849e+00  3.65665033e+00  3.33234941e+00
  3.00175138e+00  2.67902474e+00  2.37833796e+00  2.11385954e+00
  1.89975796e+00  1.75020170e+00  1.67463644e+00  1.68093355e+00
  1.77066730e+00  1.94068914e+00  2.17997914e+00  2.47436881e+00
  2.80496684e+00  3.15130763e+00  3.49449987e+00  3.81565224e+00
  4.10217053e+00  4.34618336e+00  4.54296790e+00  4.69252416e+00
  4.79485212e+00  4.85624889e+00  4.87671449e+00  4.85939745e+00
  4.80902060e+00  4.72873251e+00  4.61853317e+00  4.48471968e+00]","[ 3.32190722  3.2297965   3.08505109  2.88109164  2.6146285   2.28566165
  1.8941911   1.44844103  0.95663559  0.43028864 -0.11744116 -0.66846063
 -1.21125593 -1.72773388 -2.20802548 -2.63568238 -3.00577008 -3.31170925
 -3.54692054 -3.71469363 -3.81173885 -3.84463554 -3.81338369 -3.7229178
 -3.57323789 -3.36927844 -3.1077498  -2.78865196 -2.41198492 -1.97939352
 -1.49087775 -0.95466179 -0.3740353   0.24277753  0.88426288  1.54384141
  2.20835444  2.8695778   3.51928733  4.147614    4.74962333  5.32038081
  5.85495194  6.35333671  6.8138903   7.23661269  7.61821424  7.95869492
  8.25147542  8.48833155  8.66432881  8.7695982   8.79591555  8.73834635
  8.59853544  8.37812765  8.08863683  7.74322164  7.3616201   6.96028054
  6.55894099  6.17569461  5.82041042  5.50460225  5.22827009  4.99141397
  4.78909935  4.61639176  4.46671184  4.33512511  4.21834188  4.12129666
  4.04563428  3.99793409  3.98313058  4.00780309  4.07030679  4.17228652
  4.30551809  4.46671184  4.64270911  4.82364087  5.00128297  5.16741123
  5.31544631  5.44045371  5.54243343  5.61974064  5.6707305   5.69704785
  5.69540302  5.66415117  5.6032923   5.51282642  5.39275352  5.25129777
  5.09668336  4.93713444  4.78580969  4.65751262  4.56375706  4.5127672
  4.50947753  4.55553289  4.64599878  4.76771651  4.91081709  5.0555625
  5.18714924  5.28748413  5.34505333  5.34834299  5.29241863  5.18221474
  5.02431065  4.83350988  4.62626077  4.42723582  4.25617306  4.1328105
  4.07359646  4.08675514  4.17886585  4.34170444  4.56704673  4.83844438
  5.13286971  5.42729504  5.70033752  5.92732464  6.0934529   6.18391878
  6.19378779  6.12305992  5.97502484  5.76284122  5.50131258  5.21017692
  4.91246192  4.63119527]",6.110002558199029,5.6653025508089225,6.352125,-0.047860000000000014
012,2,1,csm,63b.png,1,1,160,175,162,1,1,465,neu_feedback_onset,3,"[ 1.17785077  0.95729704  0.76020648  0.59283591  0.45674957  0.35351165
  0.27842953  0.22681057  0.1877053   0.15016424  0.10480213  0.03910527
 -0.05318317 -0.17832004 -0.33786954 -0.52401064 -0.73205068 -0.94947599
 -1.16064445 -1.34991397 -1.50320663 -1.60644455 -1.65493509 -1.64398561
 -1.57985296 -1.4703582  -1.32957923 -1.17785077 -1.03237916 -0.91037072
 -0.82746754 -0.7930549  -0.81026122 -0.87752229 -0.98545284 -1.11841076
 -1.26075395 -1.39527608 -1.50633505 -1.58298139 -1.61895824 -1.61582981
 -1.57828875 -1.51572032 -1.44533083 -1.37806976 -1.32645081 -1.30142343
 -1.30768028 -1.3405287  -1.39996872 -1.47505084 -1.55795401 -1.64085719
 -1.71906773 -1.79414985 -1.86453934 -1.93805725 -2.01939621 -2.11168466
 -2.21805099 -2.3338026  -2.45111841 -2.55592054 -2.62943845 -2.65603003
 -2.61848897 -2.50273737 -2.30408259 -2.02252464 -1.66588456 -1.24667605
 -0.78523385 -0.30658533  0.17206319  0.62568434  1.04020022  1.40309714
  1.71281089  1.96621305  2.16799625  2.33067417  2.46050368  2.57156265
  2.67167214  2.77178164  2.87501955  2.98607852  3.10652276  3.23165963
  3.36148913  3.48975442  3.61176287  3.72595026  3.82762396  3.91678398
  3.9918661   4.05756296  4.11543876  4.16705772  4.21867668  4.26716721
  4.31565775  4.36258408  4.40481777  4.43923041  4.46112936  4.46582199
  4.44861567  4.41107461  4.35007039  4.26716721  4.16549351  4.04974191
  3.92460504  3.79633975  3.66651025  3.54137338  3.42092914  3.30830596
  3.20037541  3.09713749  2.997028    2.8969185   2.7952448   2.68887846
  2.58094791  2.46676052  2.34788049  2.22743626  2.10229939  1.97559831
  1.84733302  1.72063194  1.59705928  1.47661505  1.36399187  1.25918974
  1.16377288  1.08399812  1.01830127  0.97137494  0.94478336  0.93852651
  0.95416862  0.99014547  1.04332864  1.11058971  1.18723604  1.26701079
  1.33896449  1.39684029  1.43125293  1.43594557  1.40622556  1.33740028
  1.23572658  1.10433286  0.95260441  0.79149069  0.63819803  0.5036759
  0.39887377  0.33630533  0.3175348   0.3456906   0.41451588  0.51775379
  0.64289066  0.78054122  0.91975598  1.04958548  1.16846551  1.27326764
  1.36712029  1.45628031  1.55013296  1.65806351  1.79102143  1.95369936
  2.15548256  2.39793524  2.67792898  2.99546379  3.34115439  3.7024871
  4.07007665  4.42828093  4.76302206  5.06178633  5.31049585  5.50132958
  5.62646645  5.68590646  5.67964962  5.61708118  5.50602221  5.3605506
  5.19474425  5.02580948  4.86625997  4.72860942  4.62224308  4.55185359
  4.51587674  4.51118411  4.53151885  4.5674957   4.60972939  4.64883466
  4.67699046  4.68950415  4.68011888  4.65039887  4.60034413  4.52995464
  4.44392304  4.34224934  4.22649773  4.09666823  3.94963241  3.78695448
  3.60707023  3.41154388  3.20506804  2.99546379  2.79368059  2.61223213
  2.4636321   2.36039418  2.31190364  2.32285312  2.39324261  2.51525106
  2.67480056  2.8531206   3.02831222  3.17221962  3.26137963  3.26607227
  3.16909119  2.95010167  2.59815423  2.11168466  1.49382137  0.75707805
 -0.08290318 -0.99640232 -1.95369936 -2.92038167 -3.86047239 -4.73486626
 -5.50758642 -6.1520413  -6.64007508 -6.95604567 -7.09369623 -7.05615517
 -6.85593618 -6.51180979]","[-4.24390403e-01 -3.99111368e-01 -3.93163359e-01 -3.97624365e-01
 -4.05059376e-01 -4.06546378e-01 -3.94650361e-01 -3.64910319e-01
 -3.11378243e-01 -2.34054133e-01 -1.35911993e-01 -2.14128304e-02
  1.04982349e-01  2.35838535e-01  3.62233715e-01  4.78219880e-01
  5.77849022e-01  6.58147136e-01  7.16140218e-01  7.54802273e-01
  7.72646299e-01  7.72646299e-01  7.59263280e-01  7.35471246e-01
  7.02757199e-01  6.64095144e-01  6.22459085e-01  5.77849022e-01
  5.31751956e-01  4.84167888e-01  4.36583821e-01  3.88999753e-01
  3.41415685e-01  2.93831618e-01  2.46247550e-01  1.97176480e-01
  1.49592413e-01  1.02008345e-01  5.29372753e-02  5.35320761e-03
 -4.22308601e-02 -9.13019298e-02 -1.38885997e-01 -1.86470065e-01
 -2.34054133e-01 -2.83125203e-01 -3.30709270e-01 -3.78293338e-01
 -4.27364408e-01 -4.74948475e-01 -5.22532543e-01 -5.71603613e-01
 -6.19187680e-01 -6.68258750e-01 -7.18816822e-01 -7.69374894e-01
 -8.22906970e-01 -8.80900053e-01 -9.43354141e-01 -1.01473024e+00
 -1.09948936e+00 -1.19911851e+00 -1.31807867e+00 -1.46231788e+00
 -1.63629713e+00 -1.84001642e+00 -2.07496275e+00 -2.33964913e+00
 -2.62961454e+00 -2.93742398e+00 -3.25415543e+00 -3.56642587e+00
 -3.86531330e+00 -4.13297368e+00 -4.35751100e+00 -4.52554224e+00
 -4.62665838e+00 -4.65342442e+00 -4.59840534e+00 -4.46160114e+00
 -4.24747284e+00 -3.96494244e+00 -3.62441895e+00 -3.23928541e+00
 -2.82738582e+00 -2.40507722e+00 -1.98722963e+00 -1.58871306e+00
 -1.22142354e+00 -8.91309067e-01 -6.07291664e-01 -3.69371325e-01
 -1.79035055e-01 -3.33088474e-02  7.22683028e-02  1.39183398e-01
  1.76358451e-01  1.86767466e-01  1.74871449e-01  1.46618408e-01
  1.02008345e-01  4.40152626e-02 -2.88478410e-02 -1.16580966e-01
 -2.20671114e-01 -3.44092289e-01 -4.91305499e-01 -6.63797744e-01
 -8.63056027e-01 -1.09354136e+00 -1.35971473e+00 -1.66157616e+00
 -2.00804766e+00 -2.40210322e+00 -2.85415186e+00 -3.37014159e+00
 -3.95602043e+00 -4.61922337e+00 -5.35826342e+00 -6.17016657e+00
 -7.04303682e+00 -7.96497813e+00 -8.91219847e+00 -9.86239282e+00
 -1.07902821e+01 -1.16720744e+01 -1.24854646e+01 -1.32140956e+01
 -1.38490455e+01 -1.43843663e+01 -1.48230319e+01 -1.51709904e+01
 -1.54386508e+01 -1.56379090e+01 -1.57821482e+01 -1.58847514e+01
 -1.59561275e+01 -1.60051986e+01 -1.60408866e+01 -1.60661656e+01]",4.033786954481467,0.2209313391643489,6.393,-0.018835000000001934
012,2,1,csm,35b.png,1,1,324,324,318,1,1,373,neu_feedback_onset,4,"[-4.68052116 -4.8103712  -4.84283371 -4.75690353 -4.5373042  -4.16684967
 -3.6379017  -2.94664118 -2.10643502 -1.13637883 -0.07084466  1.04624762
  2.16143034  3.21741671  4.15119128  4.90737682  5.43823434  5.70557267
  5.68647707  5.379038    4.79280325  3.95832577  2.91952544  1.72796034
  0.44091728 -0.88049786 -2.18090784 -3.41448324 -4.54303288 -5.53791335
 -6.38193862 -7.07128958 -7.60978535 -8.00888327 -8.28195027 -8.44808194
 -8.52446432 -8.53210256 -8.48245401 -8.39079516 -8.26858336 -8.12154728
 -7.95923472 -7.78546482 -7.60405667 -7.4188294  -7.23360214 -7.04646531
 -6.8631476  -6.6798299  -6.49842175 -6.31892316 -6.13942457 -5.95992599
 -5.77660828 -5.59138101 -5.40042507 -5.20374045 -5.00132714 -4.7912756
 -4.56976671 -4.34061958 -4.10001509 -3.84795324 -3.58634359 -3.31327659
 -3.02875224 -2.73468008 -2.43296969 -2.12553062 -1.81427243 -1.49919512
 -1.18411781 -0.8690405  -0.5539632  -0.23888589  0.07810098  0.39890697
  0.72735119  1.06534321  1.41288303  1.77188021  2.1346965   2.49942236
  2.85650997  3.19259244  3.50003151  3.76164115  3.97169269  4.12254789
  4.2065685   4.22757366  4.18938247  4.09963317  3.97169269  3.81701838
  3.64897714  3.47902635  3.31862336  3.1754064   3.05510416  2.95771663
  2.88324381  2.82977614  2.79540407  2.77439892  2.76485112  2.761032
  2.76485112  2.7705798   2.7801276   2.79158495  2.80495187  2.82022835
  2.8412335   2.86796733  2.90806808  2.96535486  3.04555636  3.15822037
  3.31098512  3.51530798  3.78073675  4.11300009  4.51782669  4.99903567
  5.55089835  6.16577649  6.82839362  7.51965414  8.21091466  8.87735091
  9.48268125  9.99635274 10.39354111 10.64751251 10.7468096  10.68761326
 10.48138084 10.1491175   9.72137618  9.23825764  8.74368175  8.28729704
  7.90729471  7.64186595  7.51583502  7.54065929  7.71633876  8.02950651
  8.46106695  8.98046712  9.55906363 10.16439397 10.76972432 11.35786863
 11.91164087 12.4234028  12.89506398 13.32662441 13.72190322 14.08662907
 14.43034977 14.75688444 15.07005219 15.37367214 15.66774429 15.95417821
 16.23106433 16.49649309 16.74855494 16.97961163 17.18775361 17.36916176
 17.52001696 17.63650008 17.7205207  17.77016924 17.78544572 17.7720788
 17.72815894 17.65368612 17.54484123 17.39589559 17.19921097 16.93951089
 16.60342842 16.17950623 15.65437738 15.02040364 14.27758502 13.43165018
 12.49596606 11.49153779 10.44700877  9.39293196  8.36367942  7.38789454
  6.49613028  5.70939179  5.04104598  4.49682154  4.07671846  3.77118895
  3.57068521  3.45611164  3.41219177  3.42364913  3.47520723  3.55731829
  3.65852494  3.77309851  3.89721987  4.02516036  4.15691996  4.28867956
  4.42234872  4.55792744  4.6915966   4.82526576  4.96084448  5.09451364
  5.23009237  5.36376153  5.49934025  5.63300941  5.76667857  5.90225729
  6.03592645  6.17150517  6.30517433  6.43884349  6.57442222  6.70809138
  6.8436701   6.97733926  7.11291798  7.24658714  7.3802563   7.51583502
  7.64950418  7.7850829   7.91875206  8.05242123  8.18799995  8.32166911
  8.45724783  8.59091699  8.72649571  8.86016487  8.99383403  9.12941275
  9.26308191  9.39866064  9.5323298   9.66599896  9.80157768  9.93524684
 10.07082556 10.20449472]","[ -3.39885207  -3.24752432  -2.98656117  -2.62213925  -2.17278849
  -1.65858299  -1.1042293   -0.53597817   0.01991967   0.5372135
   0.99737338   1.38495771   1.68606905   1.8960749    2.01497527
   2.04431432   1.99644534   1.88526577   1.72467306   1.53937378
   1.35098618   1.1811285    1.05141901   0.97884345   0.97575513
   1.04524236   1.18421682   1.38495771   1.6289351    1.89761906
   2.16784718   2.42263369   2.64190451   2.81639466   2.93992752
   3.02022387   3.06191621   3.08507862   3.10206439   3.13140344
   3.18699323   3.28118703   3.41552901   3.59310748   3.80620166
   4.04554656   4.30033308   4.55511959   4.79755281   5.01682363
   5.20212291   5.34881818   5.45073278   5.50941089   5.52330833
   5.49396928   5.42757037   5.32411161   5.18822547   5.02454443
   4.83461267   4.62460682   4.39452688   4.15054949   3.89576298
   3.63016734   3.35839506   3.08353446   2.80404138   2.52300413
   2.24196689   1.96247381   1.68452488   1.41275261   1.14870113
   0.89545878   0.66229052   0.45228466   0.27470618   0.13882005
   0.05234705   0.01991967   0.04308208   0.12337844   0.25308794
   0.42140145   0.61287737   0.8120741    1.00200586   1.1656869
   1.29230807   1.37414859   1.40812012   1.39267852   1.33554457
   1.23980661   1.11164127   0.95876937   0.78273505   0.5881708
   0.37662079   0.14808501  -0.09743654  -0.36148801  -0.64406942
  -0.95135739  -1.2848961   -1.65086218  -2.05543228  -2.5063272
  -3.01126774  -3.57951887  -4.21880139  -4.93683611  -5.73362302
  -6.60916212  -7.5526443   -8.55326042  -9.59402472 -10.64868646
 -11.6956274  -12.71014097 -13.66597643 -14.54614801 -15.3321258
 -16.01773314 -16.59833756 -17.07702737 -17.45997922 -17.76109055
 -17.98962633 -18.15793984 -18.27529605 -18.34787161 -18.37721066
 -18.36331321 -18.30000263 -18.17955809 -17.99734713 -17.74256062]",15.192693643649468,3.910818544134421,5.23681,-0.1466150000000006
012,2,1,csm,21b.png,1,1,84,108,89,1,1,444,neu_feedback_onset,5,"[ 8.59729342e-01  9.76657456e-01  1.00332527e+00  9.52041011e-01
  8.31010156e-01  6.58695041e-01  4.55609370e-01  2.38164106e-01
  2.48215821e-02 -1.70058608e-01 -3.38270982e-01 -4.73661430e-01
 -5.76229950e-01 -6.45976545e-01 -6.84952583e-01 -6.97260805e-01
 -6.84952583e-01 -6.48027915e-01 -5.86486803e-01 -4.94175134e-01
 -3.64938797e-01 -1.88520941e-01  4.53352862e-02  3.48938108e-01
  7.40749858e-01  1.23718150e+00  1.84848988e+00  2.58493186e+00
  3.45676429e+00  4.45578168e+00  5.57377856e+00  6.78613848e+00
  8.06414225e+00  9.36471110e+00  1.06386121e+01  1.18345611e+01
  1.28992223e+01  1.37833630e+01  1.44480070e+01  1.48623838e+01
  1.50100825e+01  1.48972571e+01  1.45403187e+01  1.39700377e+01
  1.32294930e+01  1.23699688e+01  1.14448007e+01  1.05032217e+01
  9.59446458e+00  8.75545408e+00  8.01285799e+00  7.38513864e+00
  6.87639878e+00  6.48458703e+00  6.19944654e+00  6.00661772e+00
  5.88968961e+00  5.83019987e+00  5.81378890e+00  5.82609712e+00
  5.86302179e+00  5.91225468e+00  5.97584716e+00  6.04764513e+00
  6.12969995e+00  6.21996024e+00  6.32252877e+00  6.43740551e+00
  6.56253910e+00  6.69998092e+00  6.84973096e+00  7.00563511e+00
  7.17179612e+00  7.34411123e+00  7.51847772e+00  7.69284420e+00
  7.86721069e+00  8.03747443e+00  8.19953270e+00  8.35543685e+00
  8.50313552e+00  8.64057734e+00  8.76981367e+00  8.89289590e+00
  9.01187538e+00  9.12880350e+00  9.24368024e+00  9.36471110e+00
  9.48984469e+00  9.62113240e+00  9.76267696e+00  9.91447837e+00
  1.00724339e+01  1.02385949e+01  1.04047559e+01  1.05709169e+01
  1.07309238e+01  1.08786225e+01  1.10078588e+01  1.11165814e+01
  1.11986362e+01  1.12499205e+01  1.12663315e+01  1.12417150e+01
  1.11740198e+01  1.10611944e+01  1.08970848e+01  1.06837423e+01
  1.04252696e+01  1.01237181e+01  9.78729340e+00  9.42830358e+00
  9.05700553e+00  8.68570749e+00  8.33287177e+00  8.01080662e+00
  7.72771750e+00  7.49796401e+00  7.32359753e+00  7.20666942e+00
  7.14717967e+00  7.14102556e+00  7.18205297e+00  7.26615916e+00
  7.38308727e+00  7.52873457e+00  7.69899832e+00  7.88772439e+00
  8.09286144e+00  8.31030670e+00  8.54006019e+00  8.77596779e+00
  9.01597812e+00  9.25803983e+00  9.50010154e+00  9.73806051e+00
  9.96781400e+00  1.01893620e+01  1.03965504e+01  1.05893792e+01
  1.07657971e+01  1.09237526e+01  1.10632458e+01  1.11822253e+01
  1.12806911e+01  1.13606945e+01  1.14181329e+01  1.14550576e+01
  1.14694171e+01  1.14612117e+01  1.14324925e+01  1.13832596e+01
  1.13135130e+01  1.12273554e+01  1.11227355e+01  1.10058074e+01
  1.08786225e+01  1.07452834e+01  1.06119443e+01  1.04786052e+01
  1.03534716e+01  1.02385949e+01  1.01339750e+01  1.00457661e+01
  9.96986537e+00  9.90627289e+00  9.85909137e+00  9.82626944e+00
  9.80985848e+00  9.81190985e+00  9.84268040e+00  9.91037563e+00
  1.00273037e+01  1.02119271e+01  1.04827080e+01  1.08560574e+01
  1.13504377e+01  1.19781570e+01  1.27412668e+01  1.36377157e+01
  1.46531440e+01  1.57649868e+01  1.69404220e+01  1.81384224e+01
  1.93138576e+01  2.04236490e+01  2.14226664e+01  2.22678310e+01
  2.29283723e+01  2.33776224e+01  2.35971191e+01  2.35786567e+01
  2.33242868e+01  2.28422147e+01  2.21509029e+01  2.12749677e+01
  2.02410771e+01  1.90882069e+01  1.78553333e+01  1.65814322e+01
  1.53136853e+01  1.40931199e+01  1.29628148e+01  1.19576433e+01
  1.11124787e+01  1.04498860e+01  9.98422496e+00  9.72370092e+00
  9.66626255e+00  9.79960162e+00  1.01073072e+01  1.05668142e+01
  1.11514547e+01  1.18325097e+01  1.25792085e+01  1.33669348e+01
  1.41649179e+01  1.49464900e+01  1.56911375e+01  1.63742438e+01
  1.69814495e+01  1.74963434e+01  1.79127716e+01  1.82204772e+01
  1.84215115e+01  1.85179259e+01  1.85158745e+01  1.84317683e+01
  1.82840697e+01  1.80994463e+01  1.79045661e+01  1.77343024e+01
  1.76235284e+01  1.76071174e+01  1.77137887e+01  1.79640559e+01
  1.83743300e+01  1.89446109e+01  1.96625906e+01  2.05016011e+01
  2.14308719e+01  2.24093756e+01  2.33940334e+01  2.43438179e+01
  2.52279585e+01  2.60218389e+01  2.67172535e+01  2.73183050e+01
  2.78352503e+01  2.82906546e+01  2.87111855e+01  2.91194082e+01
  2.95337850e+01  2.99686756e+01  3.04281825e+01  3.09123060e+01
  3.14046349e+01  3.18969638e+01  3.23728817e+01  3.28139263e+01]","[ 2.56031343  2.33680207  2.1003603   1.84359931  1.5609775   1.24880047
  0.91260983  0.55794717  0.1922013  -0.16985016 -0.51342962 -0.82745385
 -1.09899244 -1.3188094  -1.48136312 -1.5866536  -1.63468084 -1.62913923
 -1.57557039 -1.47766872 -1.34282302 -1.1728805  -0.97522995 -0.74802419
 -0.498652   -0.22896061  0.0592028   0.36214382  0.67801526  1.00127549
  1.32823013  1.65518477  1.97844501  2.29246924  2.59725746  2.89096248
  3.17173708  3.43773408  3.69449506  3.94386725  4.18954503  4.43891721
  4.6975254   4.9709112   5.26276901  5.57864044  5.91667829  6.26764655
  6.62600361  6.97327746  7.2928433   7.5680763   7.77681005  7.90980855
  7.95229418  7.90611414  7.77496285  7.5754651   7.32794012  7.05824872
  6.80333494  6.59275398  6.45975549  6.43204747  6.53364354  6.77747412
  7.17277521  7.7140052   8.3919281   9.19176628 10.09504775 11.07406446
 12.10295561 13.15770759 14.21061236 15.2302675  16.19635381 17.08116326
 17.86622383 18.53491072 19.07614072 19.48437221 19.75960522 19.90368692
 19.92954774 19.84272928 19.65616194 19.38092894 19.02257188 18.58293796
 18.06756878 17.47092274 16.78561104 16.00978647 15.13790743 14.16997393
 13.10968035 11.97180432 10.77481784  9.54827615  8.32358165  7.13767838
  6.02751037  5.02632724  4.1581426   3.44142848  2.87987927  2.47164777
  2.20380357  2.05418026  2.00245862  2.02093064  2.08927709  2.18533156
  2.29431644  2.40514852  2.5085918   2.60279906  2.68038152  2.73764476
  2.76904719  2.76719998  2.72286715  2.63235429  2.48642538  2.28138603
  2.01908344  1.70505921  1.34670215  0.96248426  0.56348877  0.17372929
 -0.19016938 -0.51342962 -0.77757941 -0.97892436 -1.11192285 -1.18396371
 -1.20058852 -1.1747277 ]",27.650138579840164,13.888275720662481,4.87479,0.24144500000000058
012,2,1,csp,13a.png,1,1,352,21,350,1,0,464,neg_feedback_onset,6,"[-3.28510557 -3.164853   -3.03398992 -2.88544263 -2.71036904 -2.50346389
 -2.25588508 -1.96055893 -1.61041175 -1.19836987 -0.72089645 -0.17445464
  0.44095555  1.1235657   1.86983898  2.67093327  3.5180065   4.39691128
  5.29350026  6.19008924  7.06545719  7.90015147  8.67648788  9.37147698
  9.97627664 10.47673953 10.87286563 11.16465494 11.36271799 11.4776653
 11.52894948 11.53425474 11.51480212 11.48827582 11.47236004 11.48297056
 11.52894948 11.61737048 11.74823357 11.91623348 12.11429653 12.33004378
 12.55109629 12.76507512 12.95960133 13.12936966 13.26907484 13.37871689
 13.46536947 13.53256943 13.59269572 13.64928516 13.71294828 13.78722193
 13.87210609 13.96406394 14.0577902  14.14267436 14.20810591 14.24170589
 14.22932695 14.16212698 14.03303232 13.83850611 13.58031678 13.26907484
 12.91539083 12.53694893 12.15497019 11.78713881 11.45467584 11.17172862
 10.95244453 10.80212882 10.72431834 10.71370782 10.76852884 10.87640247
 11.02671817 11.21240228 11.42284427 11.64920204 11.88440192 12.11960179
 12.34772798 12.55816997 12.73854882 12.87471716 12.94899081 12.94545397
 12.84995928 12.65012781 12.33711746 11.91092822 11.37686535 10.74553938
 10.03463451  9.26006651  8.44128801  7.59775163  6.74183631  5.88945783
  5.04592145  4.21830085  3.41013287  2.62672277  1.8716074   1.14832358
  0.46571343 -0.16738096 -0.74211749 -1.24788563 -1.68114855 -2.03660099
 -2.31247452 -2.51230599 -2.64140066 -2.7068322  -2.71744272 -2.68384274
 -2.61133752 -2.50346389 -2.36552713 -2.20106406 -2.01007469 -1.79432744
 -1.55559073 -1.30093824 -1.03567522 -0.77041221 -0.51929656 -0.29117037
 -0.10371784  0.03598735  0.11556625  0.13148203  0.08196627 -0.02944419
 -0.19567568 -0.40434925 -0.64485438 -0.90304372 -1.16653831 -1.42472764
 -1.66876961 -1.8968958  -2.10203253 -2.28771664 -2.45394813 -2.60249542
 -2.74043218 -2.86599001 -2.98624258 -3.10118988 -3.21260035 -3.32401081
 -3.43188444 -3.54152648 -3.64940011 -3.75727373 -3.86337894 -3.97125256
 -4.07912619 -4.18699981 -4.29487344 -4.40274706 -4.51062069 -4.61849431
 -4.72459952 -4.83247314 -4.94034677 -5.04645197 -5.15255718 -5.25512554
 -5.35769391 -5.45495701 -5.54868328 -5.63356744 -5.70784109 -5.76973579
 -5.81394629 -5.83693575 -5.83516733 -5.80687261 -5.74851475 -5.65832532
 -5.53807276 -5.38598863 -5.20384136 -4.99693621 -4.7670416  -4.51592595
 -4.25066294 -3.97125256 -3.68476851 -3.39121078 -3.09588462 -2.80055847
 -2.50876915 -2.2222851  -1.94464315 -1.67407487 -1.41588554 -1.16830673
 -0.93133844 -0.70498067 -0.487465   -0.27879143 -0.07542312  0.12087151
  0.31186088  0.50108183  0.68853436  0.87421847  1.05813416  1.24204985
  1.42596554  1.6081128   1.79202849  1.97417576  2.15809145  2.34023872
  2.52238599  2.70630168  2.88844895  3.07236463  3.2545119   3.43665917
  3.62057486  3.80272213  3.98663782  4.16878509  4.35270078  4.53484804
  4.71699531  4.900911    5.08305827  5.26697396  5.44912123  5.6312685
  5.81518419  5.99733145  6.18124714  6.36339441  6.54554168  6.72945737
  6.91160464  7.09552033  7.2776676   7.45981486  7.64373055  7.82587782
  8.00979351  8.19194078  8.37408805  8.55800374  8.74015101  8.92406669
  9.10621396  9.29012965]","[ 2.19918686  1.78333672  1.326437    0.86061346  0.41977662  0.02534366
 -0.30305302 -0.55648958 -0.73318127 -0.83848238 -0.87596243 -0.85811479
 -0.79564803 -0.69748598 -0.5707677  -0.42263224 -0.26021867 -0.08709651
  0.09673424  0.28770404  0.48402814  0.68570653  0.88916969  1.09798714
  1.30858936  1.52454587  1.74585667  1.97430653  2.21346498  2.46690154
  2.73997052  3.03802619  3.36642287  3.73051483  4.13387162  4.58006275
  5.070873    5.60630236  6.18635083  6.80566413  7.46424224  8.15851565
  8.88491481  9.63987021 10.42338184 11.23188018 12.06536522 12.91848266
 13.78409346 14.65684332 15.52245412 16.36664775 17.17514608 17.93188625
 18.62080536 19.22941006 19.75056131 20.1789048  20.51801006 20.76787709
 20.94099925 21.0391613  21.07307183 21.04986989 20.97134025 20.8428372
 20.66614552 20.44304995 20.1735505  19.86121671 19.50783333 19.11875466
 18.70111976 18.26028292 17.80695273 17.35005301 16.90207711 16.47373362
 16.07573113 15.71520869 15.40109013 15.13337545 14.91563418 14.74251202
 14.60865468 14.50335357 14.41946964 14.34450953 14.26954942 14.18745025
 14.09285773 13.98398709 13.86083834 13.72519623 13.5859846  13.4449882
 13.3093461  13.18262782 13.06661812 12.96310178 12.87029402 12.7810558
 12.6900328  12.59008599 12.468722   12.31166272 12.1064148  11.83691536
 11.48888627 11.04626467 10.49834195  9.83619431  9.05446744  8.15851565
  7.15547798  6.06141732  4.90667466  3.71802148  2.54007689  1.4121057
  0.38586609 -0.49580759 -1.18651146 -1.65055024 -1.86115246 -1.80403999
 -1.47742808 -0.89737961 -0.09066604  0.90344781  2.03320376  3.24684364
  4.49082453  5.71338823  6.86813089  7.92471149  8.85814335  9.65414833
 10.31451121 10.84101674]",12.790938261802207,17.329349738888936,5.654765,-0.6163849999999993
012,2,1,csm,31b.png,1,1,240,227,233,1,1,559,neu_feedback_onset,7,"[ 8.15812271e-01  6.81913876e-01  5.44789013e-01  4.10890618e-01
  2.85058391e-01  1.72132033e-01  7.53380128e-02 -5.32367114e-03
 -6.98530183e-02 -1.19863262e-01 -1.56967637e-01 -1.87619077e-01
 -2.13430816e-01 -2.37629321e-01 -2.61827826e-01 -2.89252799e-01
 -3.18291005e-01 -3.47329211e-01 -3.76367417e-01 -4.02179156e-01
 -4.24764428e-01 -4.45736465e-01 -4.66708503e-01 -4.92520242e-01
 -5.28011383e-01 -5.79634861e-01 -6.53843610e-01 -7.53864098e-01
 -8.82922792e-01 -1.03940646e+00 -1.21847540e+00 -1.41206344e+00
 -1.61049118e+00 -1.80085276e+00 -1.97185553e+00 -2.10898039e+00
 -2.20738764e+00 -2.25578465e+00 -2.25578465e+00 -2.20577441e+00
 -2.10736715e+00 -1.97024229e+00 -1.79762629e+00 -1.60242501e+00
 -1.39109140e+00 -1.17814456e+00 -9.71650645e-01 -7.86128772e-01
 -6.31258338e-01 -5.19945215e-01 -4.61868802e-01 -4.63482036e-01
 -5.31237850e-01 -6.63523012e-01 -8.58724287e-01 -1.10232257e+00
 -1.37979877e+00 -1.67502053e+00 -1.96217612e+00 -2.22029351e+00
 -2.43001389e+00 -2.57520492e+00 -2.64296074e+00 -2.62682840e+00
 -2.52842114e+00 -2.35257867e+00 -2.10736715e+00 -1.80730569e+00
 -1.46691338e+00 -1.10232257e+00 -7.26439125e-01 -3.53782146e-01
  4.35573093e-03  3.39908336e-01  6.44809501e-01  9.17445993e-01
  1.15297811e+00  1.35463232e+00  1.52240862e+00  1.66437319e+00
  1.78375248e+00  1.89022590e+00  1.99024639e+00  2.09188011e+00
  2.20158000e+00  2.32095929e+00  2.45163122e+00  2.59520902e+00
  2.74846622e+00  2.90494988e+00  3.05982032e+00  3.20662458e+00
  3.34213621e+00  3.45828904e+00  3.55508306e+00  3.63090504e+00
  3.68736822e+00  3.72447259e+00  3.75028433e+00  3.76480344e+00
  3.77448284e+00  3.78254901e+00  3.79061517e+00  3.80352104e+00
  3.82126661e+00  3.84385189e+00  3.87127686e+00  3.90515477e+00
  3.94225914e+00  3.98258998e+00  4.02776053e+00  4.07615754e+00
  4.13100748e+00  4.19069713e+00  4.25845294e+00  4.33588816e+00
  4.42138954e+00  4.51818356e+00  4.62627022e+00  4.74403628e+00
  4.87148174e+00  5.00699337e+00  5.14734470e+00  5.29253573e+00
  5.43450029e+00  5.57323839e+00  5.70391032e+00  5.82167638e+00
  5.92653656e+00  6.01526442e+00  6.08785993e+00  6.14916281e+00
  6.19755982e+00  6.23789066e+00  6.27660827e+00  6.31532588e+00
  6.35726996e+00  6.40405373e+00  6.45890368e+00  6.51698009e+00
  6.57505650e+00  6.63151968e+00  6.67830346e+00  6.70895490e+00
  6.72024753e+00  6.70572843e+00  6.66217112e+00  6.58634914e+00
  6.47987572e+00  6.34113762e+00  6.17497455e+00  5.98461298e+00
  5.77327937e+00  5.54420018e+00  5.30221513e+00  5.05055068e+00
  4.79243329e+00  4.53108943e+00  4.26490588e+00  3.99872232e+00
  3.73092553e+00  3.46474197e+00  3.19694518e+00  2.93076162e+00
  2.66457807e+00  2.40000774e+00  2.13543742e+00  1.87248033e+00
  1.61274971e+00  1.35624555e+00  1.10942080e+00  8.75501917e-01
  6.59328604e-01  4.68967030e-01  3.14096597e-01  2.02783473e-01
  1.44707061e-01  1.49546762e-01  2.23755511e-01  3.75399477e-01
  6.09318360e-01  9.28738629e-01  1.33043381e+00  1.81279068e+00
  2.36935630e+00  2.98883804e+00  3.65671678e+00  4.35847343e+00
  5.07797565e+00  5.79425140e+00  6.48794188e+00  7.14291476e+00
  7.74303769e+00  8.27379157e+00  8.72711023e+00  9.09492751e+00
  9.37563017e+00  9.56921821e+00  9.68214457e+00  9.72408864e+00
  9.70634307e+00  9.64342696e+00  9.55308587e+00  9.45467862e+00
  9.36272430e+00  9.29335525e+00  9.26109058e+00  9.27238321e+00
  9.32884639e+00  9.42402718e+00  9.54663294e+00  9.67891810e+00
  9.80152386e+00  9.89509141e+00  9.94187519e+00  9.93542226e+00
  9.87089291e+00  9.75635332e+00  9.60309612e+00  9.43048011e+00
  9.25786411e+00  9.09976721e+00  8.96748205e+00  8.87068803e+00
  8.80293221e+00  8.76098814e+00  8.73356317e+00  8.70613819e+00
  8.66742058e+00  8.61095741e+00  8.53190896e+00  8.42866200e+00
  8.30766947e+00  8.17054461e+00  8.02696681e+00  7.88177578e+00
  7.73981122e+00  7.60429959e+00  7.47362766e+00  7.34779544e+00
  7.22518968e+00  7.10419715e+00  6.98320462e+00  6.86221210e+00
  6.73799311e+00  6.61377411e+00  6.48955512e+00  6.36856259e+00
  6.25079653e+00  6.13787018e+00  6.02817029e+00  5.92331010e+00
  5.81844991e+00  5.71197649e+00  5.59743689e+00  5.47483113e+00
  5.33609304e+00  5.18122261e+00  5.00538013e+00  4.81017886e+00]","[ -2.36755098  -2.11545631  -1.83586039  -1.53029109  -1.20638762
  -0.87026138  -0.52802376  -0.19342537   0.12436671   0.41160186
   0.66064084   0.86384443   1.01662908   1.11593911   1.16635804
   1.17246943   1.14038465   1.07927079   0.99676708   0.8989849
   0.79509133   0.68814208   0.58272067   0.48493849   0.39479554
   0.31381968   0.24659443   0.19159195   0.14728441   0.11519963
   0.08769839   0.061725     0.02658453  -0.0268901   -0.10786597
  -0.22551015  -0.38440619  -0.58913762  -0.83359307  -1.11166114
  -1.40806336  -1.70752128  -1.99170074  -2.23768403  -2.43172054
  -2.5585318   -2.6043672   -2.56769888  -2.44547116  -2.24226757
  -1.96878304  -1.63876819  -1.27208502  -0.884012    -0.49593898
  -0.12314443   0.21756535   0.51855111   0.77522933   0.98607215
   1.15566312   1.28705792   1.38789579   1.46734381   1.53151336
   1.58651584   1.63693477   1.68582586   1.73013341   1.76985742
   1.79888651   1.80958143   1.79277512   1.74082834   1.64304616
   1.49178935   1.28094653   1.007462     0.67286361   0.2817349
  -0.15675705  -0.63344517  -1.13610668  -1.6555745   -2.18573725
  -2.72506707  -3.27356398  -3.83886719  -4.43319949  -5.06572796
  -5.74714751  -6.48662523  -7.28416112  -8.13517164  -9.02743401
  -9.94108624 -10.85473846 -11.7393616  -12.57051012 -13.32221061
 -13.97612893 -14.5169866  -14.93867224 -15.23813016 -15.4199439
 -15.49022484 -15.45508437 -15.32063387 -15.09756828 -14.79047113
 -14.4054538  -13.95321123 -13.44138264 -12.8852465  -12.30160913
 -11.70880467 -11.12975084 -10.58736532 -10.09998228  -9.68593587
  -9.35744886  -9.1191048   -8.97243154  -8.91131768  -8.92506829
  -9.00146062  -9.12979973  -9.29480716  -9.48731582  -9.69968649
  -9.92733562 -10.16720752 -10.41777436 -10.67445257 -10.93113079
 -11.17405839 -11.38948475 -11.55449217 -11.64921866 -11.65074651]",9.246248828389033,-0.10022673242518292,6.19873,-0.1854300000000002
012,2,1,csm,54b.png,1,1,256,248,260,1,0,302,neu_feedback_onset,8,"[  0.45203171   0.59306366   0.75354829   0.93024349   1.11504398
   1.29498129   1.45546592   1.57866624   1.64188746   1.62405584
   1.50409763   1.26418121   0.88971707   0.37259992  -0.28554917
  -1.07662493  -1.98279572  -2.97812465  -4.03343268  -5.11305656
  -6.18133304  -7.20746205  -8.16064349  -9.01980364  -9.77197403
 -10.4122915  -10.9423771  -11.37195717 -11.71562123 -11.98795879
 -12.20842253 -12.3899809  -12.54560236 -12.68015008 -12.79686617
 -12.89250853 -12.96059292 -12.98652983 -12.96059292 -12.86819268
 -12.69636065 -12.4386126  -12.09332749 -11.66374741 -11.16446189
 -10.61978678 -10.05728004  -9.5174681   -9.03763527  -8.65506584
  -8.40542308  -8.31626496  -8.40380203  -8.67127641  -9.11706705
  -9.72172127 -10.46092321 -11.30549384 -12.21814887 -13.16646714
 -14.10992225 -15.01447199 -15.84769522 -16.57554976 -17.17047764
 -17.61140511 -17.88374266 -17.97776396 -17.89671112 -17.65193153
 -17.26449894 -16.76359236 -16.183254   -15.55752604 -14.92207174
 -14.30931224 -13.74518445 -13.24914104 -12.83415048 -12.50507593
 -12.2619174  -12.0965696  -12.0025483  -11.96364294 -11.96526399
 -11.99444302 -12.03172733 -12.06090635 -12.06414846 -12.0252431
 -11.92473757 -11.74966343 -11.48867327 -11.13204076 -10.68138694
 -10.14319606  -9.53367867  -8.87877169  -8.21413837  -7.57544196
  -7.00482994  -6.53958661  -6.21051207  -6.03868004  -6.03057475
  -6.17971199  -6.46177588  -6.84596636  -7.29013595  -7.74889505
  -8.17523301  -8.52700235  -8.76367665  -8.8560769   -8.78312934
  -8.53186552  -8.09418016  -7.47817855  -6.69358702  -5.75499508
  -4.68833966  -3.51955765  -2.27944913  -1.00043525   0.28019968
   1.53327665   2.72961663   3.84328271   4.85644326   5.76099299
   6.54882664   7.22480736   7.79217727   8.25904165   8.63512684
   8.92691708   9.14251765   9.28679171   9.36460244   9.38243407
   9.3435287    9.25599163   9.13117025   8.9787909    8.81182204
   8.64647424   8.49571595   8.37089457   8.28173644   8.23634685
   8.23472579   8.27525222   8.354684     8.46653693   8.59784254
   8.74049554   8.88639066   9.02742261   9.15710716   9.27058114
   9.36784455   9.4488974    9.51049756   9.55912927   9.59317146
   9.6142452    9.62397154   9.62235048   9.61100309   9.58668723
   9.55102398   9.49915016   9.43268683   9.34839187   9.24626529
   9.12792814   8.99500147   8.85234847   8.70483229   8.55731611
   8.41790522   8.29146278   8.18285197   8.09369385   8.02560946
   7.97697775   7.94293556   7.9186197    7.89916702   7.87971434
   7.85701954   7.83108263   7.80190361   7.77434564   7.75165084
   7.7419245    7.75002979   7.77920881   7.83270369   7.91051442
   8.012641     8.13097815   8.26390482   8.40169465   8.54110554
   8.67565327   8.80047465   8.91556968   9.01931732   9.11171757
   9.19439147   9.26733903   9.3321813    9.38729724   9.43106577
   9.45862374   9.46510797   9.43917106   9.37108667   9.24464423
   9.04363318   8.74860083   8.34171555   7.80514572   7.12592289
   6.29594177   5.31682341   4.19991522   2.96142776   1.63216112
   0.25102066  -1.13822509  -2.48856547  -3.75136878  -4.87962437
  -5.83118476  -6.57362881  -7.08426173  -7.35011505  -7.36632562
  -7.14261977  -6.69682913  -6.05813272  -5.25895168  -4.33657031
  -3.3331361   -2.28917547  -1.24359379  -0.23205429   0.71626398
   1.57866624   2.33732086   2.98574362   3.52069239   3.9486514
   4.27448384   4.5127792    4.67488488   4.77863253   4.83536952]","[  1.29488096   1.34986529   1.38499417   1.39263088   1.36972074
   1.31015438   1.20782244   1.05661553   0.85195164   0.59383076
   0.28836226  -0.05834448  -0.43101605  -0.80979699  -1.17483184
  -1.5077925   -1.78729618  -1.99959678  -2.13705761  -2.19509662
  -2.17524117  -2.0866553   -1.93392105  -1.73231185  -1.48946439
  -1.21454274  -0.9182383   -0.60666044  -0.28439117   0.04551481
   0.37847547   0.71449081   1.0520335    1.38957619   1.72559154
   2.06007954   2.39151286   2.71683681   3.03299671   3.33693786
   3.62102356   3.87914444   4.10519113   4.28847223   4.42440571
   4.50230018   4.51910095   4.47328067   4.36331201   4.19224965
   3.97078499   3.7050274    3.40719562   3.09103572   2.7702938
   2.45718859   2.16546618   1.90276327   1.68129861   1.50870891
   1.38957619   1.32695515   1.32237312   1.37430277   1.47663471
   1.62478694   1.80959538   2.02036864   2.24641533   2.4755167
   2.69698136   2.90164525   3.08034432   3.22544186   3.33082849
   3.39497688   3.41330499   3.38275814   3.30180898   3.16740285
   2.97495769   2.72447353   2.41136832   2.03869675   1.60493148
   1.11770923   0.58313936   0.01191327  -0.58222296  -1.18399589
  -1.77813212  -2.34935821  -2.88240074  -3.36504096  -3.78506015
  -4.13634892  -4.40974322  -4.60218838  -4.70604767  -4.71826641
  -4.63578991  -4.46014553  -4.19133325  -3.83851713  -3.41544327
  -2.93891241  -2.43336205  -1.92933903  -1.45586286  -1.03737102
  -0.69830098  -0.45392619  -0.31188334  -0.27217243  -0.32562942
  -0.45545353  -0.644844    -0.87089069  -1.11526548  -1.35964028
  -1.590269    -1.79646023  -1.9751593   -2.12636621  -2.25771766
  -2.37837772  -2.50209246  -2.64871734  -2.83505312  -3.08553729
  -3.41697061  -3.85073587  -4.40057917  -5.0741372   -5.87293732
  -6.79392484  -7.82182634  -8.93678635 -10.11284006 -11.31791328]",8.905924395528162,2.364440717728793,6.1688149999999995,0.17399499999999968
012,2,1,csp,7a.png,1,1,60,52,62,1,1,421,pos_feedback_onset,9,"[ 4.99137907  4.08206778  3.04035142  1.90711979  0.7407869  -0.4021804
 -1.46336809 -2.38630932 -3.11843147 -3.61689761 -3.84665935 -3.78629822
 -3.42802567 -2.77378886 -1.84111197 -0.66114914  0.72715696  2.275128
  3.92824424  5.63198595  7.32988626  8.96937257 10.50955507 11.91149111
 13.15181507 14.2149499  15.08921278 15.7726566  16.27112275 16.59045262
 16.73648762 16.72285769 16.56319275 16.27501701 15.88169607 15.41048979
 14.89449945 14.36293203 13.85083595 13.37962967 12.97073166 12.62998332
 12.35349038 12.12762291 11.93290957 11.74403763 11.5434829  11.31177402
 11.04891102 10.76073528 10.464771   10.1902252   9.96630486  9.82611125
  9.80274565  9.91373226 10.17075386 10.56991621 11.09758935 11.72651343
 12.41969292 13.13429087 13.82357609 14.43887023 14.93733638 15.28197899
 15.44359106 15.40659552 15.17099239 14.74846444 14.17406009 13.49256341
 12.76238839 12.04973758 11.42276063 10.94376581 10.66337861 10.62054167
 10.83083208 11.29230269 11.97964077 12.85779793 13.87809582 14.98601471
 16.12898201 17.2544251  18.31755993 19.28528522 20.12644684 20.82157346
 21.35508801 21.71530768 21.89639109 21.89444395 21.70751915 21.33756381
 20.79236646 20.08166277 19.22881835 18.2513574  17.1843283  16.05693807
 14.90423511 13.76126782 12.66113746 11.6252625  10.67700854  9.83000552
  9.09204197  8.46117075  7.93739187  7.5129168   7.17606272  6.91904111
  6.72822204  6.59581697  6.5101431   6.4634119   6.44783484  6.4575705
  6.48872464  6.53350871  6.58802844  6.65228384  6.72043351  6.79053031
  6.86257425  6.93267105  7.00276785  7.07286465  7.14490859  7.22279392
  7.31041492  7.41556013  7.54601806  7.71541867  7.93155047  8.20804341
  8.55852742  8.99079103  9.50872851 10.11623413 10.80941361 11.5726899
 12.39438018 13.25501314 14.13122316 15.00548605 15.8602776  16.68002076
 17.45692698 18.18710199 18.87054581 19.51115269 20.10892264 20.66969706
 21.19347593 21.67636501 22.11447002 22.50194957 22.83101511 23.09387812
 23.28859145 23.41126086 23.46578059 23.45993919 23.40152519 23.30416852
 23.17760485 23.03546411 22.88553484 22.73560557 22.5915177  22.45521837
 22.3286547  22.20987956 22.09889296 21.99569489 21.89639109 21.80292868
 21.71725481 21.63742235 21.56537841 21.50307014 21.45244467 21.41350201
 21.38624214 21.37261221 21.36871794 21.37650647 21.39403067 21.41934341
 21.44855041 21.47970454 21.51475294 21.54785421 21.58290261 21.61795101
 21.65689368 21.69778348 21.74451468 21.80098155 21.86913122 21.95285795
 22.05216176 22.16898976 22.3052891  22.45911263 22.62851324 22.81543804
 23.01209851 23.21849465 23.42878506 23.63907546 23.8454716  24.04602634
 24.23489828 24.41208741 24.57759375 24.73141729 24.87161089 25.00206883
