sub,run,cat_cond,trial_type,picture,old,response_old,target_pos,response_pos,dot_resp_loc,cat_corr,TN_corr,TN_rt,feedback_type,trial,SP_timeseries,FB_timeseries,SP_peak_response,FB_peak_response,preStim_bl,anticipation
032,1,2,csm,37a.png,1,1,104,110,NaN,0,1,534,neu_feedback_onset,1,"[-5.25497743e-01 -4.14945534e-01 -3.15635923e-01 -2.23821378e-01
 -1.43249429e-01 -7.39200782e-02 -1.58333247e-02  3.10108313e-02
  6.84861561e-02  9.65926498e-02  1.17204078e-01  1.32194208e-01
  1.43436806e-01  1.50931871e-01  1.56553170e-01  1.58426936e-01
  1.62174468e-01  1.64048234e-01  1.65922001e-01  1.65922001e-01
  1.67795767e-01  1.67795767e-01  1.69669533e-01  1.69669533e-01
  1.71543299e-01  1.71543299e-01  1.73417066e-01  1.73417066e-01
  1.75290832e-01  1.75290832e-01  1.77164598e-01  1.77164598e-01
  1.79038364e-01  1.79038364e-01  1.80912131e-01  1.80912131e-01
  1.82785897e-01  1.82785897e-01  1.84659663e-01  1.84659663e-01
  1.86533429e-01  1.86533429e-01  1.88407196e-01  1.88407196e-01
  1.90280962e-01  1.90280962e-01  1.92154728e-01  1.94028494e-01
  1.94028494e-01  1.97776027e-01  1.99649793e-01  2.05271092e-01
  2.10892391e-01  2.20261222e-01  2.33377585e-01  2.52115248e-01
  2.76474209e-01  3.10202001e-01  3.49551092e-01  4.02016547e-01
  4.63850833e-01  5.36927717e-01  6.21247198e-01  7.18683042e-01
  8.27361484e-01  9.45408757e-01  1.07282486e+00  1.20586227e+00
  1.34639473e+00  1.48692720e+00  1.62745967e+00  1.76049707e+00
  1.88603941e+00  2.00033915e+00  2.09777500e+00  2.17647318e+00
  2.23830746e+00  2.27953032e+00  2.30201552e+00  2.30763682e+00
  2.29826798e+00  2.27765656e+00  2.24580253e+00  2.20645344e+00
  2.16335681e+00  2.11463889e+00  2.06404720e+00  2.01158175e+00
  1.95911629e+00  1.90477707e+00  1.85043785e+00  1.79609863e+00
  1.74175941e+00  1.68742019e+00  1.63120720e+00  1.57686798e+00
  1.52252876e+00  1.46818954e+00  1.41197655e+00  1.35763733e+00
  1.30329811e+00  1.24895889e+00  1.19274590e+00  1.13840668e+00
  1.08219369e+00  1.02598071e+00  9.67893952e-01  9.09807199e-01
  8.47972913e-01  7.84264861e-01  7.18683042e-01  6.45606159e-01
  5.68781743e-01  4.86336028e-01  3.96395249e-01  3.00833170e-01
  1.95902261e-01  8.53500523e-02 -3.26972209e-02 -1.56365793e-01
 -2.85655664e-01 -4.18693067e-01 -5.55478002e-01 -6.96010471e-01
 -8.38416705e-01 -9.80822939e-01 -1.12510294e+00 -1.26938294e+00
 -1.41553671e+00 -1.56169047e+00 -1.70597048e+00 -1.85212424e+00
 -1.99827801e+00 -2.14255801e+00 -2.28683801e+00 -2.42924424e+00
 -2.56790295e+00 -2.70468788e+00 -2.83397775e+00 -2.95764632e+00
 -3.06819853e+00 -3.16188685e+00 -3.23683749e+00 -3.28742918e+00
 -3.30804061e+00 -3.29492425e+00 -3.24245879e+00 -3.15251801e+00
 -3.02135438e+00 -2.85271542e+00 -2.65034866e+00 -2.41800165e+00
 -2.16504320e+00 -1.89896840e+00 -1.62539853e+00 -1.35557619e+00
 -1.09512268e+00 -8.49659302e-01 -6.24807353e-01 -4.24314366e-01
 -2.46306573e-01 -9.45315069e-02  3.10108313e-02  1.30320442e-01
  2.05271092e-01  2.53989014e-01  2.74600443e-01  2.70852910e-01
  2.40872650e-01  1.84659663e-01  1.05961481e-01  4.77810392e-03
 -1.11395403e-01 -2.40685274e-01 -3.79343976e-01 -5.19876444e-01
 -6.60408912e-01 -7.97193848e-01 -9.26483718e-01 -1.05015229e+00
 -1.16632580e+00 -1.27500424e+00 -1.37806138e+00 -1.47737099e+00
 -1.57293307e+00 -1.66474762e+00 -1.75468840e+00 -1.84275541e+00
 -1.93269619e+00 -2.01888944e+00 -2.10695645e+00 -2.19502346e+00
 -2.28121671e+00 -2.36928372e+00 -2.45735074e+00 -2.54354399e+00
 -2.63161100e+00 -2.71780425e+00 -2.80587126e+00 -2.89206451e+00
 -2.98013152e+00 -3.06819853e+00 -3.15439178e+00 -3.24245879e+00
 -3.32865204e+00 -3.41671905e+00 -3.50291230e+00 -3.59097931e+00
 -3.67717256e+00 -3.76523958e+00 -3.85330659e+00 -3.93949984e+00
 -4.02756685e+00 -4.11376010e+00 -4.20182711e+00 -4.28802036e+00
 -4.37608737e+00 -4.46415438e+00 -4.55034763e+00 -4.63841464e+00
 -4.72460789e+00 -4.81267490e+00 -4.89886815e+00 -4.98693516e+00
 -5.07500218e+00 -5.16119543e+00 -5.24926244e+00 -5.33545569e+00
 -5.42352270e+00 -5.50971595e+00 -5.59778296e+00 -5.68397621e+00
 -5.77204322e+00 -5.86011023e+00 -5.94630348e+00 -6.03437049e+00
 -6.12056374e+00 -6.20863075e+00 -6.29482400e+00 -6.38289102e+00
 -6.47095803e+00 -6.55715128e+00 -6.64521829e+00 -6.73141154e+00
 -6.81947855e+00 -6.90567180e+00 -6.99373881e+00 -7.08180582e+00
 -7.16799907e+00 -7.25606608e+00 -7.34225933e+00 -7.43032634e+00
 -7.51651959e+00 -7.60458661e+00 -7.69265362e+00 -7.78072063e+00
 -7.87066141e+00 -7.96060219e+00 -8.05241674e+00 -8.14985258e+00]","[nan nan nan nan nan nan nan nan nan nan nan nan nan nan nan nan nan nan
 nan nan nan nan nan nan nan nan nan nan nan nan nan nan nan nan nan nan
 nan nan nan nan nan nan nan nan nan nan nan nan nan nan nan nan nan nan
 nan nan nan nan nan nan nan nan nan nan nan nan nan nan nan nan nan nan
 nan nan nan nan nan nan nan nan nan nan nan nan nan nan nan nan nan nan
 nan nan nan nan nan nan nan nan nan nan nan nan nan nan nan nan nan nan
 nan nan nan nan nan nan nan nan nan nan nan nan nan nan nan nan nan nan
 nan nan nan nan nan nan nan nan nan nan nan nan nan nan]",1.6558940722468165,,5.336844999999999,
032,1,2,csp,53b.png,1,1,124,125,124,1,1,257,pos_feedback_onset,2,"[nan nan nan nan nan nan nan nan nan nan nan nan nan nan nan nan nan nan
 nan nan nan nan nan nan nan nan nan nan nan nan nan nan nan nan nan nan
 nan nan nan nan nan nan nan nan nan nan nan nan nan nan nan nan nan nan
 nan nan nan nan nan nan nan nan nan nan nan nan nan nan nan nan nan nan
 nan nan nan nan nan nan nan nan nan nan nan nan nan nan nan nan nan nan
 nan nan nan nan nan nan nan nan nan nan nan nan nan nan nan nan nan nan
 nan nan nan nan nan nan nan nan nan nan nan nan nan nan nan nan nan nan
 nan nan nan nan nan nan nan nan nan nan nan nan nan nan nan nan nan nan
 nan nan nan nan nan nan nan nan nan nan nan nan nan nan nan nan nan nan
 nan nan nan nan nan nan nan nan nan nan nan nan nan nan nan nan nan nan
 nan nan nan nan nan nan nan nan nan nan nan nan nan nan nan nan nan nan
 nan nan nan nan nan nan nan nan nan nan nan nan nan nan nan nan nan nan
 nan nan nan nan nan nan nan nan nan nan nan nan nan nan nan nan nan nan
 nan nan nan nan nan nan nan nan nan nan nan nan nan nan nan nan nan nan
 nan nan nan nan nan nan nan nan]","[nan nan nan nan nan nan nan nan nan nan nan nan nan nan nan nan nan nan
 nan nan nan nan nan nan nan nan nan nan nan nan nan nan nan nan nan nan
 nan nan nan nan nan nan nan nan nan nan nan nan nan nan nan nan nan nan
 nan nan nan nan nan nan nan nan nan nan nan nan nan nan nan nan nan nan
 nan nan nan nan nan nan nan nan nan nan nan nan nan nan nan nan nan nan
 nan nan nan nan nan nan nan nan nan nan nan nan nan nan nan nan nan nan
 nan nan nan nan nan nan nan nan nan nan nan nan nan nan nan nan nan nan
 nan nan nan nan nan nan nan nan nan nan nan nan nan nan]",,,5.10424,0.12670000000000137
032,1,2,csp,44b.png,1,1,248,219,247,1,1,334,pos_feedback_onset,3,"[-4.22694872e-02 -4.03481469e-02 -4.03481469e-02 -3.84268065e-02
 -3.65054662e-02 -3.65054662e-02 -3.45841259e-02 -3.26627856e-02
 -3.07414452e-02 -2.88201049e-02 -2.49774243e-02 -1.92134033e-02
 -1.34493823e-02 -3.84268065e-03  9.60670164e-03  2.88201049e-02
  5.18761888e-02  7.87749534e-02  1.09516399e-01  1.44100525e-01
  1.74841970e-01  2.01740734e-01  2.19032797e-01  2.19032797e-01
  1.99819394e-01  1.55628566e-01  8.45389744e-02 -1.34493823e-02
 -1.36415163e-01 -2.80515688e-01 -4.43829616e-01 -6.18671585e-01
 -7.97356236e-01 -9.77962226e-01 -1.15472554e+00 -1.32380349e+00
 -1.48711741e+00 -1.64082464e+00 -1.78876784e+00 -1.92902569e+00
 -2.06159817e+00 -2.18840663e+00 -2.30752973e+00 -2.41512479e+00
 -2.51311315e+00 -2.59380944e+00 -2.65721367e+00 -2.70332584e+00
 -2.73022460e+00 -2.73790997e+00 -2.72830326e+00 -2.70524718e+00
 -2.67066305e+00 -2.62647223e+00 -2.57267470e+00 -2.51695583e+00
 -2.45547294e+00 -2.39399005e+00 -2.33250716e+00 -2.27102427e+00
 -2.20954138e+00 -2.15382251e+00 -2.10002498e+00 -2.05199147e+00
 -2.00972198e+00 -1.97513786e+00 -1.95208177e+00 -1.93863239e+00
 -1.93863239e+00 -1.95208177e+00 -1.98090188e+00 -2.02701404e+00
 -2.09233962e+00 -2.17687859e+00 -2.28447365e+00 -2.41320345e+00
 -2.56883202e+00 -2.74751667e+00 -2.95310008e+00 -3.17981824e+00
 -3.42767114e+00 -3.68897343e+00 -3.95988241e+00 -4.23079140e+00
 -4.49401502e+00 -4.73610391e+00 -4.95129402e+00 -5.12805733e+00
 -5.26062982e+00 -5.34324745e+00 -5.37206755e+00 -5.35093281e+00
 -5.28176456e+00 -5.16840548e+00 -5.02430496e+00 -4.85330567e+00
 -4.67077833e+00 -4.48440832e+00 -4.30380233e+00 -4.14048840e+00
 -3.99830922e+00 -3.88495014e+00 -3.80233251e+00 -3.75045632e+00
 -3.72740023e+00 -3.72932157e+00 -3.75045632e+00 -3.78696178e+00
 -3.83115261e+00 -3.87534344e+00 -3.91377025e+00 -3.94259035e+00
 -3.95603973e+00 -3.95027571e+00 -3.92337695e+00 -3.87726478e+00
 -3.81001787e+00 -3.72163621e+00 -3.61596250e+00 -3.49107537e+00
 -3.35273887e+00 -3.19903164e+00 -3.03571772e+00 -2.86279709e+00
 -2.68411244e+00 -2.50158511e+00 -2.31713643e+00 -2.13653044e+00
 -1.96168847e+00 -1.79453187e+00 -1.63698196e+00 -1.48903875e+00
 -1.35262359e+00 -1.22389379e+00 -1.10477069e+00 -9.89490268e-01
 -8.74209849e-01 -7.58929429e-01 -6.37884989e-01 -5.11076527e-01
 -3.76582704e-01 -2.34403520e-01 -8.45389744e-02  6.91682518e-02
  2.26718159e-01  3.88110746e-01  5.47581993e-01  7.05131900e-01
  8.62681807e-01  1.01831037e+00  1.17009626e+00  1.31996080e+00
  1.46790401e+00  1.61008319e+00  1.74457702e+00  1.87138548e+00
  1.98474456e+00  2.08273291e+00  2.16150787e+00  2.22299076e+00
  2.26141756e+00  2.28255231e+00  2.28447365e+00  2.27102427e+00
  2.24220416e+00  2.20377736e+00  2.15574385e+00  2.10194632e+00
  2.04430611e+00  1.98282322e+00  1.91941899e+00  1.85601476e+00
  1.79068918e+00  1.72536361e+00  1.66003804e+00  1.59279113e+00
  1.52746556e+00  1.46213999e+00  1.39681442e+00  1.32956751e+00
  1.26424194e+00  1.19891636e+00  1.13359079e+00  1.06634388e+00
  1.00101831e+00  9.35692739e-01  8.70367168e-01  8.03120257e-01
  7.37794686e-01  6.72469114e-01  6.07143543e-01  5.39896632e-01
  4.74571061e-01  4.09245490e-01  3.43919919e-01  2.76673007e-01
  2.11347436e-01  1.46021865e-01  8.06962937e-02  1.34493823e-02
 -5.18761888e-02 -1.17201760e-01 -1.82527331e-01 -2.49774243e-01
 -3.15099814e-01 -3.80425385e-01 -4.45750956e-01 -5.12997867e-01
 -5.78323438e-01 -6.43649010e-01 -7.08974581e-01 -7.76221492e-01
 -8.41547063e-01 -9.06872634e-01 -9.72198205e-01 -1.03944512e+00
 -1.10477069e+00 -1.17009626e+00 -1.23542183e+00 -1.30074740e+00
 -1.36799431e+00 -1.43331988e+00 -1.49864546e+00 -1.56397103e+00
 -1.63121794e+00 -1.69654351e+00 -1.76186908e+00 -1.82719465e+00
 -1.89444156e+00 -1.95976713e+00 -2.02509270e+00 -2.09041828e+00
 -2.15766519e+00 -2.22299076e+00 -2.28831633e+00 -2.35364190e+00
 -2.41704613e+00 -2.48237170e+00 -2.54577593e+00 -2.60725882e+00
 -2.66682037e+00 -2.72446058e+00 -2.78017945e+00 -2.83205564e+00
 -2.88008915e+00 -2.92235864e+00 -2.95886410e+00 -2.98768421e+00
 -3.00881895e+00 -3.02226833e+00 -3.02611102e+00 -3.02226833e+00
 -3.00881895e+00 -2.98768421e+00 -2.96078544e+00 -2.92620132e+00
 -2.88585317e+00 -2.84358368e+00 -2.79747152e+00 -2.74751667e+00]","[nan nan nan nan nan nan nan nan nan nan nan nan nan nan nan nan nan nan
 nan nan nan nan nan nan nan nan nan nan nan nan nan nan nan nan nan nan
 nan nan nan nan nan nan nan nan nan nan nan nan nan nan nan nan nan nan
 nan nan nan nan nan nan nan nan nan nan nan nan nan nan nan nan nan nan
 nan nan nan nan nan nan nan nan nan nan nan nan nan nan nan nan nan nan
 nan nan nan nan nan nan nan nan nan nan nan nan nan nan nan nan nan nan
 nan nan nan nan nan nan nan nan nan nan nan nan nan nan nan nan nan nan
 nan nan nan nan nan nan nan nan nan nan nan nan nan nan]",1.5480719349818464,,5.2047,-0.2144699999999995
032,1,2,csm,39a.png,1,1,108,1,109,1,1,305,neu_feedback_onset,4,"[nan nan nan nan nan nan nan nan nan nan nan nan nan nan nan nan nan nan
 nan nan nan nan nan nan nan nan nan nan nan nan nan nan nan nan nan nan
 nan nan nan nan nan nan nan nan nan nan nan nan nan nan nan nan nan nan
 nan nan nan nan nan nan nan nan nan nan nan nan nan nan nan nan nan nan
 nan nan nan nan nan nan nan nan nan nan nan nan nan nan nan nan nan nan
 nan nan nan nan nan nan nan nan nan nan nan nan nan nan nan nan nan nan
 nan nan nan nan nan nan nan nan nan nan nan nan nan nan nan nan nan nan
 nan nan nan nan nan nan nan nan nan nan nan nan nan nan nan nan nan nan
 nan nan nan nan nan nan nan nan nan nan nan nan nan nan nan nan nan nan
 nan nan nan nan nan nan nan nan nan nan nan nan nan nan nan nan nan nan
 nan nan nan nan nan nan nan nan nan nan nan nan nan nan nan nan nan nan
 nan nan nan nan nan nan nan nan nan nan nan nan nan nan nan nan nan nan
 nan nan nan nan nan nan nan nan nan nan nan nan nan nan nan nan nan nan
 nan nan nan nan nan nan nan nan nan nan nan nan nan nan nan nan nan nan
 nan nan nan nan nan nan nan nan]","[nan nan nan nan nan nan nan nan nan nan nan nan nan nan nan nan nan nan
 nan nan nan nan nan nan nan nan nan nan nan nan nan nan nan nan nan nan
 nan nan nan nan nan nan nan nan nan nan nan nan nan nan nan nan nan nan
 nan nan nan nan nan nan nan nan nan nan nan nan nan nan nan nan nan nan
 nan nan nan nan nan nan nan nan nan nan nan nan nan nan nan nan nan nan
 nan nan nan nan nan nan nan nan nan nan nan nan nan nan nan nan nan nan
 nan nan nan nan nan nan nan nan nan nan nan nan nan nan nan nan nan nan
 nan nan nan nan nan nan nan nan nan nan nan nan nan nan]",,,5.144395,
032,1,2,csp,20b.png,1,0,252,NaN,253,1,1,271,pos_feedback_onset,5,"[nan nan nan nan nan nan nan nan nan nan nan nan nan nan nan nan nan nan
 nan nan nan nan nan nan nan nan nan nan nan nan nan nan nan nan nan nan
 nan nan nan nan nan nan nan nan nan nan nan nan nan nan nan nan nan nan
 nan nan nan nan nan nan nan nan nan nan nan nan nan nan nan nan nan nan
 nan nan nan nan nan nan nan nan nan nan nan nan nan nan nan nan nan nan
 nan nan nan nan nan nan nan nan nan nan nan nan nan nan nan nan nan nan
 nan nan nan nan nan nan nan nan nan nan nan nan nan nan nan nan nan nan
 nan nan nan nan nan nan nan nan nan nan nan nan nan nan nan nan nan nan
 nan nan nan nan nan nan nan nan nan nan nan nan nan nan nan nan nan nan
 nan nan nan nan nan nan nan nan nan nan nan nan nan nan nan nan nan nan
 nan nan nan nan nan nan nan nan nan nan nan nan nan nan nan nan nan nan
 nan nan nan nan nan nan nan nan nan nan nan nan nan nan nan nan nan nan
 nan nan nan nan nan nan nan nan nan nan nan nan nan nan nan nan nan nan
 nan nan nan nan nan nan nan nan nan nan nan nan nan nan nan nan nan nan
 nan nan nan nan nan nan nan nan]","[nan nan nan nan nan nan nan nan nan nan nan nan nan nan nan nan nan nan
 nan nan nan nan nan nan nan nan nan nan nan nan nan nan nan nan nan nan
 nan nan nan nan nan nan nan nan nan nan nan nan nan nan nan nan nan nan
 nan nan nan nan nan nan nan nan nan nan nan nan nan nan nan nan nan nan
 nan nan nan nan nan nan nan nan nan nan nan nan nan nan nan nan nan nan
 nan nan nan nan nan nan nan nan nan nan nan nan nan nan nan nan nan nan
 nan nan nan nan nan nan nan nan nan nan nan nan nan nan nan nan nan nan
 nan nan nan nan nan nan nan nan nan nan nan nan nan nan]",,,4.958680000000001,0.18983499999999953
032,1,2,csp,25b.png,1,1,200,349,200,1,1,254,pos_feedback_onset,6,"[nan nan nan nan nan nan nan nan nan nan nan nan nan nan nan nan nan nan
 nan nan nan nan nan nan nan nan nan nan nan nan nan nan nan nan nan nan
 nan nan nan nan nan nan nan nan nan nan nan nan nan nan nan nan nan nan
 nan nan nan nan nan nan nan nan nan nan nan nan nan nan nan nan nan nan
 nan nan nan nan nan nan nan nan nan nan nan nan nan nan nan nan nan nan
 nan nan nan nan nan nan nan nan nan nan nan nan nan nan nan nan nan nan
 nan nan nan nan nan nan nan nan nan nan nan nan nan nan nan nan nan nan
 nan nan nan nan nan nan nan nan nan nan nan nan nan nan nan nan nan nan
 nan nan nan nan nan nan nan nan nan nan nan nan nan nan nan nan nan nan
 nan nan nan nan nan nan nan nan nan nan nan nan nan nan nan nan nan nan
 nan nan nan nan nan nan nan nan nan nan nan nan nan nan nan nan nan nan
 nan nan nan nan nan nan nan nan nan nan nan nan nan nan nan nan nan nan
 nan nan nan nan nan nan nan nan nan nan nan nan nan nan nan nan nan nan
 nan nan nan nan nan nan nan nan nan nan nan nan nan nan nan nan nan nan
 nan nan nan nan nan nan nan nan]","[nan nan nan nan nan nan nan nan nan nan nan nan nan nan nan nan nan nan
 nan nan nan nan nan nan nan nan nan nan nan nan nan nan nan nan nan nan
 nan nan nan nan nan nan nan nan nan nan nan nan nan nan nan nan nan nan
 nan nan nan nan nan nan nan nan nan nan nan nan nan nan nan nan nan nan
 nan nan nan nan nan nan nan nan nan nan nan nan nan nan nan nan nan nan
 nan nan nan nan nan nan nan nan nan nan nan nan nan nan nan nan nan nan
 nan nan nan nan nan nan nan nan nan nan nan nan nan nan nan nan nan nan
 nan nan nan nan nan nan nan nan nan nan nan nan nan nan]",,,5.250535000000001,-0.007279999999998843
032,1,2,csm,38a.png,1,1,292,71,294,1,1,292,neu_feedback_onset,7,"[ 1.4034655   1.16115297  0.92533096  0.69816297  0.47964899  0.27627955
  0.09021815 -0.07420821 -0.21267251 -0.32084775 -0.39873392 -0.44416752
 -0.46363906 -0.45931205 -0.44200401 -0.42253247 -0.40738794 -0.41387845
 -0.45065803 -0.52421719 -0.64537345 -0.81845383 -1.04345832 -1.32038692
 -1.64491263 -2.01270843 -2.4129568  -2.83267671 -3.26321415 -3.68726107
 -4.08967294 -4.45963225 -4.77983094 -5.03945151 -5.22983992 -5.34666918
 -5.38561226 -5.34666918 -5.23633044 -5.05675955 -4.82093753 -4.53319141
 -4.2086657  -3.85385093 -3.48389163 -3.1031148  -2.72017447 -2.34372465
 -1.97809235 -1.62327758 -1.28360734 -0.95908164 -0.64537345 -0.34248279
 -0.05040966  0.23733647  0.51642857  0.79335718  1.06812227  1.34072387
  1.60899845  1.87727303  2.14122061  2.40300468  2.65613473  2.90277426
  3.13859627  3.35927375  3.56047969  3.74005058  3.89149591  4.01048867
  4.09486535  4.13813545  4.14246246  4.10351937  4.02130619  3.90014993
  3.74221409  3.54966217  3.32898469  3.08883567  2.83786912  2.58473907
  2.33809953  2.10876804  1.9097256   1.74529925  1.62414298  1.55058382
  1.52894877  1.55707434  1.6306335   1.74962625  1.90323509  2.08713299
  2.29266594  2.51550692  2.74483842  2.98066043  3.21648244  3.45014095
  3.67730895  3.90014993  4.1165004   4.32419685  4.52323929  4.7136277
  4.89536209  5.06844247  5.23286883  5.38864117  5.53575949  5.67422379
  5.80619758  5.92735384  6.03985608  6.1393773   6.22591749  6.29514964
  6.35140076  6.39034385  6.4141424   6.42712343  6.43145044  6.43794095
  6.44659497  6.47039352  6.51366361  6.58073226  6.67592647  6.79708273
  6.94852806  7.12377194  7.32281437  7.53700134  7.76416933  7.99782784
  8.23148635  8.46514486  8.69014935  8.90433631  9.10554225  9.28727665
  9.4495395   9.59449431  9.71781408  9.82598932  9.91685651  9.99906969
 10.07046535 10.1396975  10.20676614 10.27167129 10.33441292 10.38633704
 10.42528012 10.43826115 10.41229909 10.33873993 10.20460264 10.0012332
  9.72214109  9.36732632  8.94111589  8.45432733  7.91561466  7.34661293
  6.76679366  6.19562842  5.65258874  5.15498266  4.7157912   4.3458319
  4.04294124  3.80928273  3.63620236  3.51504609  3.43066941  3.36792777
  3.31600366  3.26191604  3.19052039  3.09965319  2.98066043  2.83570562
  2.66695225  2.48089084  2.28617542  2.09146     1.9075621   1.74746275
  1.61981597  1.53543929  1.4964962   1.50731373  1.56789186  1.67606709
  1.82534892  2.0027563   2.19963523  2.40300468  2.5977201   2.77296398
  2.9179188   3.02393053  3.08667216  3.1061437   3.08450866  3.02609403
  2.94388085  2.84652314  2.74700192  2.65829823  2.58690258  2.54363248
  2.53497846  2.56310402  2.62584566  2.72103987  2.84003263  2.97416992
  3.11479772  3.25326202  3.37441829  3.471776    3.54100815  3.57562423
  3.57995123  3.55398918  3.50855558  3.45014095  3.39388983  3.35278324
  3.33763871  3.36143726  3.43283291  3.55398918  3.72706955  3.94774703
  4.2073676   4.49944073  4.81098541  5.13334761  5.45787332  5.7715815
  6.07230865  6.35572777  6.61967534  6.86198787  7.08482886  7.29252531
  7.48291372  7.66464812  7.83340148  7.99566434  8.15143668  8.29639149
  8.43485579  8.56033906]","[ -1.44216975  -1.27660855  -1.12421699  -0.97746957  -0.83448489
  -0.68773747  -0.53722728  -0.38107297  -0.21739314  -0.04995057
   0.11749201   0.28493459   0.44861441   0.60288735   0.7477534
   0.87756843   0.99045107   1.08451993   1.15977502   1.21433497
   1.244437     1.25384389   1.24067425   1.20869083   1.15601227
   1.09016407   1.01114622   0.92084011   0.82488987   0.72141412
   0.61417561   0.50505573   0.39405447   0.28117183   0.17017058
   0.05728794  -0.0555947   -0.17035871  -0.28324135  -0.39612399
  -0.50900662  -0.62188926  -0.7347719   -0.84953591  -0.96241855
  -1.07530118  -1.18818382  -1.30106646  -1.4139491   -1.52495036
  -1.63595161  -1.7450715   -1.85419138  -1.95954851  -2.06114288
  -2.16085588  -2.25680612  -2.35275636  -2.44682522  -2.54277546
  -2.64625121  -2.76101523  -2.88894888  -3.03945907  -3.21254578
  -3.41573452  -3.64526255  -3.90677399  -4.19650609  -4.51257748
  -4.85310677  -5.21621258  -5.59813217  -5.99510277  -6.4071244
  -6.83043429  -7.26126969  -7.69586784  -8.13234737  -8.56318276
  -8.98461127  -9.39475152  -9.78795937 -10.16047208 -10.50852687
 -10.83212376 -11.12561862 -11.38713006 -11.61477671 -11.80291444
 -11.95154325 -12.05878175 -12.12274858 -12.14344373 -12.12274858
 -12.06254451 -11.96659426 -11.84054199 -11.69191318 -11.5244706
 -11.34573976 -11.16512754 -10.9863967  -10.81707275 -10.66091843
 -10.52169651 -10.40316974 -10.30345675 -10.22067615 -10.15106519
 -10.08521698 -10.01560602  -9.93658818  -9.83499381  -9.70517877
  -9.54149895  -9.34019158  -9.09749391  -8.81528732  -8.49921594
  -8.14927976  -7.77300431  -7.37415232  -6.96024932  -6.53505805
  -6.1004599   -5.66398037  -5.22750084  -4.79290269  -4.36583005
  -3.95004567  -3.54931231  -3.1692741   -2.81369379  -2.48821552
  -2.2003648   -1.95014162  -1.73942737  -1.57198479  -1.44593251]",8.462061863253556,0.3180468293618753,4.6221299999999985,-0.11220499999999944
032,1,2,csp,32b.png,1,1,324,236,324,1,0,309,neg_feedback_onset,8,"[-6.31489847e-01 -6.52441733e-01 -6.46156167e-01 -6.18918715e-01
 -5.72824566e-01 -5.12064096e-01 -4.40827683e-01 -3.61210516e-01
 -2.79498160e-01 -1.91500239e-01 -9.93119401e-02 -2.93326405e-03
  1.03921355e-01  2.19156728e-01  3.49058422e-01  4.95721625e-01
  6.59146336e-01  8.45618123e-01  1.05304179e+00  1.28351254e+00
  1.53493517e+00  1.80521451e+00  2.09225534e+00  2.39186732e+00
  2.69986004e+00  3.00785277e+00  3.31375030e+00  3.60917190e+00
  3.88992717e+00  4.14973056e+00  4.38648687e+00  4.59600573e+00
  4.77619195e+00  4.93123591e+00  5.05904241e+00  5.16170666e+00
  5.24341901e+00  5.30208429e+00  5.34398807e+00  5.36703514e+00
  5.37332071e+00  5.36074957e+00  5.32932175e+00  5.27903722e+00
  5.20780081e+00  5.11770770e+00  5.00666270e+00  4.87676101e+00
  4.73009780e+00  4.56876828e+00  4.39486763e+00  4.21258622e+00
  4.02611443e+00  3.83754746e+00  3.65317086e+00  3.47927020e+00
  3.31794068e+00  3.17756304e+00  3.06232767e+00  2.98061531e+00
  2.93033079e+00  2.91775966e+00  2.93871154e+00  2.98690088e+00
  3.05394692e+00  3.13146889e+00  3.20061012e+00  3.25298983e+00
  3.27394172e+00  3.25508502e+00  3.19013418e+00  3.07908918e+00
  2.92195003e+00  2.72290712e+00  2.49243637e+00  2.23891855e+00
  1.97282959e+00  1.70255026e+00  1.43646131e+00  1.18713387e+00
  9.54567930e-01  7.42953881e-01  5.56482095e-01  3.88867006e-01
  2.40108615e-01  1.06016544e-01 -1.96947729e-02 -1.37025335e-01
 -2.50165520e-01 -3.57020139e-01 -4.55494004e-01 -5.43491925e-01
 -6.10537961e-01 -6.54536921e-01 -6.67108053e-01 -6.41965790e-01
 -5.79110131e-01 -4.74350701e-01 -3.36068253e-01 -1.66357976e-01
  2.84945651e-02  2.38013426e-01  4.53817853e-01  6.67527091e-01
  8.72855574e-01  1.06142255e+00  1.23532320e+00  1.39036716e+00
  1.53074480e+00  1.65436093e+00  1.76959630e+00  1.88064130e+00
  1.98959110e+00  2.10273129e+00  2.22006185e+00  2.34367798e+00
  2.47148448e+00  2.60138618e+00  2.72500230e+00  2.83604730e+00
  2.92614041e+00  2.98899607e+00  3.01204314e+00  2.99109126e+00
  2.92614041e+00  2.81300023e+00  2.66005146e+00  2.46938929e+00
  2.24939449e+00  2.01263818e+00  1.76331073e+00  1.51188810e+00
  1.26465584e+00  1.02161397e+00  7.91143219e-01  5.69053226e-01
  3.59534365e-01  1.58396259e-01 -3.22659046e-02 -2.12452125e-01
 -3.82162402e-01 -5.41396737e-01 -6.92250316e-01 -8.34723142e-01
 -9.68815213e-01 -1.10081210e+00 -1.22861860e+00 -1.36061548e+00
 -1.49680274e+00 -1.64137076e+00 -1.79850990e+00 -1.96612499e+00
 -2.14840640e+00 -2.34116375e+00 -2.54649224e+00 -2.76020147e+00
 -2.98019628e+00 -3.20647665e+00 -3.43485221e+00 -3.66532295e+00
 -3.89160332e+00 -4.11578850e+00 -4.33159293e+00 -4.53692141e+00
 -4.72758358e+00 -4.90148423e+00 -5.05443300e+00 -5.18223951e+00
 -5.28071337e+00 -5.34985459e+00 -5.38756799e+00 -5.39594874e+00
 -5.37709205e+00 -5.33518827e+00 -5.27652299e+00 -5.20947696e+00
 -5.14243092e+00 -5.08586083e+00 -5.04814743e+00 -5.03557630e+00
 -5.05862338e+00 -5.11938385e+00 -5.21576252e+00 -5.34985459e+00
 -5.51327931e+00 -5.70184628e+00 -5.90088920e+00 -6.10412249e+00
 -6.29897503e+00 -6.47287569e+00 -6.61534851e+00 -6.71801276e+00
 -6.77039247e+00 -6.77039247e+00 -6.71382238e+00 -6.59649182e+00
 -6.42468635e+00 -6.20050117e+00 -5.93022184e+00 -5.61803874e+00
 -5.27233262e+00 -4.89519867e+00 -4.49501764e+00 -4.07388473e+00
 -3.63389512e+00 -3.17714401e+00 -2.70363138e+00 -2.21754762e+00
 -1.71679755e+00 -1.20557153e+00 -6.88059939e-01 -1.68453164e-01
  3.49058422e-01  8.56094066e-01  1.34427301e+00  1.80521451e+00
  2.23263298e+00  2.61814769e+00  2.95547305e+00  3.24041870e+00
  3.47298464e+00  3.65107567e+00  3.78516774e+00  3.87735604e+00
  3.94440208e+00  3.99259141e+00  4.03868556e+00  4.08897009e+00
  4.15601612e+00  4.24610923e+00  4.35924942e+00  4.49753187e+00
  4.66095658e+00  4.84533318e+00  5.04647128e+00  5.26018052e+00
  5.48436570e+00  5.71483645e+00  5.94949757e+00  6.18415870e+00
  6.42091501e+00  6.65348095e+00  6.88395169e+00  7.10604169e+00
  7.31975092e+00  7.51669865e+00  7.69269450e+00  7.84354808e+00
  7.96297383e+00  8.04259099e+00  8.07820920e+00  8.06354288e+00
  8.00068722e+00  7.88545185e+00  7.71993195e+00  7.51460346e+00
  7.27156159e+00  7.00128226e+00  6.71633660e+00  6.42301020e+00]","[nan nan nan nan nan nan nan nan nan nan nan nan nan nan nan nan nan nan
 nan nan nan nan nan nan nan nan nan nan nan nan nan nan nan nan nan nan
 nan nan nan nan nan nan nan nan nan nan nan nan nan nan nan nan nan nan
 nan nan nan nan nan nan nan nan nan nan nan nan nan nan nan nan nan nan
 nan nan nan nan nan nan nan nan nan nan nan nan nan nan nan nan nan nan
 nan nan nan nan nan nan nan nan nan nan nan nan nan nan nan nan nan nan
 nan nan nan nan nan nan nan nan nan nan nan nan nan nan nan nan nan nan
 nan nan nan nan nan nan nan nan nan nan nan nan nan nan]",6.670661492947586,,4.77284,-0.24202500000000082
032,1,2,csp,15b.png,1,1,316,319,317,1,1,325,pos_feedback_onset,9,"[nan nan nan nan nan nan nan nan nan nan nan nan nan nan nan nan nan nan
 nan nan nan nan nan nan nan nan nan nan nan nan nan nan nan nan nan nan
 nan nan nan nan nan nan nan nan nan nan nan nan nan nan nan nan nan nan
 nan nan nan nan nan nan nan nan nan nan nan nan nan nan nan nan nan nan
 nan nan nan nan nan nan nan nan nan nan nan nan nan nan nan nan nan nan
 nan nan nan nan nan nan nan nan nan nan nan nan nan nan nan nan nan nan
 nan nan nan nan nan nan nan nan nan nan nan nan nan nan nan nan nan nan
 nan nan nan nan nan nan nan nan nan nan nan nan nan nan nan nan nan nan
 nan nan nan nan nan nan nan nan nan nan nan nan nan nan nan nan nan nan
 nan nan nan nan nan nan nan nan nan nan nan nan nan nan nan nan nan nan
 nan nan nan nan nan nan nan nan nan nan nan nan nan nan nan nan nan nan
 nan nan nan nan nan nan nan nan nan nan nan nan nan nan nan nan nan nan
 nan nan nan nan nan nan nan nan nan nan nan nan nan nan nan nan nan nan
 nan nan nan nan nan nan nan nan nan nan nan nan nan nan nan nan nan nan
 nan nan nan nan nan nan nan nan]","[nan nan nan nan nan nan nan nan nan nan nan nan nan nan nan nan nan nan
 nan nan nan nan nan nan nan nan nan nan nan nan nan nan nan nan nan nan
 nan nan nan nan nan nan nan nan nan nan nan nan nan nan nan nan nan nan
 nan nan nan nan nan nan nan nan nan nan nan nan nan nan nan nan nan nan
 nan nan nan nan nan nan nan nan nan nan nan nan nan nan nan nan nan nan
 nan nan nan nan nan nan nan nan nan nan nan nan nan nan nan nan nan nan
 nan nan nan nan nan nan nan nan nan nan nan nan nan nan nan nan nan nan
 nan nan nan nan nan nan nan nan nan nan nan nan nan nan]",,,4.910260000000001,0.6955300000000006
032,1,2,csm,5a.png,1,0,0,NaN,358,1,1,363,neu_feedback_onset,10,"[ 2.38152875  2.23127457  2.07684667  1.91824503  1.74503535  1.55513076
  1.34018381  1.09810763  0.82264164  0.51378582  0.17571392 -0.18948722
 -0.57555698 -0.97414793 -1.37899947 -1.78176415 -2.17826824 -2.56225114
 -2.931626   -3.28639281 -3.62446472 -3.94792858 -4.25678439 -4.55103216
 -4.82858502 -5.09152984 -5.33360602 -5.55690042 -5.75723933 -5.9367096
 -6.09322437 -6.23304423 -6.35616919 -6.47094668 -6.57946359 -6.68589364
 -6.79023682 -6.89249313 -6.99057572 -7.08031086 -7.15543795 -7.2096964
 -7.24099936 -7.24308622 -7.21804386 -7.16795913 -7.0949189  -7.0093575
 -6.91336177 -6.81945291 -6.7338915  -6.66293814 -6.60867968 -6.57737673
 -6.56902927 -6.58363732 -6.61702714 -6.66919873 -6.73597836 -6.81527918
 -6.90710118 -7.00518377 -7.10744009 -7.21178327 -7.31612645 -7.42046963
 -7.52063908 -7.61663481 -7.70845681 -7.79401821 -7.87749276 -7.95470671
 -8.02774694 -8.0987003  -8.16130621 -8.21973839 -8.27190998 -8.31364725
 -8.34286334 -8.35538453 -8.3512108  -8.32616843 -8.28025744 -8.21139094
 -8.12374266 -8.02148635 -7.90670885 -7.78567076 -7.66671953 -7.5540289
 -7.45385945 -7.36829804 -7.3015184  -7.25143368 -7.22221758 -7.2096964
 -7.21595699 -7.23682563 -7.27021545 -7.31403958 -7.36203745 -7.41003531
 -7.45177258 -7.48098867 -7.48933613 -7.47055435 -7.42255649 -7.33908195
 -7.22013072 -7.06987654 -6.88623254 -6.67963305 -6.45007805 -6.20591501
 -5.95131765 -5.68837283 -5.41916742 -5.14996202 -4.87658289 -4.60320375
 -4.32982462 -4.05435862 -3.77680576 -3.49716604 -3.21543945 -2.92953914
 -2.6394651  -2.34730419 -2.05305642 -1.76089551 -1.47082147 -1.18492116
 -0.91154203 -0.64859721 -0.4023473  -0.16861858  0.04632837  0.25084101
  0.44283246  0.62647646  0.80803359  0.985417    1.16071354  1.33183636
  1.49252485  1.63443158  1.75129594  1.83477049  1.87233403  1.86189971
  1.80138067  1.68660317  1.52800154  1.33392322  1.11271568  0.88107382
  0.64943196  0.42822441  0.22997237  0.05258896 -0.09766522 -0.2249639
 -0.33348081 -0.43156339 -0.52338539 -0.62146798 -0.72581116 -0.84684925
 -0.98458225 -1.14109702 -1.31848043 -1.51255875 -1.72541883 -1.95288697
 -2.19078942 -2.4328656  -2.67076805 -2.90240991 -3.11527    -3.30308772
 -3.46168936 -3.58481431 -3.66620199 -3.70793926 -3.71211299 -3.67663631
 -3.61194354 -3.52012154 -3.40534404 -3.2759585  -3.13405177 -2.98379759
 -2.82519596 -2.66242059 -2.49338464 -2.32017496 -2.13861783 -1.94871324
 -1.75254806 -1.55012229 -1.34769652 -1.14735761 -0.95536616 -0.78424334
 -0.63607603 -0.51921167 -0.44199771 -0.40443417 -0.41069476 -0.45451889
 -0.53173285 -0.63816289 -0.76754844 -0.90945516 -1.05970934 -1.21622411
 -1.37273888 -1.52716679 -1.67950783 -1.82976201 -1.97792933 -2.12400978
 -2.26800337 -2.41199696 -2.55390369 -2.69789728 -2.839804   -2.98171073
 -3.12361745 -3.26761104 -3.40951777 -3.55142449 -3.69333122 -3.83523794
 -3.97714467 -4.1190514  -4.26304498 -4.40495171 -4.54685844 -4.68876516
 -4.83067189 -4.97257861 -5.11448534 -5.2543052  -5.39412506 -5.5297712
 -5.66541733 -5.79271601 -5.91584096 -6.02644474 -6.12452733 -6.20591501
 -6.26643405 -6.3039976  -6.31651878 -6.30608446 -6.26852091 -6.21008873
 -6.13287478 -6.04313964]","[-8.50795120e-01 -8.04519578e-01 -7.67884774e-01 -7.35106265e-01
 -7.02327756e-01 -6.65692952e-01 -6.21345558e-01 -5.63501130e-01
 -4.90231522e-01 -3.97680438e-01 -2.80063436e-01 -1.35452368e-01
  3.61527671e-02  2.36680115e-01  4.62273382e-01  7.09076273e-01
  9.75160639e-01  1.25088574e+00  1.53239529e+00  1.81197669e+00
  2.08384550e+00  2.34028913e+00  2.57552313e+00  2.78569122e+00
  2.96115265e+00  3.09997927e+00  3.19831480e+00  3.25230293e+00
  3.26387182e+00  3.23109331e+00  3.15975185e+00  3.05177558e+00
  2.91102081e+00  2.74712827e+00  2.56009795e+00  2.35957060e+00
  2.14554622e+00  1.92573740e+00  1.70014413e+00  1.47262271e+00
  1.24317315e+00  1.01372359e+00  7.82345881e-01  5.50968171e-01
  3.19590461e-01  9.01408994e-02 -1.41236810e-01 -3.72614520e-01
 -6.02064082e-01 -8.33441792e-01 -1.06481950e+00 -1.29619721e+00
 -1.52564677e+00 -1.75702448e+00 -1.98840219e+00 -2.21785175e+00
 -2.44922946e+00 -2.67867903e+00 -2.90620044e+00 -3.13372186e+00
 -3.35738697e+00 -3.57526765e+00 -3.78543574e+00 -3.98210679e+00
 -4.15949637e+00 -4.30796373e+00 -4.42172444e+00 -4.48920960e+00
 -4.50077849e+00 -4.44679036e+00 -4.32146076e+00 -4.12093342e+00
 -3.84713646e+00 -3.51163878e+00 -3.12215297e+00 -2.69796050e+00
 -2.25834285e+00 -1.82258150e+00 -1.40610162e+00 -1.02625655e+00
 -6.92687018e-01 -4.11177472e-01 -1.83656057e-01 -1.01227748e-02
  1.19063113e-01  2.05829754e-01  2.61746034e-01  2.94524543e-01
  3.08021576e-01  3.13806019e-01  3.11877871e-01  3.08021576e-01
  3.04165281e-01  3.04165281e-01  3.08021576e-01  3.17662314e-01
  3.33087495e-01  3.54297118e-01  3.85147479e-01  4.25638578e-01
  4.73842268e-01  5.31686695e-01  5.97243713e-01  6.68585174e-01
  7.41854782e-01  8.13196242e-01  8.82609555e-01  9.42382130e-01
  9.94442115e-01  1.03107692e+00  1.05614284e+00  1.06578358e+00
  1.06385543e+00  1.04843025e+00  1.02336433e+00  9.88657672e-01
  9.48166573e-01  9.03819178e-01  8.55615489e-01  8.05483652e-01
  7.53423667e-01  7.01363682e-01  6.47375550e-01  5.93387418e-01
  5.39399286e-01  4.85411153e-01  4.31423021e-01  3.77434889e-01
  3.23446757e-01  2.69458624e-01  2.15470492e-01  1.63410507e-01
  1.09422375e-01  5.54342429e-02  1.44611069e-03 -5.25420216e-02
 -1.06530154e-01 -1.60518286e-01 -2.14506418e-01 -2.68494551e-01]",-9.769962616701378e-16,1.5505680804808954,4.79188,0.1318249999999992
032,1,2,csm,58a.png,1,1,300,48,NaN,0,1,466,neu_feedback_onset,11,"[  1.3399741    1.20218756   1.05426966   0.89622039   0.72803976
   0.55580659   0.38154714   0.20728769   0.04113333  -0.11488966
  -0.25875502  -0.38641019  -0.49582892  -0.58701119  -0.66198328
  -0.71871891  -0.76127064  -0.79166472  -0.80990118  -0.82003254
  -0.82611136  -0.82611136  -0.82611136  -0.83016391  -0.83624272
  -0.85042663  -0.87676818  -0.91729363  -0.97605554  -1.0530539
  -1.15234126  -1.26986507  -1.40967788  -1.5636746   -1.73388151
  -1.91016723  -2.09050549  -2.27084376  -2.44307694  -2.60315247
  -2.75107038  -2.88075183  -2.9942231   -3.08743164  -3.16240373
  -3.22116563  -3.26169109  -3.28600636  -3.29613772  -3.29208518
  -3.27790127  -3.253586    -3.22116563  -3.186719    -3.15024609
  -3.11579946  -3.08743164  -3.06716891  -3.052985    -3.05095873
  -3.05501128  -3.07122146  -3.09351046  -3.12390455  -3.16037745
  -3.20292918  -3.24750718  -3.29411145  -3.34274199  -3.39137254
  -3.44405563  -3.49471244  -3.54536926  -3.59805235  -3.64870916
  -3.70139225  -3.75204907  -3.80473216  -3.85538897  -3.90807206
  -3.95872888  -4.00938569  -4.05801624  -4.10664678  -4.15325105
  -4.19782905  -4.24038078  -4.28090623  -4.32143168  -4.36398341
  -4.40653513  -4.45719195  -4.51798013  -4.58889967  -4.67805567
  -4.78544812  -4.91107702  -5.05494238  -5.21096538  -5.38117228
  -5.55543173  -5.72969118  -5.89989808  -6.06402616  -6.21599661
  -6.35580943  -6.4834646   -6.5949096   -6.69419696  -6.77930041
  -6.85021995  -6.90492931  -6.94545477  -6.96977004  -6.98192767
  -6.97787513  -6.96166495  -6.93329713  -6.89277168  -6.84414113
  -6.7874055   -6.72459105  -6.65569778  -6.58072569  -6.50170106
  -6.41862388  -6.33352043  -6.24841697  -6.16331352  -6.08226262
  -6.0093168   -5.94447608  -5.89179299  -5.85734635  -5.8391099
  -5.84316244  -5.86545144  -5.91002944  -5.96879135  -6.04173716
  -6.12278807  -6.20586525  -6.28286361  -6.35175688  -6.4024137
  -6.43686033  -6.44901797  -6.44091288  -6.41457133  -6.37201961
  -6.31528397  -6.2463907   -6.16736607  -6.08428889  -5.99715917
  -5.9059769   -5.81479463  -5.72361236  -5.63445636  -5.54732664
  -5.46627573  -5.39332992  -5.33051546  -5.28593747  -5.25959592
  -5.26162219  -5.29606883  -5.37104092  -5.49261728  -5.668903
  -5.90395062  -6.2018127   -6.56856805  -7.0021904   -7.50065347
  -8.05990472  -8.67183907  -9.32429886 -10.00512647 -10.70013799
 -11.38907069 -12.05976694 -12.69399028 -13.2775568  -13.80033515
 -14.25016767 -14.62502811 -14.91883765 -15.13564882 -15.27343536
 -15.33827609 -15.33422354 -15.26735654 -15.14172764 -14.96341565
 -14.73849938 -14.47103139 -14.16506422 -13.82870296 -13.46397389
 -13.07695581 -12.66764873 -12.24213148 -11.80040404 -11.34449269
 -10.87237116 -10.39011827  -9.89976029  -9.40332349  -8.90486042
  -8.41652871  -7.94035464  -7.48849584  -7.06703113  -6.68001305
  -6.3355467   -6.0316058   -5.76819036  -5.54124782  -5.34875192
  -5.18259756  -5.03670593  -4.90297193  -4.77531676  -4.65171413
  -4.52811149  -4.39843004  -4.26469605  -4.12690951  -3.98304415
  -3.83715252  -3.69126089  -3.5494218   -3.41366154  -3.28803263
  -3.17253509  -3.07122146  -2.98003919  -2.90101455  -2.83212128
  -2.77335938  -2.72067629  -2.67407202  -2.63152029  -2.59302111
  -2.55452193  -2.51804902  -2.48157612  -2.44510321  -2.41065657
  -2.37620994  -2.3417633   -2.30731667  -2.27489631  -2.24247594
  -2.21410813  -2.18979285  -2.1715564   -2.16142504  -2.15939876]","[nan nan nan nan nan nan nan nan nan nan nan nan nan nan nan nan nan nan
 nan nan nan nan nan nan nan nan nan nan nan nan nan nan nan nan nan nan
 nan nan nan nan nan nan nan nan nan nan nan nan nan nan nan nan nan nan
 nan nan nan nan nan nan nan nan nan nan nan nan nan nan nan nan nan nan
 nan nan nan nan nan nan nan nan nan nan nan nan nan nan nan nan nan nan
 nan nan nan nan nan nan nan nan nan nan nan nan nan nan nan nan nan nan
 nan nan nan nan nan nan nan nan nan nan nan nan nan nan nan nan nan nan
 nan nan nan nan nan nan nan nan nan nan nan nan nan nan]",-6.27831120425526e-15,,4.93517,
032,1,2,csm,25a.png,1,1,8,47,5,1,1,405,neu_feedback_onset,12,"[nan nan nan nan nan nan nan nan nan nan nan nan nan nan nan nan nan nan
 nan nan nan nan nan nan nan nan nan nan nan nan nan nan nan nan nan nan
 nan nan nan nan nan nan nan nan nan nan nan nan nan nan nan nan nan nan
 nan nan nan nan nan nan nan nan nan nan nan nan nan nan nan nan nan nan
 nan nan nan nan nan nan nan nan nan nan nan nan nan nan nan nan nan nan
 nan nan nan nan nan nan nan nan nan nan nan nan nan nan nan nan nan nan
 nan nan nan nan nan nan nan nan nan nan nan nan nan nan nan nan nan nan
 nan nan nan nan nan nan nan nan nan nan nan nan nan nan nan nan nan nan
 nan nan nan nan nan nan nan nan nan nan nan nan nan nan nan nan nan nan
 nan nan nan nan nan nan nan nan nan nan nan nan nan nan nan nan nan nan
 nan nan nan nan nan nan nan nan nan nan nan nan nan nan nan nan nan nan
 nan nan nan nan nan nan nan nan nan nan nan nan nan nan nan nan nan nan
 nan nan nan nan nan nan nan nan nan nan nan nan nan nan nan nan nan nan
 nan nan nan nan nan nan nan nan nan nan nan nan nan nan nan nan nan nan
 nan nan nan nan nan nan nan nan]","[ -1.88791555  -1.79724987  -1.68293229  -1.5390498   -1.36560243
  -1.16259016  -0.93395498  -0.68166789  -0.41558385  -0.14161584
   0.13432317   0.40434919   0.66254926   0.90498139   1.12770359
   1.33268685   1.51993117   1.68943656   1.845145     1.98705649
   2.11517103   2.22751762   2.32606727   2.40293599   2.45812379
   2.48571769   2.48965968   2.46600776   2.41870393   2.35169018
   2.27087947   2.18218479   2.08954812   2.00085344   1.91610075
   1.83726103   1.76630529   1.70323351   1.64607472   1.5948289
   1.54752507   1.50219224   1.46080139   1.41941054   1.37801968
   1.33859983   1.29917997   1.25976011   1.22034025   1.18092039
   1.14347153   1.10405167   1.06463181   1.02521196   0.9838211
   0.94440125   0.9010394    0.85767756   0.81037373   0.75912791
   0.69999813   0.63101338   0.54823167   0.44771104   0.32748047
   0.18556898   0.01606359  -0.1810357   -0.4017869   -0.64421903
  -0.90833208  -1.18230009  -1.46415207  -1.74797505  -2.02785604
  -2.29788207  -2.56002412  -2.81034022  -3.04883036  -3.27746554
  -3.49821674  -3.71108398  -3.92000922  -4.12499249  -4.32800475
  -4.52904603  -4.73008731  -4.92915759  -5.12822787  -5.32729815
  -5.52636844  -5.72543872  -5.92647999  -6.12555028  -6.32462056
  -6.52566183  -6.7286741   -6.93168637  -7.13666963  -7.34362389
  -7.55254913  -7.76344537  -7.97631261  -8.19115083  -8.40401807
  -8.61491431  -8.82186856  -9.02093884  -9.21015416  -9.38360154
  -9.54128097  -9.67925047  -9.79751004  -9.89605969  -9.97292841
 -10.0320582  -10.07739104 -10.11089792 -10.14046281 -10.16608572
 -10.19367962 -10.2252155  -10.26069338 -10.29617125 -10.32967813
 -10.35333004 -10.35530103 -10.32770713 -10.26069338 -10.14637579
  -9.97489941  -9.74823522  -9.46244125  -9.12540147  -8.74499984
  -8.33306232  -7.90535686  -7.4776514   -7.06768488  -6.68728325]",,1.520768844909476,5.16092,-0.09082000000000079
032,1,2,csp,3b.png,1,1,304,270,304,1,1,346,pos_feedback_onset,13,"[ 1.09030204  0.78716971  0.4926983   0.21554874 -0.04211374 -0.26729776
 -0.45350762 -0.5920824  -0.67436118 -0.70250918 -0.67003071 -0.58342148
 -0.45350762 -0.28678484 -0.09840975  0.09646104  0.28916659  0.46671553
  0.62477739  0.76118694  0.87810941  0.97337957  1.05349311  1.11628481
  1.16608512  1.20289405  1.21805066  1.2137202   1.18340697  1.12711096
  1.0383365   0.92141403  0.78067401  0.62044693  0.44722845  0.27617521
  0.11811335 -0.01613097 -0.11356636 -0.16336667 -0.15687098 -0.08974882
  0.0444955   0.24369674  0.50352445  0.81748294  1.17907651  1.577479
  2.00186426  2.44573661  2.9004351   3.35729883  3.81416256  4.26453059
  4.70623771  5.13928389  5.5593387   5.96856734  6.36047414  6.73505909
  7.0923222   7.42576776  7.73539579  8.0233715   8.28969491  8.53653124
  8.76821095  8.9890645   9.20342236  9.41344977  9.6191467   9.82267841
 10.01971443 10.20159383 10.36398615 10.49606523 10.58917016 10.63680525
 10.63030955 10.56535262 10.44409969 10.27088122 10.05435812  9.8010261
  9.528207    9.25105744  8.98040358  8.72923679  8.50838323  8.32217337
  8.17493767  8.06451089  7.98439735  7.92810134  7.88696195  7.8479878
  7.80684841  7.75488287  7.68992594  7.60548193  7.50588131  7.38895884
  7.25687975  7.11613974  6.96457357  6.80651172  6.64628463  6.48172707
  6.31500429  6.14828151  5.98372396  5.81700118  5.65460886  5.49438177
  5.33848514  5.18691897  5.0418485   4.90543895  4.77769033  4.65860262
  4.55034108  4.45290569  4.36846168  4.29051337  4.22555644  4.1670952
  4.11729489  4.07399027  4.03934658  4.01336381  3.99387673  3.9852158
  3.98954627  4.00253765  4.02635519  4.05666842  4.09347735  4.12812105
  4.15626905  4.16492997  4.14977335  4.10213827  4.01552904  3.88778041
  3.7188924   3.51319546  3.27502006  3.01086188  2.73154709  2.44573661
  2.16209135  1.89143749  1.63594024  1.40642576  1.20505928  1.03400603
  0.89759649  0.79150017  0.72004755  0.67674293  0.65942108  0.66375154
  0.68323862  0.71138662  0.74169986  0.77201309  0.7936654   0.80665679
  0.80882202  0.80232632  0.79150017  0.77850878  0.76984786  0.77201309
  0.78933494  0.83047433  0.89759649  0.99286665  1.11845004  1.27434667
  1.46055653  1.67491439  1.91958549  2.19240459  2.49120646  2.81815633
  3.1732542   3.55216962  3.95057211  4.36413122  4.78202079  5.1955799
  5.59398239  5.96207165  6.29118675  6.57050154  6.7913551   6.95158219
  7.05118281  7.09448743  7.08799174  7.04468712  6.97756496  6.89528618
  6.81733787  6.75021571  6.70691109  6.69391971  6.71340679  6.77186802
  6.86497295  6.99055635  7.14428774  7.31534099  7.49722038  7.68343025
  7.86530964  8.03852812  8.19875521  8.34599091  8.47807     8.59499247
  8.70108879  8.79852418  8.88513342  8.96957742  9.04969097  9.12763928
  9.20558759  9.28353591  9.36581468  9.45025869  9.54336362  9.64512948
  9.75772148  9.88330488 10.02621012 10.18427198 10.35965568 10.54586555
 10.7385711  10.93127665 11.11315605 11.27338314 11.39896654 11.48124531
 11.50722808 11.47258439 11.3686533  11.1932696  10.9485985  10.63680525
 10.26655075  9.84649595  9.38530176  8.89595957  8.39146076  7.88479672
  7.38462838  6.89745141]","[nan nan nan nan nan nan nan nan nan nan nan nan nan nan nan nan nan nan
 nan nan nan nan nan nan nan nan nan nan nan nan nan nan nan nan nan nan
 nan nan nan nan nan nan nan nan nan nan nan nan nan nan nan nan nan nan
 nan nan nan nan nan nan nan nan nan nan nan nan nan nan nan nan nan nan
 nan nan nan nan nan nan nan nan nan nan nan nan nan nan nan nan nan nan
 nan nan nan nan nan nan nan nan nan nan nan nan nan nan nan nan nan nan
 nan nan nan nan nan nan nan nan nan nan nan nan nan nan nan nan nan nan
 nan nan nan nan nan nan nan nan nan nan nan nan nan nan]",9.954248033444935,,4.6184449999999995,0.4811299999999994
032,1,2,csm,23a.png,1,1,164,94,162,1,1,550,neu_feedback_onset,14,"[nan nan nan nan nan nan nan nan nan nan nan nan nan nan nan nan nan nan
 nan nan nan nan nan nan nan nan nan nan nan nan nan nan nan nan nan nan
 nan nan nan nan nan nan nan nan nan nan nan nan nan nan nan nan nan nan
 nan nan nan nan nan nan nan nan nan nan nan nan nan nan nan nan nan nan
 nan nan nan nan nan nan nan nan nan nan nan nan nan nan nan nan nan nan
 nan nan nan nan nan nan nan nan nan nan nan nan nan nan nan nan nan nan
 nan nan nan nan nan nan nan nan nan nan nan nan nan nan nan nan nan nan
 nan nan nan nan nan nan nan nan nan nan nan nan nan nan nan nan nan nan
 nan nan nan nan nan nan nan nan nan nan nan nan nan nan nan nan nan nan
 nan nan nan nan nan nan nan nan nan nan nan nan nan nan nan nan nan nan
 nan nan nan nan nan nan nan nan nan nan nan nan nan nan nan nan nan nan
 nan nan nan nan nan nan nan nan nan nan nan nan nan nan nan nan nan nan
 nan nan nan nan nan nan nan nan nan nan nan nan nan nan nan nan nan nan
 nan nan nan nan nan nan nan nan nan nan nan nan nan nan nan nan nan nan
 nan nan nan nan nan nan nan nan]","[-0.83053892 -0.79185072 -0.75316252 -0.7106055  -0.66417966 -0.613885
 -0.5558527  -0.49008276 -0.41464078 -0.3217891  -0.21346214 -0.08385667
  0.06702731  0.2411242   0.43843402  0.65702234  0.89108595  1.13675601
  1.38436049  1.62809614  1.85829093  2.06914162  2.25097615  2.39799131
  2.50825268  2.57982585  2.60884199  2.60110435  2.55661293  2.48117094
  2.3767128   2.25097615  2.10782981  1.9492082   1.78284894  1.60681763
  1.42691751  1.24508297  1.05937962  0.87367626  0.68603849  0.49840073
  0.31076296  0.12312519 -0.06451257 -0.25408475 -0.44172251 -0.62936028
 -0.81699805 -1.00463581 -1.19227358 -1.38184576 -1.56948352 -1.75712129
 -1.94475905 -2.13239682 -2.32003459 -2.50960676 -2.69724453 -2.8848823
 -3.07252006 -3.26015783 -3.44779559 -3.63736777 -3.82500554 -4.0126433
 -4.20028107 -4.38791884 -4.5755566  -4.76319437 -4.95276654 -5.14040431
 -5.32804208 -5.51567984 -5.70331761 -5.89095538 -6.08052755 -6.26816532
 -6.45580308 -6.64344085 -6.83107862 -7.01871638 -7.20828856 -7.39592633
 -7.58356409 -7.77120186 -7.95883962 -8.14647739 -8.33218075 -8.5178841
 -8.69971864 -8.87961877 -9.05178125 -9.2162061  -9.36515567 -9.49476113
 -9.59921927 -9.66692362 -9.69593977 -9.67272685 -9.59728486 -9.46381057
 -9.27230399 -9.03050274 -8.74227566 -8.42309802 -8.08651068 -7.74412012
 -7.4094672  -7.09609278 -6.81366893 -6.56413004 -6.35327936 -6.17918246
 -6.04183935 -5.93544681 -5.86000482 -5.81164457 -5.78649724 -5.78069401
 -5.79423488 -5.82518544 -5.86967687 -5.92770917 -5.99154469 -6.06311786
 -6.13275662 -6.20046097 -6.26236209 -6.31459116 -6.35714818 -6.38616433
 -6.40550843 -6.41324607 -6.40937725 -6.3997052  -6.3803611  -6.35134495
 -6.31265675 -6.26236209]",,1.1563902749473471,4.578949999999999,0.0726400000000007
032,2,2,csp,50b.png,1,1,220,255,217,1,1,310,pos_feedback_onset,1,"[nan nan nan nan nan nan nan nan nan nan nan nan nan nan nan nan nan nan
 nan nan nan nan nan nan nan nan nan nan nan nan nan nan nan nan nan nan
 nan nan nan nan nan nan nan nan nan nan nan nan nan nan nan nan nan nan
 nan nan nan nan nan nan nan nan nan nan nan nan nan nan nan nan nan nan
 nan nan nan nan nan nan nan nan nan nan nan nan nan nan nan nan nan nan
 nan nan nan nan nan nan nan nan nan nan nan nan nan nan nan nan nan nan
 nan nan nan nan nan nan nan nan nan nan nan nan nan nan nan nan nan nan
 nan nan nan nan nan nan nan nan nan nan nan nan nan nan nan nan nan nan
 nan nan nan nan nan nan nan nan nan nan nan nan nan nan nan nan nan nan
 nan nan nan nan nan nan nan nan nan nan nan nan nan nan nan nan nan nan
 nan nan nan nan nan nan nan nan nan nan nan nan nan nan nan nan nan nan
 nan nan nan nan nan nan nan nan nan nan nan nan nan nan nan nan nan nan
 nan nan nan nan nan nan nan nan nan nan nan nan nan nan nan nan nan nan
 nan nan nan nan nan nan nan nan nan nan nan nan nan nan nan nan nan nan
 nan nan nan nan nan nan nan nan]","[nan nan nan nan nan nan nan nan nan nan nan nan nan nan nan nan nan nan
 nan nan nan nan nan nan nan nan nan nan nan nan nan nan nan nan nan nan
 nan nan nan nan nan nan nan nan nan nan nan nan nan nan nan nan nan nan
 nan nan nan nan nan nan nan nan nan nan nan nan nan nan nan nan nan nan
 nan nan nan nan nan nan nan nan nan nan nan nan nan nan nan nan nan nan
 nan nan nan nan nan nan nan nan nan nan nan nan nan nan nan nan nan nan
 nan nan nan nan nan nan nan nan nan nan nan nan nan nan nan nan nan nan
 nan nan nan nan nan nan nan nan nan nan nan nan nan nan]",,,2.107895,
032,2,2,csm,35a.png,1,1,184,27,175,1,1,275,neu_feedback_onset,2,"[nan nan nan nan nan nan nan nan nan nan nan nan nan nan nan nan nan nan
 nan nan nan nan nan nan nan nan nan nan nan nan nan nan nan nan nan nan
 nan nan nan nan nan nan nan nan nan nan nan nan nan nan nan nan nan nan
 nan nan nan nan nan nan nan nan nan nan nan nan nan nan nan nan nan nan
 nan nan nan nan nan nan nan nan nan nan nan nan nan nan nan nan nan nan
 nan nan nan nan nan nan nan nan nan nan nan nan nan nan nan nan nan nan
 nan nan nan nan nan nan nan nan nan nan nan nan nan nan nan nan nan nan
 nan nan nan nan nan nan nan nan nan nan nan nan nan nan nan nan nan nan
 nan nan nan nan nan nan nan nan nan nan nan nan nan nan nan nan nan nan
 nan nan nan nan nan nan nan nan nan nan nan nan nan nan nan nan nan nan
 nan nan nan nan nan nan nan nan nan nan nan nan nan nan nan nan nan nan
 nan nan nan nan nan nan nan nan nan nan nan nan nan nan nan nan nan nan
 nan nan nan nan nan nan nan nan nan nan nan nan nan nan nan nan nan nan
 nan nan nan nan nan nan nan nan nan nan nan nan nan nan nan nan nan nan
 nan nan nan nan nan nan nan nan]","[nan nan nan nan nan nan nan nan nan nan nan nan nan nan nan nan nan nan
 nan nan nan nan nan nan nan nan nan nan nan nan nan nan nan nan nan nan
 nan nan nan nan nan nan nan nan nan nan nan nan nan nan nan nan nan nan
 nan nan nan nan nan nan nan nan nan nan nan nan nan nan nan nan nan nan
 nan nan nan nan nan nan nan nan nan nan nan nan nan nan nan nan nan nan
 nan nan nan nan nan nan nan nan nan nan nan nan nan nan nan nan nan nan
 nan nan nan nan nan nan nan nan nan nan nan nan nan nan nan nan nan nan
 nan nan nan nan nan nan nan nan nan nan nan nan nan nan]",,,5.1889449999999995,-0.048395000000001076
032,2,2,csm,34a.png,1,1,288,82,288,1,1,306,neu_feedback_onset,3,"[nan nan nan nan nan nan nan nan nan nan nan nan nan nan nan nan nan nan
 nan nan nan nan nan nan nan nan nan nan nan nan nan nan nan nan nan nan
 nan nan nan nan nan nan nan nan nan nan nan nan nan nan nan nan nan nan
 nan nan nan nan nan nan nan nan nan nan nan nan nan nan nan nan nan nan
 nan nan nan nan nan nan nan nan nan nan nan nan nan nan nan nan nan nan
 nan nan nan nan nan nan nan nan nan nan nan nan nan nan nan nan nan nan
 nan nan nan nan nan nan nan nan nan nan nan nan nan nan nan nan nan nan
 nan nan nan nan nan nan nan nan nan nan nan nan nan nan nan nan nan nan
 nan nan nan nan nan nan nan nan nan nan nan nan nan nan nan nan nan nan
 nan nan nan nan nan nan nan nan nan nan nan nan nan nan nan nan nan nan
 nan nan nan nan nan nan nan nan nan nan nan nan nan nan nan nan nan nan
 nan nan nan nan nan nan nan nan nan nan nan nan nan nan nan nan nan nan
 nan nan nan nan nan nan nan nan nan nan nan nan nan nan nan nan nan nan
 nan nan nan nan nan nan nan nan nan nan nan nan nan nan nan nan nan nan
 nan nan nan nan nan nan nan nan]","[nan nan nan nan nan nan nan nan nan nan nan nan nan nan nan nan nan nan
 nan nan nan nan nan nan nan nan nan nan nan nan nan nan nan nan nan nan
 nan nan nan nan nan nan nan nan nan nan nan nan nan nan nan nan nan nan
 nan nan nan nan nan nan nan nan nan nan nan nan nan nan nan nan nan nan
 nan nan nan nan nan nan nan nan nan nan nan nan nan nan nan nan nan nan
 nan nan nan nan nan nan nan nan nan nan nan nan nan nan nan nan nan nan
 nan nan nan nan nan nan nan nan nan nan nan nan nan nan nan nan nan nan
 nan nan nan nan nan nan nan nan nan nan nan nan nan nan]",,,4.7772,0.3237299999999985
032,2,2,csm,10a.png,1,1,76,139,74,1,1,555,neu_feedback_onset,4,"[ 1.36198088  1.28049291  1.19447783  1.10393564  1.00207568  0.88210728
  0.74176689  0.57652739  0.39317946  0.18945953 -0.02784172 -0.24967009
 -0.47149845 -0.68200904 -0.87441119 -1.0441778  -1.1890453  -1.3090137
 -1.40181945 -1.47651675 -1.53310562 -1.58064027 -1.62364781 -1.66212824
 -1.70287222 -1.74361621 -1.78209664 -1.81831352 -1.84547617 -1.86358461
 -1.86811172 -1.86132106 -1.84321262 -1.81831352 -1.79115086 -1.76625176
 -1.75040687 -1.74814332 -1.76172465 -1.79115086 -1.8341584  -1.88848371
 -1.94507258 -1.99939789 -2.04014188 -2.06051387 -2.05825032 -2.02656055
 -1.96770813 -1.87942949 -1.76851531 -1.63949269 -1.49688874 -1.34975769
 -1.20489018 -1.0690769  -0.9491085  -0.8540392  -0.78839611 -0.75670635
 -0.76349701 -0.81555877 -0.91062807 -1.05096846 -1.2343164  -1.45614476
 -1.70966289 -1.99260723 -2.29818712 -2.61508478 -2.94330022 -3.27377921
 -3.60199464 -3.92341942 -4.23352641 -4.52778853 -4.80167865 -5.04840612
 -5.25891671 -5.43094687 -5.55317882 -5.62787613 -5.64598457 -5.6142948
 -5.53280683 -5.40831132 -5.24986249 -5.064251   -4.86053108 -4.65002049
 -4.4395099  -4.24031708 -4.05470559 -3.8939932  -3.76270703 -3.66311062
 -3.59746753 -3.57030488 -3.5793591  -3.62689375 -3.70838172 -3.82382301
 -3.96869051 -4.14298423 -4.33764993 -4.55268763 -4.7790431  -5.01218924
 -5.24533538 -5.4694273  -5.684465   -5.8791307  -6.05568797 -6.21187325
 -6.34542298 -6.46312783 -6.56498779 -6.65779353 -6.74380861 -6.82529658
 -6.904521   -6.98374541 -7.06296983 -7.13766714 -7.20557378 -7.26668975
 -7.31875151 -7.35723194 -7.38665816 -7.40476659 -7.41382081 -7.42061148
 -7.42513859 -7.43419281 -7.44551058 -7.46361902 -7.48625456 -7.50662656
 -7.52247144 -7.52699855 -7.50662656 -7.45230124 -7.3594955  -7.21915511
 -7.02675295 -6.77776193 -6.4744456  -6.12133106 -5.72520898 -5.29739714
 -4.84694975 -4.38744814 -3.92794653 -3.47976269 -3.04968729 -2.64451099
 -2.26876091 -1.92243703 -1.60553937 -1.31806792 -1.06002268 -0.8291401
 -0.62768373 -0.45339001 -0.30852251 -0.19760833 -0.12291102 -0.08669415
 -0.09122126 -0.13875591 -0.22703454 -0.3537936  -0.51224244 -0.69785392
 -0.90157385 -1.11434799 -1.32938569 -1.53310562 -1.72550777 -1.89527438
 -2.04466899 -2.1691645  -2.27781513 -2.36835732 -2.45210884 -2.53359681
 -2.61734834 -2.70789053 -2.81201404 -2.92292822 -3.04289663 -3.16512858
 -3.28283343 -3.3892205  -3.47749913 -3.54087867 -3.57483199 -3.57709554
 -3.54993289 -3.49108046 -3.40959249 -3.30999608 -3.1990819  -3.08364061
 -2.96819932 -2.85954869 -2.75768873 -2.66714654 -2.58792212 -2.51322482
 -2.44531818 -2.37741153 -2.30271423 -2.22122626 -2.12615696 -2.01297922
 -1.87716594 -1.71871711 -1.53536917 -1.33164925 -1.10982088 -0.87214764
 -0.63221084 -0.39227403 -0.16365501  0.04685558  0.23246707  0.38865235
  0.51541141  0.61500782  0.68970513  0.746294    0.79156509  0.83683618
  0.88663439  0.94548681  1.02244767  1.11751697  1.2261676   1.34839955
  1.47742217  1.60418124  1.72188608  1.82374605  1.90070691  1.95050511
  1.96861355  1.95276867  1.90749757  1.83280027  1.73773097  1.62681679
  1.50684838  1.38461643  1.26691158  1.16052451  1.06771877  0.99075791
  0.92964193  0.88437083]","[-3.56405842 -3.28238828 -3.00071814 -2.70973659 -2.40246007 -2.07656074
 -1.72738288 -1.35492649 -0.95453588 -0.53086674 -0.08159123  0.38630711
  0.87282826  1.37564438  1.88544406  2.40455514  2.92366623  3.44044946
  3.95024914  4.4460817   4.92329144  5.38187837  5.81253106  6.21524953
  6.58537806  6.92058881  7.21855391  7.47927338  7.70274722  7.88897541
  8.04261367  8.16366199  8.26143179  8.34057877  8.40808649  8.47093851
  8.53379052  8.60129824  8.68044523  8.77123147  8.87365697  8.99004959
  9.11342577  9.24844121  9.39044021  9.53476706  9.68607746  9.83506002
  9.98637042 10.13535298 10.27735197 10.41469527 10.5403993  10.64980836
 10.73826675 10.79879091 10.82439729 10.81043018 10.74757816 10.63351339
 10.46823587 10.2517456   9.99335398  9.69538887  9.37181739  9.03660664
  8.7013959   8.38248012  8.09615427  7.84940192  7.65386231  7.52117473
  7.45133916  7.4490113   7.51186332  7.6352395   7.81448413  8.04028581
  8.30100528  8.58733113  8.88762409  9.19257275  9.49286571  9.78151941
 10.05387814 10.30761406 10.54272715 10.75921742 10.95941273 11.14564092
 11.32022985 11.48783523 11.65078489 11.80907886 11.96271712 12.11635537
 12.26766578 12.42130404 12.57261445 12.721597   12.87290741 13.02421781
 13.17552822 13.32683863 13.47814903 13.62945944 13.77844199 13.9297524
 14.0810628  14.23237321 14.38135576 14.53033832 14.67932087 14.82597557
 14.96797457 15.10066216 15.22403834 15.33111955 15.41026653 15.45682358
 15.45216787 15.3823323  15.2356776  14.9959088  14.6537145  14.19978328
 13.63411514 12.96834935 12.21645303 11.40170469 10.55902212  9.71633955
  8.90857476  8.16598984  7.51186332  6.95783445  6.51321464  6.17334819
  5.92659583  5.75899046]",1.2370193458033811,12.718279810186898,4.41783,0.06200500000000009
032,2,2,csm,33a.png,1,1,332,127,330,1,0,226,neu_feedback_onset,5,"[-3.86740076e+00 -3.55767586e+00 -3.17629819e+00 -2.73713602e+00
 -2.24943487e+00 -1.73168578e+00 -1.19544566e+00 -6.56894153e-01
 -1.36833687e-01  3.55490221e-01  8.03897911e-01  1.20145524e+00
  1.53660532e+00  1.80934814e+00  2.02199509e+00  2.17454616e+00
  2.27855825e+00  2.34096551e+00  2.38025897e+00  2.40568415e+00
  2.43804346e+00  2.48658244e+00  2.56516935e+00  2.68304973e+00
  2.84715770e+00  3.05749326e+00  3.31174505e+00  3.60529029e+00
  3.92657209e+00  4.26865630e+00  4.61305190e+00  4.95282474e+00
  5.27410654e+00  5.56996316e+00  5.83114908e+00  6.05535292e+00
  6.23795193e+00  6.38356886e+00  6.49682648e+00  6.57772477e+00
  6.63782065e+00  6.67942548e+00  6.70947342e+00  6.73720998e+00
  6.76263516e+00  6.79037172e+00  6.82504241e+00  6.86433587e+00
  6.91056347e+00  6.96141382e+00  7.01919832e+00  7.08391696e+00
  7.15325835e+00  7.22491113e+00  7.29656390e+00  7.37052806e+00
  7.43524669e+00  7.48840843e+00  7.52076775e+00  7.52307913e+00
  7.48378567e+00  7.39364186e+00  7.24109079e+00  7.01919832e+00
  6.72103032e+00  6.35120955e+00  5.90511323e+00  5.39660967e+00
  4.83263299e+00  4.22705147e+00  3.59142201e+00  2.94423565e+00
  2.29704929e+00  1.65910845e+00  1.04428142e+00  4.57190934e-01
 -9.98516094e-02 -6.26846215e-01 -1.12379288e+00 -1.59300299e+00
 -2.04141068e+00 -2.47595009e+00 -2.89430985e+00 -3.30573546e+00
 -3.71022693e+00 -4.10085013e+00 -4.47991642e+00 -4.84049168e+00
 -5.17333037e+00 -5.47612113e+00 -5.73730706e+00 -5.95457676e+00
 -6.12330749e+00 -6.24118786e+00 -6.30821788e+00 -6.32670892e+00
 -6.30128374e+00 -6.23425372e+00 -6.13717577e+00 -6.01698402e+00
 -5.88061261e+00 -5.74192982e+00 -5.60324703e+00 -5.47612113e+00
 -5.36748628e+00 -5.27734247e+00 -5.20800107e+00 -5.15946210e+00
 -5.12941416e+00 -5.11554588e+00 -5.10861174e+00 -5.10630036e+00
 -5.10630036e+00 -5.10630036e+00 -5.10167760e+00 -5.09705484e+00
 -5.09012070e+00 -5.08549794e+00 -5.08780932e+00 -5.09705484e+00
 -5.12016864e+00 -5.15483934e+00 -5.20800107e+00 -5.27503109e+00
 -5.35824076e+00 -5.45763010e+00 -5.57088771e+00 -5.69339084e+00
 -5.82513949e+00 -5.96382228e+00 -6.10481645e+00 -6.24349924e+00
 -6.37524790e+00 -6.50006241e+00 -6.60869726e+00 -6.69884107e+00
 -6.76818247e+00 -6.81672145e+00 -6.83983524e+00 -6.84214662e+00
 -6.82134421e+00 -6.78205075e+00 -6.72888901e+00 -6.66185900e+00
 -6.58558346e+00 -6.50237379e+00 -6.41454135e+00 -6.31977478e+00
 -6.21807407e+00 -6.10712783e+00 -5.98693608e+00 -5.85056467e+00
 -5.70263636e+00 -5.54083977e+00 -5.36979766e+00 -5.19182141e+00
 -5.01153379e+00 -4.83586892e+00 -4.67176095e+00 -4.52845540e+00
 -4.40826365e+00 -4.31580845e+00 -4.25571258e+00 -4.23028740e+00
 -4.23953292e+00 -4.28113775e+00 -4.35741329e+00 -4.46142538e+00
 -4.59548541e+00 -4.75265924e+00 -4.93294687e+00 -5.13172554e+00
 -5.34206110e+00 -5.56626495e+00 -5.79278017e+00 -6.02160678e+00
 -6.24812200e+00 -6.46308033e+00 -6.66879314e+00 -6.85832628e+00
 -7.02705701e+00 -7.17498532e+00 -7.29517707e+00 -7.38069813e+00
 -7.43385987e+00 -7.44310539e+00 -7.40612331e+00 -7.32060225e+00
 -7.18423084e+00 -6.99469769e+00 -6.75893695e+00 -6.48157137e+00
 -6.16953509e+00 -5.83669639e+00 -5.48998941e+00 -5.14559382e+00
 -4.81044374e+00 -4.48916194e+00 -4.18868256e+00 -3.90900560e+00
 -3.64319692e+00 -3.38663375e+00 -3.13469335e+00 -2.88044157e+00
 -2.61463288e+00 -2.33957868e+00 -2.05065620e+00 -1.75479958e+00
 -1.45663158e+00 -1.16077496e+00 -8.76475238e-01 -6.15289315e-01
 -3.79528571e-01 -1.76127144e-01 -5.08503566e-03  1.31286375e-01
  2.39921228e-01  3.23130903e-01  3.92472298e-01  4.52568174e-01
  5.10352670e-01  5.75071306e-01  6.51346841e-01  7.43802035e-01
  8.54748268e-01  9.86496919e-01  1.14598213e+00  1.33089252e+00
  1.54585084e+00  1.79316849e+00  2.07515683e+00  2.39181587e+00
  2.74083422e+00  3.11990052e+00  3.52670337e+00  3.95662002e+00
  4.40040495e+00  4.85574678e+00  5.31339999e+00  5.76643044e+00
  6.20559261e+00  6.62395237e+00  7.00764142e+00  7.35434840e+00
  7.64789364e+00  7.88827714e+00  8.06163063e+00  8.17026549e+00
  8.20724756e+00  8.17488824e+00  8.07318753e+00  7.90907956e+00
  7.68949848e+00  7.41906703e+00  7.10934214e+00  6.77188068e+00
  6.42055094e+00  6.06228706e+00  5.70864595e+00  5.36887311e+00]","[-0.79513027 -0.63665279 -0.49849294 -0.37658719 -0.26890377 -0.16934741
 -0.07791809  0.00741593  0.08665467  0.15979812  0.22278276  0.27357683
  0.31014855  0.32843442  0.32843442  0.31014855  0.27560859  0.22887805
  0.17402046  0.11713111  0.06227352  0.0094477  -0.03525108 -0.07385457
 -0.10433101 -0.12668039 -0.14496626 -0.1591886  -0.16934741 -0.17747446
 -0.18356975 -0.18763327 -0.19372856 -0.19779208 -0.20185561 -0.20591913
 -0.20998266 -0.21404618 -0.21810971 -0.22217323 -0.22623676 -0.23030028
 -0.23436381 -0.23842733 -0.24249086 -0.24655438 -0.25061791 -0.25468143
 -0.25874496 -0.26280849 -0.26687201 -0.27093554 -0.27499906 -0.27906259
 -0.28109435 -0.28312611 -0.28109435 -0.27703082 -0.26687201 -0.24655438
 -0.21607795 -0.16528388 -0.09214043  0.0094477   0.14557579  0.32030737
  0.53364243  0.78964451  1.08018656  1.39917328  1.7344141   2.0757502
  2.40489574  2.71372364  2.99004335  3.2257278   3.41468172  3.55893686
  3.66052499  3.72147786  3.7519543   3.75804959  3.74585901  3.72350963
  3.69303319  3.66255675  3.63208031  3.60160387  3.57519096  3.55080981
  3.52846042  3.5081428   3.48985693  3.47157107  3.45531697  3.43703111
  3.42077701  3.40452291  3.38826881  3.37201471  3.35576061  3.33950651
  3.3232524   3.3069983   3.2907442   3.27652187  3.26229953  3.25010895
  3.23995014  3.23182309  3.22775957  3.22979133  3.23791838  3.25417248
  3.27652187  3.30903007  3.34763356  3.39639586  3.44922168  3.5081428
  3.56909567  3.63208031  3.69506495  3.75398606  3.81290718  3.86776477
  3.91855883  3.96528937  4.00795638  4.04452811  4.07703631  4.10141746
  4.11767156  4.12579861  4.12173508  4.10751275  4.08109983  4.04249635
  3.99170228  3.93074941]",5.79250569755131,3.79650257663235,4.326420000000001,-0.42037999999999975
032,2,2,csm,65a.png,1,1,256,207,257,1,1,312,neu_feedback_onset,6,"[  0.9313229    0.76695971   0.61081469   0.4669969    0.33550635
   0.21839758   0.11772513   0.03554354  -0.03225628  -0.08772885
  -0.13087419  -0.16580136  -0.198674    -0.23360118  -0.27469197
  -0.32605547  -0.38769166  -0.45960056  -0.54589123  -0.64040006
  -0.74107251  -0.84790858  -0.95474465  -1.06158072  -1.16430771
  -1.26292562  -1.35948899  -1.45399783  -1.54850666  -1.64712457
  -1.74985156  -1.86490579  -1.98817818  -2.12377781  -2.27170467
  -2.42990424  -2.5983765   -2.77506693  -2.95586643  -3.14077501
  -3.32773814  -3.51059218  -3.69139168  -3.86191849  -4.02422713
  -4.172154    -4.30159001  -4.41253516  -4.50088037  -4.5645711
  -4.60771644  -4.63031638  -4.63853454  -4.63853454  -4.63853454
  -4.64469816  -4.6672981   -4.71660705  -4.79467956  -4.90767925
  -5.0597152   -5.24873286  -5.4726777   -5.72949518  -6.01096713
  -6.31503903  -6.62938362  -6.95400091  -7.2786182   -7.59707187
  -7.9031983   -8.19083388  -8.45381497  -8.68392343  -8.87705017
  -9.02703158  -9.12975857  -9.18523115  -9.19139477  -9.14824943
  -9.0640133   -8.94279545  -8.78870496  -8.60790546  -8.4086151
  -8.19494296  -7.96894358  -7.73678058  -7.49845396  -7.2580728
  -7.01152802  -6.76292871  -6.51227485  -6.25751191  -5.99863989
  -5.73360426  -5.46035046  -5.17887851  -4.88713386  -4.5851165
  -4.27693553  -3.96670002  -3.66057359  -3.36677439  -3.0935206
  -2.85313944  -2.65179454  -2.49975859  -2.40114068  -2.35799534
  -2.37032258  -2.42990424  -2.53057669  -2.66617632  -2.82232134
  -2.98873907  -3.15515679  -3.3154109   -3.46128322  -3.58661015
  -3.69344622  -3.77768236  -3.84342763  -3.89273659  -3.92355468
  -3.94410008  -3.95231824  -3.9502637   -3.939991    -3.91739106
  -3.88451843  -3.83726401  -3.77151874  -3.68522806  -3.57839199
  -3.44895599  -3.2948655   -3.12228416  -2.93326649  -2.73192159
  -2.52646761  -2.32101363  -2.11966873  -1.92448744  -1.73752432
  -1.5505612   -1.36359807  -1.17047133  -0.96296281  -0.73901797
  -0.49658227  -0.23360118   0.0437617    0.33345181   0.62725101
   0.91899566   1.19635853   1.45523055   1.68739355   1.88668391
   2.04693802   2.16404679   2.23595568   2.25855562   2.22773752
   2.14555593   2.0099563    1.82093864   1.58055748   1.29086737
   0.95803192   0.58821475   0.18757949  -0.23360118  -0.66505454
  -1.10061698  -1.52796126  -1.94092376  -2.33128633  -2.69699441
  -3.02982986  -3.33184722  -3.60099193  -3.84342763  -4.05709977
  -4.25022651  -4.42691694  -4.58922558  -4.74126153  -4.88713386
  -5.0288971   -5.16860581  -5.30625998  -5.44391414  -5.57951377
  -5.71716794  -5.85482211  -5.99042174  -6.1280759   -6.26573007
  -6.4013297   -6.53898387  -6.67663803  -6.8142922   -6.94989183
  -7.087546    -7.22520016  -7.36079979  -7.49845396  -7.63610813
  -7.77376229  -7.90936192  -8.04701609  -8.18467026  -8.32232442
  -8.45792405  -8.59557822  -8.73323239  -8.86883201  -9.00648618
  -9.14414035  -9.28179452  -9.41739414  -9.55504831  -9.69270248
  -9.83035665  -9.96595628 -10.10361044 -10.24126461 -10.37891878
 -10.51657295 -10.65422711 -10.79188128 -10.93158999 -11.0712987
 -11.21306194 -11.35482519 -11.49864298 -11.64246076 -11.78627855
 -11.9280418  -12.06364143 -12.19513197 -12.31634982 -12.42524043
 -12.51769472 -12.5937127  -12.64713073 -12.67794883 -12.68411245
 -12.66767613 -12.62453079 -12.55673098 -12.46222215 -12.34305884
 -12.19718651 -12.02665971 -11.83147843 -11.61575175 -11.38358875]","[ -2.77667676  -2.59203995  -2.37529238  -2.12844099  -1.85750654
  -1.56449595  -1.25342306  -0.92629479  -0.58511807  -0.23591367
   0.12131843   0.48055744   0.83979646   1.19301471   1.53419143
   1.86131969   2.16837874   2.45135472   2.70824072   2.93702982
   3.13370816   3.29827575   3.43273952   3.53709946   3.61336249
   3.66152861   3.68561167   3.69163244   3.67758399   3.64948708
   3.60934864   3.56118252   3.50498871   3.44478105   3.38256647
   3.31633805   3.25010963   3.17986736   3.11163202   3.03938283
   2.9631198    2.88484985   2.80055913   2.70824072   2.60588771
   2.49149316   2.35903632   2.20651025   2.03190805   1.83322279
   1.60644061   1.35557538   1.07862016   0.77758188   0.45446746
   0.11329074  -0.24394135  -0.61321498  -0.99252321  -1.37785221
  -1.76920198  -2.16255866  -2.55792227  -2.9552928   -3.35065641
  -3.74602002  -4.13937671  -4.52871955  -4.91404855  -5.29536371
  -5.66664426  -6.02789019  -6.38110844  -6.72228516  -7.05142035
  -7.37252785  -7.68360074  -7.98865286  -8.28969114  -8.5887225
  -8.88574694  -9.18076446  -9.47578197  -9.76678564 -10.04976163
 -10.32069608 -10.58159592 -10.82443347 -11.05322256 -11.26194244
 -11.45862078 -11.63924375 -11.81183903 -11.97640663 -12.1389673
 -12.29952105 -12.4600748  -12.61862163 -12.77516153 -12.92568067
 -13.06415828 -13.18858744 -13.29094045 -13.36720348 -13.41536961
 -13.42941806 -13.40734192 -13.34914119 -13.25481586 -13.12637286
 -12.96381219 -12.77315461 -12.55440013 -12.31758334 -12.06270427
 -11.80180442 -11.53689074 -11.28000474 -11.04118103 -10.82443347
 -10.64180358 -10.50131905 -10.4049868  -10.3588276  -10.36083452
 -10.40699372 -10.49529828 -10.61370667 -10.75419121 -10.90671727
 -11.06325717 -11.21377631 -11.35426085 -11.48069692 -11.59308455
 -11.6894168  -11.77370752 -11.84394978 -11.90215052 -11.94830972]",-0.024346296794702228,2.553557218847824,4.8672699999999995,0.20419500000000035
032,2,2,csp,66b.png,1,1,236,349,242,1,1,377,pos_feedback_onset,7,"[ 1.20007791  0.97284718  0.76059869  0.56333245  0.3835455   0.22123783
  0.07391241 -0.05843076 -0.17329465 -0.27567333 -0.36057272 -0.42799283
 -0.47543661 -0.49790998 -0.49790998 -0.47044253 -0.41051354 -0.31562598
 -0.18827689 -0.02347219  0.1762911   0.41350999  0.6881845   0.99781759
  1.33741516  1.70697723  2.09901267  2.5085274   2.93302437  3.36251542
  3.79700055  4.22898865  4.6584797   5.08547371  5.5049766   5.91948541
  6.33149718  6.7410119   7.14802958  7.55005319  7.94708271  8.3366211
  8.7136743   9.0732482   9.41534282  9.73496407 10.03211195 10.30428942
 10.55399352 10.78122425 10.99097569 11.18574489 11.36802889 11.54282176
 11.71761463 11.88991046 12.07219445 12.26446661 12.47172101 12.69895174
 12.94865584 13.22582739 13.52547232 13.84259652 14.17470298 14.50680943
 14.82892772 15.1260756  15.38576787 15.59801635 15.75532993 15.85271453
 15.89516423 15.88767311 15.83773229 15.76282106 15.67542462 15.58802819
 15.515614   15.4606791  15.43321164 15.43321164 15.4606791  15.50562583
 15.56305778 15.62298676 15.67542462 15.71288024 15.72786248 15.71288024
 15.67043054 15.60051339 15.50312879 15.38327082 15.25092765 15.10859631
 14.96626498 14.82892772 14.70157863 14.59420587 14.50680943 14.44688045
 14.41441891 14.41192187 14.4318982  14.47684494 14.53677392 14.60419403
 14.67161414 14.72904608 14.76899874 14.78398098 14.76899874 14.72155496
 14.64164965 14.5292828  14.38695146 14.21715267 14.02238348 13.80014683
 13.55293977 13.27826526 12.98111738 12.65899909 12.31940151 11.96981577
 11.61523595 11.26814725 10.94353191 10.65137812 10.39917698 10.19941369
 10.05458532  9.9621948   9.92224214  9.92473918  9.96718888 10.03710603
 10.12699951 10.22688115 10.32925983 10.43163851 10.52902311 10.61641954
 10.69632486 10.766242   10.82367395 10.86862068 10.89359109 10.90108222
 10.88609997 10.84614732 10.78372129 10.6988219  10.59894026 10.48407637
 10.37170952 10.26433676 10.17444328 10.1145143  10.08954389 10.10952022
 10.17194624 10.28431309 10.43912963 10.63389883 10.86612364 11.12581591
 11.41047858 11.71262054 12.02724771 12.349366   12.67897541 13.01108187
 13.34568536 13.68028886 14.01239531 14.34200472 14.66412301 14.9737561
 15.2659099  15.53808737 15.7778033  15.98006362 16.12988608 16.2222766
 16.24474997 16.19231211 16.05996894 15.84522341 15.54807553 15.17851346
 14.73903424 14.24212308 13.6952711  13.11096351 12.49918846 11.86993413
 11.23069163 10.59144913  9.95720072  9.33543751  8.73115358  8.15433711
  7.60249105  7.08310652  6.59618352  6.13922502  5.71472805  5.32019557
  4.9506335   4.6035448   4.27892947  3.97429047  3.69462187  3.43992369
  3.21768704  3.02791192  2.87808946  2.77321374  2.71827884  2.71328476
  2.7582315   2.85062201  2.99295335  3.17773438  3.40246808  3.66465738
  3.95681118  4.27892947  4.62601817  4.99807728  5.3951068   5.81211265
  6.24909482  6.70605333  7.17549704  7.65742595  8.14434895  8.63127194
  9.11070382  9.57515344 10.01463266 10.42914147 10.8086917  11.1557804
 11.46791053 11.74757912 11.99978026 12.22451395 12.42677427 12.61405235
 12.78884522 12.95364992 13.11346055 13.26578005 13.41560251 13.56043089
 13.70276223 13.83760244]","[ -2.52809621  -2.3344473   -2.13493025  -1.92563295  -1.70655541
  -1.47182946  -1.22341117  -0.95347634  -0.66202496  -0.34905704
  -0.01457257   0.33947239   0.70525366   1.07494702   1.44072828
   1.78890509   2.10969721   2.39528044   2.63196244   2.81778714
   2.94884246   3.02317234   3.04468889   3.01730419   2.94688641
   2.83930369   2.70238022   2.54394021   2.3698518    2.18207105
   1.98646609   1.78694904   1.58351989   1.37617864   1.16883739
   0.96149614   0.75415489   0.54485759   0.33751635   0.12821905
  -0.08107825  -0.2884195   -0.4977168   -0.70505805  -0.91435535
  -1.1216966   -1.3309939   -1.5402912   -1.74763245  -1.95692975
  -2.164271    -2.37356829  -2.58090954  -2.78825079  -2.99363599
  -3.19902119  -3.40049429  -3.60001135  -3.7917042   -3.9775289
  -4.15357336  -4.31592547  -4.46458523  -4.5975966   -4.71495957
  -4.81667415  -4.90274033  -4.97902626  -5.04748799  -5.11594973
  -5.18441146  -5.26069739  -5.34480752  -5.4386979   -5.54432457
  -5.65777544  -5.78100656  -5.91010583  -6.0431172   -6.18004067
  -6.31696413  -6.45193155  -6.58298687  -6.70817404  -6.82358096
  -6.92725158  -7.01527381  -7.0817795   -7.12481259  -7.14241703
  -7.13263678  -7.09742789  -7.04070246  -6.97028467  -6.89986689
  -6.83727331  -6.79815232  -6.79228417  -6.83140516  -6.91747134
  -7.05635085  -7.24413161  -7.4729894   -7.73314399  -8.01090302
  -8.2945302   -8.57033318  -8.83048777  -9.06716976  -9.27451101
  -9.45251152  -9.60312733  -9.72635845  -9.82611698  -9.90827106
  -9.97282069 -10.02172193 -10.05693082 -10.07844737 -10.08235947
 -10.07062317 -10.03932638  -9.99042514  -9.92391945  -9.84567747
  -9.75961129  -9.67158907  -9.58943499  -9.5229293   -9.47794016
  -9.45837967  -9.46815991  -9.50728091  -9.57574264  -9.66572092
  -9.77134759  -9.88675451 -10.00216143 -10.10583206 -10.19189824]",13.075630378002094,1.0684920520817673,4.004739999999999,0.4529999999999985
032,2,2,csp,19b.png,1,0,84,NaN,84,1,1,277,pos_feedback_onset,8,"[ 1.89721093e-01  1.69009184e-01  1.48297274e-01  1.29656555e-01
  1.08944645e-01  9.03039266e-02  6.95920168e-02  4.88801070e-02
  3.02393883e-02  9.52747849e-03 -9.11324030e-03 -2.98251501e-02
 -5.05370598e-02 -6.91777786e-02 -8.98896884e-02 -1.08530407e-01
 -1.29242317e-01 -1.49954227e-01 -1.68594945e-01 -1.89306855e-01
 -2.10018765e-01 -2.28659484e-01 -2.49371394e-01 -2.68012112e-01
 -2.88724022e-01 -3.09435932e-01 -3.28076651e-01 -3.48788560e-01
 -3.67429279e-01 -3.88141189e-01 -4.08853099e-01 -4.27493817e-01
 -4.48205727e-01 -4.68917637e-01 -4.87558356e-01 -5.08270266e-01
 -5.28982175e-01 -5.51765276e-01 -5.74548377e-01 -5.99402669e-01
 -6.28399342e-01 -6.61538398e-01 -7.02962217e-01 -7.54741992e-01
 -8.21020103e-01 -9.05938933e-01 -1.01156967e+00 -1.14412590e+00
 -1.30360760e+00 -1.49622836e+00 -1.71991699e+00 -1.97674467e+00
 -2.26256902e+00 -2.57531886e+00 -2.90878061e+00 -3.25674069e+00
 -3.61298554e+00 -3.96923039e+00 -4.31719047e+00 -4.64650984e+00
 -4.95097491e+00 -5.22230093e+00 -5.45220313e+00 -5.63446793e+00
 -5.76081058e+00 -5.82915988e+00 -5.83123107e+00 -5.76081058e+00
 -5.61582721e+00 -5.39213859e+00 -5.08767351e+00 -4.70243199e+00
 -4.24262760e+00 -3.71447390e+00 -3.12625566e+00 -2.49040003e+00
 -1.82347654e+00 -1.13791232e+00 -4.52348109e-01  2.16646576e-01
  8.50431015e-01  1.44072044e+00  1.97094533e+00  2.43489211e+00
  2.83256078e+00  3.16602253e+00  3.43734854e+00  3.66103717e+00
  3.84744436e+00  4.01106844e+00  4.16019419e+00  4.30724875e+00
  4.45637450e+00  4.61171383e+00  4.76705315e+00  4.91617890e+00
  5.05287751e+00  5.16679301e+00  5.24964065e+00  5.29520685e+00
  5.30142042e+00  5.26828137e+00  5.20200326e+00  5.11087085e+00
  5.00524011e+00  4.89753818e+00  4.80019221e+00  4.72355814e+00
  4.67384956e+00  4.65520884e+00  4.66763598e+00  4.71113099e+00
  4.77326672e+00  4.84990079e+00  4.93067724e+00  5.00316892e+00
  5.05701989e+00  5.08808775e+00  5.08394537e+00  5.04459274e+00
  4.96381629e+00  4.84575841e+00  4.68834789e+00  4.49779832e+00
  4.27618089e+00  4.02970916e+00  3.76252553e+00  3.48084355e+00
  3.18673444e+00  2.88434055e+00  2.57573310e+00  2.26505445e+00
  1.95023342e+00  1.63541239e+00  1.31852018e+00  1.00162796e+00
  6.82664546e-01  3.63701135e-01  3.85241522e-02 -2.90795213e-01
 -6.28399342e-01 -9.76359426e-01 -1.33674666e+00 -1.70956103e+00
 -2.09273136e+00 -2.48625765e+00 -2.88392632e+00 -3.27745260e+00
 -3.65440936e+00 -4.00858302e+00 -4.32547523e+00 -4.60094363e+00
 -4.82670345e+00 -5.00482587e+00 -5.13531091e+00 -5.22851450e+00
 -5.29272142e+00 -5.34450120e+00 -5.39835216e+00 -5.46877265e+00
 -5.56611863e+00 -5.70281723e+00 -5.88301085e+00 -6.10669947e+00
 -6.37388311e+00 -6.67627699e+00 -7.00352517e+00 -7.34734287e+00
 -7.69530295e+00 -8.03290708e+00 -8.35394168e+00 -8.64597961e+00
 -8.90487848e+00 -9.12235354e+00 -9.30047596e+00 -9.43510337e+00
 -9.53037816e+00 -9.58630031e+00 -9.60908342e+00 -9.60079865e+00
 -9.56973079e+00 -9.52002220e+00 -9.45581528e+00 -9.38125241e+00
 -9.30254715e+00 -9.22177070e+00 -9.14099425e+00 -9.06228900e+00
 -8.98772612e+00 -8.91523444e+00 -8.84481394e+00 -8.77853583e+00
 -8.71225772e+00 -8.64805080e+00 -8.58384388e+00 -8.51756577e+00
 -8.44921647e+00 -8.37672478e+00 -8.30216191e+00 -8.22138546e+00
 -8.13439544e+00 -8.04119185e+00 -7.93763230e+00 -7.82371679e+00
 -7.69944534e+00 -7.56688911e+00 -7.42397694e+00 -7.27485118e+00
 -7.11951186e+00 -6.96624373e+00 -6.81504679e+00 -6.67834818e+00
 -6.56029030e+00 -6.47122909e+00 -6.41944931e+00 -6.40909336e+00
 -6.44844599e+00 -6.53543601e+00 -6.66799223e+00 -6.84197227e+00
 -7.04702018e+00 -7.27070880e+00 -7.49646862e+00 -7.70980129e+00
 -7.89827967e+00 -8.04740542e+00 -8.15096497e+00 -8.20274474e+00
 -8.20067355e+00 -8.14475139e+00 -8.04326304e+00 -7.90035086e+00
 -7.72222844e+00 -7.51718053e+00 -7.29349190e+00 -7.05737613e+00
 -6.81090441e+00 -6.56029030e+00 -6.30967619e+00 -6.06320446e+00
 -5.81880393e+00 -5.58061697e+00 -5.34657239e+00 -5.11874138e+00
 -4.89298156e+00 -4.67136413e+00 -4.44767550e+00 -4.22605807e+00
 -4.00444063e+00 -3.78696558e+00 -3.57570410e+00 -3.38101215e+00
 -3.20703211e+00 -3.06826231e+00 -2.96677395e+00 -2.91499418e+00
 -2.91292299e+00 -2.96263157e+00 -3.05790636e+00 -3.19460496e+00]","[nan nan nan nan nan nan nan nan nan nan nan nan nan nan nan nan nan nan
 nan nan nan nan nan nan nan nan nan nan nan nan nan nan nan nan nan nan
 nan nan nan nan nan nan nan nan nan nan nan nan nan nan nan nan nan nan
 nan nan nan nan nan nan nan nan nan nan nan nan nan nan nan nan nan nan
 nan nan nan nan nan nan nan nan nan nan nan nan nan nan nan nan nan nan
 nan nan nan nan nan nan nan nan nan nan nan nan nan nan nan nan nan nan
 nan nan nan nan nan nan nan nan nan nan nan nan nan nan nan nan nan nan
 nan nan nan nan nan nan nan nan nan nan nan nan nan nan]",4.362083535274467,,4.828139999999999,0.43439999999999923
032,2,2,csp,64b.png,1,1,52,272,54,1,1,343,pos_feedback_onset,9,"[ 2.42003910e-01  1.79303356e-01  1.22670599e-01  7.41282348e-02
  3.36762649e-02 -7.07909473e-04 -2.49790914e-02 -4.31824778e-02
 -5.53180688e-02 -6.13858643e-02 -6.34084628e-02 -6.13858643e-02
 -5.73406673e-02 -5.12728718e-02 -4.52050763e-02 -4.11598793e-02
 -3.71146823e-02 -3.50920839e-02 -3.50920839e-02 -3.91372808e-02
 -4.31824778e-02 -4.92502733e-02 -5.53180688e-02 -6.13858643e-02
 -6.74536597e-02 -6.94762582e-02 -6.94762582e-02 -6.74536597e-02
 -6.13858643e-02 -5.12728718e-02 -4.11598793e-02 -2.90242884e-02
 -1.48660989e-02  1.31468902e-03  1.54728785e-02  3.16536664e-02
  4.78344544e-02  6.19926438e-02  7.81734318e-02  9.23316212e-02
  1.08512409e-01  1.22670599e-01  1.36828788e-01  1.53009576e-01
  1.69190364e-01  1.85371152e-01  2.01551940e-01  2.19755326e-01
  2.39981311e-01  2.60207296e-01  2.82455880e-01  3.04704463e-01
  3.26953046e-01  3.49201630e-01  3.67405016e-01  3.79540607e-01
  3.85608403e-01  3.81563206e-01  3.61337221e-01  3.28975645e-01
  2.76388084e-01  2.07619735e-01  1.20648000e-01  1.74954770e-02
 -1.01837834e-01 -2.33306736e-01 -3.76911229e-01 -5.28606116e-01
 -6.86368799e-01 -8.50199277e-01 -1.01807495e+00 -1.18999582e+00
 -1.36596189e+00 -1.54597316e+00 -1.73609742e+00 -1.93431207e+00
 -2.14668491e+00 -2.37321594e+00 -2.62199556e+00 -2.89504635e+00
 -3.19439093e+00 -3.52407448e+00 -3.88409702e+00 -4.27445853e+00
 -4.68909122e+00 -5.12799509e+00 -5.58307975e+00 -6.04827740e+00
 -6.51954285e+00 -6.98676310e+00 -7.44791556e+00 -7.89490983e+00
 -8.32976850e+00 -8.74440119e+00 -9.14285310e+00 -9.52310161e+00
 -9.88716934e+00 -1.02310111e+01 -1.05586720e+01 -1.08701522e+01
 -1.11654516e+01 -1.14425476e+01 -1.17014402e+01 -1.19380842e+01
 -1.21524797e+01 -1.23405813e+01 -1.25003666e+01 -1.26257677e+01
 -1.27147620e+01 -1.27673496e+01 -1.27855530e+01 -1.27653270e+01
 -1.27127394e+01 -1.26318355e+01 -1.25246378e+01 -1.23951915e+01
 -1.22475418e+01 -1.20816887e+01 -1.18976322e+01 -1.16933498e+01
 -1.14627736e+01 -1.12018584e+01 -1.09045364e+01 -1.05647398e+01
 -1.01844913e+01 -9.75974564e+00 -9.29454798e+00 -8.79698876e+00
 -8.27111315e+00 -7.73310195e+00 -7.19104555e+00 -6.65505695e+00
 -6.13524914e+00 -5.63971251e+00 -5.17249226e+00 -4.73358838e+00
 -4.32502349e+00 -3.94072977e+00 -3.58070724e+00 -3.23484290e+00
 -2.90111415e+00 -2.57345319e+00 -2.25186003e+00 -1.93026687e+00
 -1.61474151e+00 -1.30123874e+00 -9.99871565e-01 -7.10639981e-01
 -4.43656979e-01 -1.98922562e-01  1.14276815e-02  1.89416349e-01
  3.26953046e-01  4.28082971e-01  4.88760926e-01  5.13032108e-01
  5.02919115e-01  4.62467145e-01  3.93698797e-01  3.02681864e-01
  1.91438947e-01  6.19926438e-02 -8.56570462e-02 -2.51510123e-01
 -4.35566585e-01 -6.41871632e-01 -8.72447860e-01 -1.12931787e+00
 -1.41652685e+00 -1.73407482e+00 -2.07589396e+00 -2.43591649e+00
 -2.80605202e+00 -3.16809715e+00 -3.51193889e+00 -3.81735127e+00
 -4.06815348e+00 -4.25625514e+00 -4.36749806e+00 -4.39985963e+00
 -4.35738506e+00 -4.24411955e+00 -4.07017608e+00 -3.85173544e+00
 -3.60093323e+00 -3.33597282e+00 -3.06898982e+00 -2.81414241e+00
 -2.58154359e+00 -2.37523854e+00 -2.20129507e+00 -2.05769058e+00
 -1.94240246e+00 -1.85138553e+00 -1.78059458e+00 -1.72193923e+00
 -1.67541946e+00 -1.63294489e+00 -1.59249292e+00 -1.55406355e+00
 -1.51361158e+00 -1.47315961e+00 -1.43068504e+00 -1.38821048e+00
 -1.34371331e+00 -1.29921614e+00 -1.25471898e+00 -1.20819921e+00
 -1.16370204e+00 -1.11920488e+00 -1.07268511e+00 -1.02818794e+00
 -9.83690777e-01 -9.41216209e-01 -8.98741640e-01 -8.60312269e-01
 -8.21882898e-01 -7.89521322e-01 -7.59182344e-01 -7.32888564e-01
 -7.12662579e-01 -6.96481791e-01 -6.84346200e-01 -6.72210609e-01
 -6.60075018e-01 -6.45916829e-01 -6.25690844e-01 -5.95351866e-01
 -5.56922495e-01 -5.04334934e-01 -4.39611782e-01 -3.62753040e-01
 -2.73758706e-01 -1.72628781e-01 -6.34084628e-02  5.59248483e-02
  1.79303356e-01  3.08749660e-01  4.40218562e-01  5.73710063e-01
  7.09224162e-01  8.46760859e-01  9.82274958e-01  1.11981166e+00
  1.25937095e+00  1.39893025e+00  1.54051214e+00  1.68613923e+00
  1.83783412e+00  1.99559680e+00  2.15942728e+00  2.33337075e+00
  2.50933682e+00  2.68934809e+00  2.86329156e+00  3.02712203e+00
  3.17274913e+00  3.29005984e+00  3.37298638e+00  3.41748354e+00]","[nan nan nan nan nan nan nan nan nan nan nan nan nan nan nan nan nan nan
 nan nan nan nan nan nan nan nan nan nan nan nan nan nan nan nan nan nan
 nan nan nan nan nan nan nan nan nan nan nan nan nan nan nan nan nan nan
 nan nan nan nan nan nan nan nan nan nan nan nan nan nan nan nan nan nan
 nan nan nan nan nan nan nan nan nan nan nan nan nan nan nan nan nan nan
 nan nan nan nan nan nan nan nan nan nan nan nan nan nan nan nan nan nan
 nan nan nan nan nan nan nan nan nan nan nan nan nan nan nan nan nan nan
 nan nan nan nan nan nan nan nan nan nan nan nan nan nan]",2.0373971719353454,,4.944135000000001,0.7272149999999984
032,2,2,csm,21a.png,1,1,40,293,41,1,1,561,neu_feedback_onset,10,"[ 1.53680045  1.44647456  1.33304205  1.20280472  1.05366198  0.88981502
  0.71546505  0.53061207  0.34155789  0.1462019  -0.05125469 -0.24871128
 -0.44826847 -0.64572506 -0.84108105 -1.03223584 -1.21918942 -1.39984119
 -1.57209056 -1.73803812 -1.89348267 -2.03632361 -2.16656094 -2.28209405
 -2.38082234 -2.46064522 -2.51946208 -2.55517231 -2.56567532 -2.54887051
 -2.50685847 -2.4375386  -2.34511211 -2.23798141 -2.1245489  -2.00901578
 -1.90608628 -1.8220622  -1.76324535 -1.73593752 -1.74223933 -1.78215076
 -1.85357123 -1.95019893 -2.06993324 -2.20647237 -2.35561512 -2.51316027
 -2.67700723 -2.84085419 -3.00890235 -3.17484991 -3.34289807 -3.50674503
 -3.67059199 -3.83233835 -3.9898835  -4.14322745 -4.28816899 -4.42470812
 -4.55074424 -4.66207615 -4.75450264 -4.82382251 -4.87003575 -4.88894117
 -4.87843816 -4.83432552 -4.76080445 -4.65577434 -4.52343642 -4.36379066
 -4.18103829 -3.98358169 -3.77142089 -3.55085768 -3.32609326 -3.10132884
 -2.87866503 -2.66440362 -2.45854462 -2.26108803 -2.07623505 -1.90398568
 -1.74644053 -1.60570019 -1.48386528 -1.38303638 -1.30951531 -1.26120146
 -1.23809484 -1.24019544 -1.26120146 -1.2990123  -1.34102434 -1.38093578
 -1.4103442  -1.41874661 -1.4019418  -1.35152735 -1.26540266 -1.14566835
 -0.994425   -0.81587383 -0.62051784 -0.41255824 -0.20669924 -0.00714205
  0.17140913  0.32265247  0.44448739  0.52641087  0.57262411  0.57892592
  0.55161809  0.49280124  0.41087776  0.30794826  0.19031454  0.06427842
 -0.07016011 -0.20669924 -0.34323837 -0.48187811 -0.62051784 -0.75915757
 -0.89989791 -1.04063825 -1.18347919 -1.33052133 -1.48386528 -1.64351103
 -1.81365979 -1.99851277 -2.19806997 -2.41653258 -2.65600121 -2.91437526
 -3.19165473 -3.48573901 -3.79032631 -4.10121541 -4.41210451 -4.7145912
 -5.00657488 -5.28175375 -5.5380272  -5.77119402 -5.98125423 -6.16820781
 -6.33205477 -6.4685939  -6.57992581 -6.65764808 -6.70176072 -6.70596193
 -6.6723523  -6.59883123 -6.48959992 -6.35096019 -6.19341503 -6.02536687
 -5.85731871 -5.70397476 -5.57163683 -5.46660673 -5.39308566 -5.34897302
 -5.3321682  -5.3363694  -5.35527482 -5.38468325 -5.41829288 -5.45400312
 -5.48971335 -5.52542359 -5.56323442 -5.60314586 -5.6472585  -5.69137115
 -5.73758439 -5.77959643 -5.81320606 -5.83211148 -5.83001088 -5.80480366
 -5.750188   -5.66616392 -5.55063081 -5.40778987 -5.23974171 -5.05068753
 -4.84692913 -4.63476832 -4.42470812 -4.21884912 -4.02349313 -3.84494196
 -3.68529621 -3.54245527 -3.41851975 -3.30928844 -3.20635894 -3.10973125
 -3.00890235 -2.90177165 -2.78623854 -2.65810181 -2.52366328 -2.38502355
 -2.25268562 -2.1329513  -2.03842421 -1.97750675 -1.95650073 -1.97750675
 -2.04052481 -2.13715251 -2.25688682 -2.38292295 -2.50475786 -2.59928496
 -2.65810181 -2.66650422 -2.62029098 -2.51946208 -2.37031933 -2.18546635
 -1.97540615 -1.76114474 -1.55948695 -1.38723758 -1.25700026 -1.17717738
 -1.15197015 -1.18347919 -1.26750327 -1.39563999 -1.56158755 -1.75274234
 -1.95650073 -2.16446033 -2.36401753 -2.5425687  -2.69381205 -2.80934516
 -2.88496683 -2.91857646 -2.91017406 -2.86816202 -2.80094275 -2.71691867
 -2.62869338 -2.55097111 -2.49215425 -2.46064522 -2.46694703 -2.51316027
 -2.60138556 -2.73582409]","[ -2.65068312  -2.274888    -1.91134707  -1.56414506  -1.23328197
  -0.92284252  -0.628742    -0.35098039  -0.08751533   0.16165317
   0.39856749   0.62322761   0.83154882   1.02148874   1.19100502
   1.33192819   1.44221588   1.51778338   1.55454595   1.55046122
   1.50552919   1.42179224   1.30537744   1.15424245   0.98064145
   0.78253206   0.57012613   0.34342364   0.10855169  -0.13244736
  -0.37753113  -0.62465727  -0.87586813  -1.12503663  -1.3762475
  -1.625416    -1.87662687  -2.12579537  -2.37496388  -2.62209001
  -2.86513142  -3.1040881   -3.33487532  -3.55749308  -3.76785665
  -3.9618813   -4.1416094   -4.30091386  -4.44183703  -4.56846364
  -4.68487843  -4.79925086  -4.91975038  -5.05658882  -5.21793564
  -5.41808739  -5.65704407  -5.9450175   -6.27996532  -6.65984517
  -7.08057231  -7.53806202  -8.02414484  -8.53473603  -9.06166614
  -9.60085044 -10.14207711 -10.68330377 -11.21636098 -11.7310369
 -12.22120444 -12.67460942 -13.08308238 -13.43641148 -13.72642728
 -13.94904504 -14.09813767 -14.17983226 -14.19821354 -14.16349334
 -14.08588348 -13.98376524 -13.87143518 -13.76114748 -13.6671987
 -13.59367357 -13.54465682 -13.52014844 -13.51402134 -13.51606371
 -13.51606371 -13.50176716 -13.46296223 -13.39352182 -13.28527649
 -13.13618386 -12.95237103 -12.73588037 -12.49692369 -12.24367046
 -11.98633249 -11.73512163 -11.49616495 -11.27763192 -11.07952254
 -10.9018368  -10.74661708 -10.60773627 -10.48110966 -10.36469487
 -10.25032244 -10.13799238 -10.02361995  -9.90720516  -9.78466327
  -9.65803665  -9.52732531  -9.3945716   -9.25773316  -9.11885235
  -8.97792919  -8.83496365  -8.69199812  -8.54699022  -8.40402468
  -8.26310151  -8.12626307  -7.99759409  -7.87913694  -7.7770187
  -7.69532411  -7.64018026  -7.61771425  -7.62588371  -7.67081573
  -7.75046796  -7.86279802  -7.99963646  -8.15689855  -8.32437246]",-1.3034018309099338e-14,-0.05177394698224763,4.760540000000001,0.12577499999999908
032,2,2,csp,33b.png,1,1,312,181,317,1,1,335,pos_feedback_onset,11,"[-1.40435428e+00 -1.32030757e+00 -1.22520207e+00 -1.12124955e+00
 -1.01287352e+00 -9.00073983e-01 -7.80639175e-01 -6.50145589e-01
 -5.06381468e-01 -3.40499790e-01 -1.52500556e-01  5.76162361e-02
  2.89850585e-01  5.37567224e-01  7.98554396e-01  1.06175333e+00
  1.32052874e+00  1.56603363e+00  1.79163271e+00  1.99069072e+00
  2.16099591e+00  2.30254827e+00  2.41313606e+00  2.49497102e+00
  2.55247667e+00  2.58344125e+00  2.59671178e+00  2.58786476e+00
  2.55911194e+00  2.51266507e+00  2.44631240e+00  2.36447743e+00
  2.26273667e+00  2.14772538e+00  2.02165530e+00  1.88894996e+00
  1.75624462e+00  1.62575103e+00  1.50410447e+00  1.39794019e+00
  1.30946996e+00  1.24090554e+00  1.19224691e+00  1.16128233e+00
  1.14358829e+00  1.13031775e+00  1.11483546e+00  1.08608264e+00
  1.03742401e+00  9.57800807e-01  8.42789511e-01  6.87966611e-01
  4.95543865e-01  2.67733028e-01  8.95761060e-03 -2.69723608e-01
 -5.61675361e-01 -8.55838869e-01 -1.14557887e+00 -1.42204833e+00
 -1.68303550e+00 -1.92632863e+00 -2.14750420e+00 -2.35098572e+00
 -2.53898496e+00 -2.71371366e+00 -2.87517183e+00 -3.02999472e+00
 -3.18039411e+00 -3.32415823e+00 -3.46571060e+00 -3.60726296e+00
 -3.74660357e+00 -3.88815594e+00 -4.02749655e+00 -4.16904891e+00
 -4.31281303e+00 -4.46100066e+00 -4.61361181e+00 -4.77506997e+00
 -4.94758692e+00 -5.13337440e+00 -5.33685592e+00 -5.56024325e+00
 -5.81017164e+00 -6.08664111e+00 -6.38965164e+00 -6.72141499e+00
 -7.07529591e+00 -7.44687086e+00 -7.82950460e+00 -8.21435009e+00
 -8.58813681e+00 -8.94644123e+00 -9.27820459e+00 -9.57900336e+00
 -9.83999053e+00 -1.00611661e+01 -1.02403183e+01 -1.03818707e+01
 -1.04880350e+01 -1.05588111e+01 -1.05986227e+01 -1.06096815e+01
 -1.05941992e+01 -1.05499641e+01 -1.04813997e+01 -1.03862942e+01
 -1.02690711e+01 -1.01341540e+01 -9.98154290e+00 -9.81787298e+00
 -9.65420305e+00 -9.49274489e+00 -9.34234550e+00 -9.20964016e+00
 -9.10126413e+00 -9.01721741e+00 -8.96192352e+00 -8.93095894e+00
 -8.92211192e+00 -8.93538245e+00 -8.96413528e+00 -9.00394688e+00
 -9.05260550e+00 -9.10568764e+00 -9.16098153e+00 -9.21627543e+00
 -9.26935756e+00 -9.31801619e+00 -9.36003955e+00 -9.39321588e+00
 -9.41533344e+00 -9.42196871e+00 -9.41312168e+00 -9.38215710e+00
 -9.32907497e+00 -9.25166352e+00 -9.15213451e+00 -9.03269970e+00
 -8.89335909e+00 -8.73853619e+00 -8.57265452e+00 -8.39792582e+00
 -8.21435009e+00 -8.02635086e+00 -7.83392811e+00 -7.63929361e+00
 -7.44023560e+00 -7.23896583e+00 -7.03990781e+00 -6.84527331e+00
 -6.65948583e+00 -6.48475713e+00 -6.32329897e+00 -6.17953485e+00
 -6.05346477e+00 -5.94287699e+00 -5.84555973e+00 -5.75487775e+00
 -5.67083103e+00 -5.58678432e+00 -5.50052584e+00 -5.40763211e+00
 -5.31031485e+00 -5.21078585e+00 -5.11346860e+00 -5.02057486e+00
 -4.94095165e+00 -4.87681074e+00 -4.83478738e+00 -4.81930509e+00
 -4.83257562e+00 -4.88123425e+00 -4.96306921e+00 -5.07808051e+00
 -5.22847989e+00 -5.41205562e+00 -5.62438416e+00 -5.86325378e+00
 -6.12424095e+00 -6.40071042e+00 -6.68823866e+00 -6.97797865e+00
 -7.26550690e+00 -7.54639987e+00 -7.81181055e+00 -8.06395070e+00
 -8.29618505e+00 -8.51072536e+00 -8.70535986e+00 -8.88008856e+00
 -9.03269970e+00 -9.16098153e+00 -9.26272230e+00 -9.33128672e+00
 -9.36003955e+00 -9.34455726e+00 -9.27820459e+00 -9.15655802e+00
 -8.97740581e+00 -8.74295971e+00 -8.45764322e+00 -8.12587986e+00
 -7.75872842e+00 -7.36724766e+00 -6.96028461e+00 -6.55332156e+00
 -6.15299378e+00 -5.77478355e+00 -5.42532615e+00 -5.10904509e+00
 -4.83036387e+00 -4.59149425e+00 -4.39022448e+00 -4.22655456e+00
 -4.09163746e+00 -3.98326143e+00 -3.89036769e+00 -3.80632098e+00
 -3.72448602e+00 -3.63822754e+00 -3.54091029e+00 -3.42589900e+00
 -3.29540541e+00 -3.14721778e+00 -2.98133610e+00 -2.80218389e+00
 -2.61639641e+00 -2.42618542e+00 -2.24260969e+00 -2.07009275e+00
 -1.91305810e+00 -1.78035275e+00 -1.67640023e+00 -1.59898879e+00
 -1.55475367e+00 -1.54148314e+00 -1.55917718e+00 -1.60562405e+00
 -1.68303550e+00 -1.79141153e+00 -1.93075214e+00 -2.10105733e+00
 -2.30232710e+00 -2.53898496e+00 -2.80660740e+00 -3.10519442e+00
 -3.43253426e+00 -3.78641518e+00 -4.16241364e+00 -4.55831792e+00
 -4.96528096e+00 -5.38330279e+00 -5.80132462e+00 -6.21713469e+00
 -6.62409774e+00 -7.01557850e+00 -7.38494170e+00 -7.72555208e+00]","[nan nan nan nan nan nan nan nan nan nan nan nan nan nan nan nan nan nan
 nan nan nan nan nan nan nan nan nan nan nan nan nan nan nan nan nan nan
 nan nan nan nan nan nan nan nan nan nan nan nan nan nan nan nan nan nan
 nan nan nan nan nan nan nan nan nan nan nan nan nan nan nan nan nan nan
 nan nan nan nan nan nan nan nan nan nan nan nan nan nan nan nan nan nan
 nan nan nan nan nan nan nan nan nan nan nan nan nan nan nan nan nan nan
 nan nan nan nan nan nan nan nan nan nan nan nan nan nan nan nan nan nan
 nan nan nan nan nan nan nan nan nan nan nan nan nan nan]",1.4585422981689917,,4.521295,
032,2,2,csp,2b.png,1,1,140,29,140,1,1,389,pos_feedback_onset,12,"[-1.01328291e+00 -9.40384858e-01 -8.71904870e-01 -8.07842947e-01
 -7.45990055e-01 -6.79719100e-01 -6.06821049e-01 -5.22877838e-01
 -4.23471405e-01 -3.06392717e-01 -1.67223711e-01 -8.17341784e-03
  1.72967194e-01  3.71780060e-01  5.83847117e-01  8.00332238e-01
  1.01460833e+00  1.21563023e+00  1.39456181e+00  1.54035791e+00
  1.64639144e+00  1.70161723e+00  1.70603530e+00  1.65080950e+00
  1.53814888e+00  1.36805342e+00  1.14715024e+00  8.79857385e-01
  5.72801958e-01  2.32611054e-01 -1.27461138e-01 -5.02996552e-01
 -8.82950029e-01 -1.26290351e+00 -1.63843892e+00 -2.00513821e+00
 -2.35858330e+00 -2.70319227e+00 -3.03675608e+00 -3.35927473e+00
 -3.67295725e+00 -3.98001268e+00 -4.28044101e+00 -4.57424225e+00
 -4.85920736e+00 -5.13754537e+00 -5.40925629e+00 -5.66992204e+00
 -5.92396071e+00 -6.16916324e+00 -6.40552965e+00 -6.63305993e+00
 -6.85396311e+00 -7.06161211e+00 -7.25821594e+00 -7.43935655e+00
 -7.60061588e+00 -7.74420295e+00 -7.86569970e+00 -7.96289710e+00
 -8.03800418e+00 -8.08881192e+00 -8.11973836e+00 -8.12857449e+00
 -8.12194739e+00 -8.09764804e+00 -8.05788547e+00 -8.00045064e+00
 -7.92755259e+00 -7.83919132e+00 -7.73315779e+00 -7.61166104e+00
 -7.47911913e+00 -7.33553206e+00 -7.18752692e+00 -7.04393985e+00
 -6.90918891e+00 -6.79211022e+00 -6.69712185e+00 -6.62864187e+00
 -6.59329736e+00 -6.58667026e+00 -6.61096961e+00 -6.66177734e+00
 -6.73467539e+00 -6.82082764e+00 -6.91581601e+00 -7.00638631e+00
 -7.08370243e+00 -7.14113725e+00 -7.16543660e+00 -7.14997338e+00
 -7.08812049e+00 -6.97325083e+00 -6.80094635e+00 -6.57783413e+00
 -6.30170515e+00 -5.98139553e+00 -5.62574141e+00 -5.24357890e+00
 -4.84816220e+00 -4.45274550e+00 -4.07058299e+00 -3.70830176e+00
 -3.37915602e+00 -3.08977285e+00 -2.84236128e+00 -2.64354841e+00
 -2.49112521e+00 -2.38509169e+00 -2.32544783e+00 -2.30556654e+00
 -2.32544783e+00 -2.38288265e+00 -2.47345296e+00 -2.59494971e+00
 -2.74295485e+00 -2.91084127e+00 -3.09639994e+00 -3.28858571e+00
 -3.47856245e+00 -3.65970306e+00 -3.82538045e+00 -3.96454946e+00
 -4.07941911e+00 -4.16778039e+00 -4.23405134e+00 -4.28927714e+00
 -4.34450293e+00 -4.41298292e+00 -4.50576226e+00 -4.63388611e+00
 -4.80177253e+00 -5.01163055e+00 -5.26346018e+00 -5.54842529e+00
 -5.86210781e+00 -6.19567162e+00 -6.53807156e+00 -6.88268053e+00
 -7.22508046e+00 -7.55643524e+00 -7.87232680e+00 -8.16612803e+00
 -8.43342088e+00 -8.66316020e+00 -8.85313694e+00 -8.99451497e+00
 -9.08287625e+00 -9.11601173e+00 -9.08950334e+00 -9.00997820e+00
 -8.87964532e+00 -8.70734083e+00 -8.50190087e+00 -8.27216156e+00
 -8.02254096e+00 -7.76187520e+00 -7.49458235e+00 -7.22066240e+00
 -6.94011536e+00 -6.65294122e+00 -6.35913998e+00 -6.05650262e+00
 -5.74502913e+00 -5.43134660e+00 -5.11103699e+00 -4.79514543e+00
 -4.48367194e+00 -4.18324361e+00 -3.90048753e+00 -3.63982178e+00
 -3.40566440e+00 -3.20022444e+00 -3.02791995e+00 -2.89095998e+00
 -2.78713548e+00 -2.71644646e+00 -2.68110195e+00 -2.67447486e+00
 -2.70098324e+00 -2.75179097e+00 -2.82910709e+00 -2.92630449e+00
 -3.04559221e+00 -3.17592509e+00 -3.31951216e+00 -3.46751729e+00
 -3.61331339e+00 -3.75469143e+00 -3.88502431e+00 -3.99547590e+00
 -4.08604621e+00 -4.15010813e+00 -4.18545264e+00 -4.19207974e+00
 -4.17219845e+00 -4.12580878e+00 -4.05953783e+00 -3.97559462e+00
 -3.88060625e+00 -3.77899078e+00 -3.67295725e+00 -3.56692372e+00
 -3.46530826e+00 -3.37031989e+00 -3.28416765e+00 -3.20685153e+00
 -3.14058058e+00 -3.08756381e+00 -3.05221930e+00 -3.03233802e+00
 -3.02791995e+00 -3.04117414e+00 -3.06989156e+00 -3.11186316e+00
 -3.16487993e+00 -3.22452379e+00 -3.29079474e+00 -3.36148376e+00
 -3.43438181e+00 -3.51169793e+00 -3.59343211e+00 -3.67958435e+00
 -3.77457272e+00 -3.87618818e+00 -3.98663978e+00 -4.10813653e+00
 -4.23846941e+00 -4.37763841e+00 -4.52564355e+00 -4.68027578e+00
 -4.83932607e+00 -5.00058539e+00 -5.16405375e+00 -5.32752211e+00
 -5.48878143e+00 -5.64120463e+00 -5.78700073e+00 -5.91733361e+00
 -6.02778520e+00 -6.11614648e+00 -6.17358130e+00 -6.20008969e+00
 -6.18904453e+00 -6.14265486e+00 -6.06533874e+00 -5.96151425e+00
 -5.84001750e+00 -5.71189365e+00 -5.59260593e+00 -5.49319950e+00
 -5.42471951e+00 -5.39379306e+00 -5.40262919e+00 -5.45564595e+00
 -5.54179820e+00 -5.65666785e+00 -5.78920976e+00 -5.92616974e+00]","[nan nan nan nan nan nan nan nan nan nan nan nan nan nan nan nan nan nan
 nan nan nan nan nan nan nan nan nan nan nan nan nan nan nan nan nan nan
 nan nan nan nan nan nan nan nan nan nan nan nan nan nan nan nan nan nan
 nan nan nan nan nan nan nan nan nan nan nan nan nan nan nan nan nan nan
 nan nan nan nan nan nan nan nan nan nan nan nan nan nan nan nan nan nan
 nan nan nan nan nan nan nan nan nan nan nan nan nan nan nan nan nan nan
 nan nan nan nan nan nan nan nan nan nan nan nan nan nan nan nan nan nan
 nan nan nan nan nan nan nan nan nan nan nan nan nan nan]",-0.278338012799144,,4.526870000000001,0.22102999999999895
032,2,2,csp,27b.png,1,1,176,57,173,1,1,377,pos_feedback_onset,13,"[ 8.76832495e-02  8.38956361e-02  7.82142160e-02  6.87451826e-02
  5.73823425e-02  4.60195024e-02  3.27628556e-02  1.95062088e-02
