sub,run,cat_cond,trial_type,picture,old,response_old,target_pos,response_pos,dot_resp_loc,cat_corr,TN_corr,TN_rt,feedback_type,trial,SP_timeseries,FB_timeseries,SP_peak_response,FB_peak_response,preStim_bl,anticipation
049,1,2,csp,19b.png,1,1,320,283,321,1,1,361,pos_feedback_onset,1,"[-4.81771340e-01 -6.55220984e-01 -8.06740213e-01 -9.22373309e-01
 -1.00212027e+00 -1.04000008e+00 -1.03202538e+00 -9.78196184e-01
 -8.76518806e-01 -7.24999576e-01 -5.27625843e-01 -2.86391280e-01
 -1.29588815e-03  3.17691963e-01  6.60603904e-01  1.01747156e+00
  1.37035187e+00  1.70528912e+00  2.00434023e+00  2.25953051e+00
  2.45690424e+00  2.59446775e+00  2.67222104e+00  2.69614513e+00
  2.67421472e+00  2.62038552e+00  2.54661958e+00  2.46687261e+00
  2.39510035e+00  2.33529012e+00  2.29541664e+00  2.27747358e+00
  2.28146092e+00  2.30139767e+00  2.33728380e+00  2.37915095e+00
  2.42699913e+00  2.47285364e+00  2.51472079e+00  2.54462590e+00
  2.56256897e+00  2.56456264e+00  2.54661958e+00  2.51272712e+00
  2.46089159e+00  2.39709402e+00  2.32532175e+00  2.25554316e+00
  2.19373927e+00  2.15187211e+00  2.13991007e+00  2.16383415e+00
  2.23161907e+00  2.34725217e+00  2.51073344e+00  2.71807555e+00
  2.96329746e+00  3.23842448e+00  3.52750722e+00  3.82257098e+00
  4.10567270e+00  4.37282503e+00  4.61206591e+00  4.82140169e+00
  4.99883868e+00  5.15035791e+00  5.27994673e+00  5.39358615e+00
  5.49326985e+00  5.58497886e+00  5.67070685e+00  5.74447279e+00
  5.80428301e+00  5.84415649e+00  5.85611854e+00  5.83219445e+00
  5.77238422e+00  5.67469420e+00  5.54111803e+00  5.38162411e+00
  5.20219344e+00  5.01678175e+00  4.83336374e+00  4.66190777e+00
  4.50839486e+00  4.38079972e+00  4.27712867e+00  4.19538803e+00
  4.13757149e+00  4.09769800e+00  4.07178024e+00  4.05782452e+00
  4.04984983e+00  4.04785615e+00  4.04785615e+00  4.04785615e+00
  4.04386880e+00  4.03788778e+00  4.02991309e+00  4.01595737e+00
  4.00200165e+00  3.98804593e+00  3.97807756e+00  3.97807756e+00
  3.99402695e+00  4.02791941e+00  4.08772963e+00  4.17545129e+00
  4.29307806e+00  4.43861627e+00  4.60608489e+00  4.79149658e+00
  4.98089562e+00  5.16231996e+00  5.32380756e+00  5.44940903e+00
  5.52317497e+00  5.53912436e+00  5.48728883e+00  5.36766839e+00
  5.18225670e+00  4.94102214e+00  4.65393307e+00  4.34092624e+00
  4.01994472e+00  3.71092523e+00  3.42981719e+00  3.19456365e+00
  3.01712666e+00  2.90348724e+00  2.85364538e+00  2.86760110e+00
  2.93538602e+00  3.04703177e+00  3.19057630e+00  3.35206390e+00
  3.52152620e+00  3.68700115e+00  3.84649507e+00  3.99203328e+00
  4.12560944e+00  4.24921723e+00  4.36285666e+00  4.47051506e+00
  4.57817346e+00  4.68383818e+00  4.79149658e+00  4.90114866e+00
  5.00880706e+00  5.11845913e+00  5.22611753e+00  5.32978858e+00
  5.42947228e+00  5.52317497e+00  5.61488397e+00  5.70061196e+00
  5.78235260e+00  5.85412486e+00  5.91792243e+00  5.96577061e+00
  5.99168837e+00  5.99168837e+00  5.95580224e+00  5.88402997e+00
  5.77039055e+00  5.61488397e+00  5.42548494e+00  5.20817446e+00
  4.97292092e+00  4.73567371e+00  4.50839486e+00  4.30902746e+00
  4.14753986e+00  4.03390043e+00  3.97209654e+00  3.96611552e+00
  4.00997635e+00  4.09570433e+00  4.21133743e+00  4.34690726e+00
  4.49244547e+00  4.63399633e+00  4.76757249e+00  4.88320559e+00
  4.98288929e+00  5.06462993e+00  5.12842750e+00  5.18026303e+00
  5.22013651e+00  5.25203529e+00  5.27795305e+00  5.30387082e+00
  5.32978858e+00  5.35969369e+00  5.39757350e+00  5.44342800e+00
  5.50323823e+00  5.57899784e+00  5.67668787e+00  5.79431464e+00
  5.93586550e+00  6.09934677e+00  6.28077111e+00  6.47415750e+00
  6.66953756e+00  6.85893659e+00  7.03039256e+00  7.17393710e+00
  7.27960182e+00  7.33741837e+00  7.34938042e+00  7.31150061e+00
  7.22975997e+00  7.11213320e+00  6.96858867e+00  6.81308209e+00
  6.65757551e+00  6.51203731e+00  6.38643584e+00  6.28675214e+00
  6.21896722e+00  6.17510639e+00  6.15716332e+00  6.15317597e+00
  6.15915699e+00  6.16513802e+00  6.16314434e+00  6.15118230e+00
  6.12526454e+00  6.08339738e+00  6.02956818e+00  5.96577061e+00
  5.89399834e+00  5.82222608e+00  5.75244748e+00  5.68864991e+00
  5.63482071e+00  5.59295356e+00  5.56902947e+00  5.56105477e+00
  5.57501049e+00  5.60890295e+00  5.66273215e+00  5.73849177e+00
  5.83219445e+00  5.94184652e+00  6.06744799e+00  6.20102415e+00
  6.34058134e+00  6.48611954e+00  6.62966408e+00  6.76922126e+00
  6.90080375e+00  7.02241787e+00  7.13007627e+00  7.22178528e+00
  7.29555122e+00  7.34938042e+00  7.38327288e+00  7.40121594e+00]","[-5.47153061e-01 -5.23431235e-01 -4.85111360e-01 -4.32193439e-01
 -3.66502226e-01 -2.89862477e-01 -2.05923705e-01 -1.20160177e-01
 -3.80461609e-02  3.85935876e-02  1.04284801e-01  1.60852234e-01
  2.08295888e-01  2.48440518e-01  2.84935636e-01  3.19605999e-01
  3.54276361e-01  3.88946724e-01  4.29091354e-01  4.71060740e-01
  5.14854882e-01  5.64123291e-01  6.13391701e-01  6.62660111e-01
  7.11928521e-01  7.59372174e-01  8.03166316e-01  8.39661435e-01
  8.68857529e-01  8.87105089e-01  8.94404112e-01  8.88929845e-01
  8.70682285e-01  8.39661435e-01  7.97692049e-01  7.48423639e-01
  6.90031450e-01  6.27989749e-01  5.60473780e-01  4.92957811e-01
  4.23617086e-01  3.56101117e-01  2.90409904e-01  2.28368203e-01
  1.68151258e-01  1.15233336e-01  7.14391941e-02  3.49440758e-02
  1.30470048e-02  2.09846930e-03  5.74798114e-03  2.21707844e-02
  5.31916350e-02  9.69857769e-02  1.51728454e-01  2.15594911e-01
  2.92234660e-01  3.77998188e-01  4.72885496e-01  5.76896583e-01
  6.91856206e-01  8.14114852e-01  9.43672522e-01  1.07870446e+00
  1.21738591e+00  1.35971687e+00  1.50387259e+00  1.64802831e+00
  1.79400878e+00  1.94181401e+00  2.08961924e+00  2.24107398e+00
  2.39252872e+00  2.54398346e+00  2.69178869e+00  2.83047014e+00
  2.95455354e+00  3.05491512e+00  3.12425584e+00  3.14980242e+00
  3.12425584e+00  3.03666756e+00  2.88521282e+00  2.66441735e+00
  2.37975543e+00  2.03487656e+00  1.64072928e+00  1.21008689e+00
  7.63021686e-01  3.12306975e-01 -1.23809689e-01 -5.25255990e-01
 -8.81083394e-01 -1.17851861e+00 -1.40843785e+00 -1.56354211e+00
 -1.64383137e+00 -1.64930563e+00 -1.58543918e+00 -1.45770626e+00
 -1.27888018e+00 -1.06355899e+00 -8.26340717e-01 -5.81823424e-01
 -3.48254667e-01 -1.40232492e-01  2.94698080e-02  1.53553210e-01
  2.28368203e-01  2.53914786e-01  2.33842471e-01  1.79099793e-01
  9.69857769e-02 -1.55104253e-03 -1.05562130e-01 -2.09573217e-01
 -3.06285281e-01 -3.97523076e-01 -4.83286604e-01 -5.65400621e-01
 -6.45689881e-01 -7.29628653e-01 -8.15392181e-01 -9.06629977e-01
 -9.99692529e-01 -1.09093032e+00 -1.17669385e+00 -1.25333360e+00
 -1.31720006e+00 -1.36646847e+00 -1.40113883e+00 -1.42303590e+00
 -1.43215968e+00 -1.43033492e+00 -1.41573688e+00 -1.39201505e+00
 -1.35551993e+00 -1.30260201e+00 -1.23143653e+00 -1.13837398e+00]",6.481847383964968,1.2533792198621092,5.015865,0.11459999999999937
049,1,2,csp,25b.png,1,1,48,30,50,1,1,317,pos_feedback_onset,2,"[-0.47163533 -0.33760042 -0.19984232 -0.06022263  0.07381228  0.19481601
  0.29720379  0.37352922  0.42006912  0.43310029  0.40889955  0.35305167
  0.26555666  0.15199931  0.02168759 -0.1197937  -0.26127499 -0.39717149
 -0.52003682 -0.62614779 -0.7117812  -0.77507546 -0.81789217 -0.84209292
 -0.8495393  -0.84209292 -0.82533855 -0.79927621 -0.76949068 -0.73412035
 -0.69875003 -0.6652413  -0.63545577 -0.61311662 -0.60008545 -0.60008545
 -0.61870141 -0.65965652 -0.72481237 -0.81789217 -0.93889591 -1.08968518
 -1.26839839 -1.47131234 -1.69284226 -1.92740334 -2.16941081 -2.40955669
 -2.64784097 -2.87495567 -3.0890392  -3.28822997 -3.47625116 -3.64751798
 -3.80947683 -3.9584045  -4.0980242  -4.22833591 -4.34747805 -4.45731221
 -4.55783839 -4.64719499 -4.72352043 -4.79053788 -4.84452416 -4.88734087
 -4.9171264  -4.93760396 -4.94505034 -4.94318875 -4.93015757 -4.90595683
 -4.8743097  -4.83707778 -4.79426107 -4.75144437 -4.71235085 -4.67698053
 -4.65091819 -4.63230223 -4.62299425 -4.62299425 -4.63230223 -4.64905659
 -4.66953414 -4.69931968 -4.73469    -4.77564511 -4.8277698  -4.88920246
 -4.95808151 -5.03626854 -5.12004036 -5.20195058 -5.27827601 -5.34343187
 -5.38624858 -5.40672613 -5.39927975 -5.36390943 -5.30619995 -5.22801292
 -5.14237951 -5.0567461  -4.98228226 -4.92457279 -4.89292566 -4.88920246
 -4.91154162 -4.95808151 -5.02137578 -5.09397802 -5.16285707 -5.22242814
 -5.25966005 -5.27269123 -5.25779846 -5.21312016 -5.14424111 -5.05302291
 -4.94877353 -4.83521618 -4.72165883 -4.60810148 -4.5057137  -4.41077231
 -4.33258528 -4.26742942 -4.21716633 -4.1855192  -4.17062644 -4.17248803
 -4.19110399 -4.22647431 -4.2767374  -4.33630847 -4.40518752 -4.47406657
 -4.53922243 -4.59134712 -4.62485584 -4.63044063 -4.60251669 -4.53549924
 -4.42194189 -4.26184464 -4.0514843  -3.79458406 -3.49486711 -3.15977985
 -2.79863024 -2.42258786 -2.04840708 -1.68725747 -1.35589339 -1.05989964
 -0.8067226  -0.60008545 -0.43440341 -0.3022301  -0.19053434 -0.08442338
  0.02727238  0.15944569  0.32140454  0.51314892  0.73840202  0.98785588
  1.2540641   1.52027231  1.77717255  2.00614885  2.20161642  2.35240569
  2.45665507  2.51436454  2.5311189   2.51064135  2.46223985  2.3933608
  2.31145058  2.22209398  2.13087578  2.03965758  1.95216257  1.87025235
  1.79392692  1.72318627  1.65803041  1.59845934  1.54074987  1.48490199
  1.42719252  1.36389826  1.29129602  1.20380101  1.09769004  0.96737832
  0.80541948  0.6118135   0.3846988   0.12221377 -0.17191838 -0.49397448
 -0.83650813 -1.19207295 -1.55694575 -1.91809536 -2.26993699 -2.60502426
 -2.91591078 -3.19701177 -3.44274243 -3.64937958 -3.81506161 -3.93978854
 -4.02356036 -4.06823866 -4.07568504 -4.05334589 -4.0030828  -3.93420375
 -3.85043194 -3.75735214 -3.65682596 -3.55443818 -3.44460402 -3.32918508
 -3.20259655 -3.06483846 -2.9066028  -2.73161278 -2.53800681 -2.33136966
 -2.11542453 -1.901341   -1.70028864 -1.52529862 -1.38754052 -1.30190711
 -1.27770636 -1.32238467 -1.43966521 -1.63327119 -1.8994794  -2.23270508
 -2.62550182 -3.06670005 -3.54326861 -4.04031472 -4.54294562 -5.03440695
 -5.50352912 -5.93914257 -6.33193931 -6.67819615 -6.9760515  -7.22922855
 -7.43958889 -7.61085571]","[-2.08033316 -1.93437901 -1.77480248 -1.59381933 -1.39142957 -1.16763321
 -0.92632234 -0.66749698 -0.39894135 -0.12260149  0.15373837  0.42424007
  0.68695754  0.93605262  1.16957926  1.38559141  1.582143    1.75923403
  1.9129724   2.04725022  2.15817538  2.24963998  2.31969797  2.37224147
  2.41116257  2.43451524  2.45202974  2.46565212  2.48122057  2.50262717
  2.53571012  2.5843615   2.65052738  2.73809987  2.84513292  2.97162651
  3.11563461  3.26937298  3.43089557  3.59436422  3.7481026   3.88821858
  4.00692796  4.0964465   4.15093605  4.16455844  4.1314755   4.04974117
  3.91935547  3.74031837  3.51457595  3.24796637  2.9502199   2.62522866
  2.28661503  1.94216324  1.59771144  1.26298992  0.94189079  0.6363601
  0.34639785  0.07589616 -0.17903709 -0.41645584 -0.63830615 -0.84264196
 -1.03140933 -1.20071615 -1.35250847 -1.48678628 -1.60549566 -1.70863659
 -1.80010119 -1.88378157 -1.96356984 -2.04335811 -2.12314638 -2.20877282
 -2.30023742 -2.39948624 -2.50846534 -2.62717472 -2.75756043 -2.89767641
 -3.05141478 -3.21488343 -3.39002841 -3.57684973 -3.77145526 -3.97384502
 -4.17818083 -4.38446269 -4.58685245 -4.7853501  -4.97411746 -5.15315456
 -5.32051532 -5.47619974 -5.61826178 -5.74670144 -5.8615187  -5.96271358
 -6.05417818 -6.13396645 -6.20402444 -6.26435216 -6.32078776 -6.37527731
 -6.43171292 -6.49009458 -6.5543144  -6.62826451 -6.71194489 -6.80535554
 -6.90849648 -7.01942163 -7.13813101 -7.2607325  -7.38917215 -7.51955786
 -7.65578173 -7.79589772 -7.93990581 -8.08975207 -8.24154439 -8.39139065
 -8.5373448  -8.67356868 -8.79227805 -8.88568871 -8.94796248 -8.97520725
 -8.95963881 -8.90514926 -8.80979255 -8.6813529  -8.52761453 -8.35830771
 -8.18510878 -8.01774802]",1.348028151053632,2.554051687229962,5.371734999999999,-0.1289800000000012
049,1,2,csm,24a.png,1,1,104,229,105,1,1,338,neu_feedback_onset,3,"[ 0.1940703   0.2674302   0.30966772  0.32522892  0.31855983  0.29632956
  0.26076112  0.22074663  0.17628608  0.1296025   0.0806959   0.02734324
 -0.0326785  -0.0971463  -0.17272923 -0.25720428 -0.35057143 -0.45505372
 -0.56398206 -0.67735646 -0.79517692 -0.9152204  -1.03748691 -1.16197645
 -1.28868901 -1.41984763 -1.55989836 -1.70439515 -1.86000707 -2.02228807
 -2.19123816 -2.36685733 -2.54469952 -2.72254172 -2.89593786 -3.06488795
 -3.22494592 -3.37833482 -3.51838555 -3.64954417 -3.76958765 -3.87629297
 -3.97188315 -4.05191214 -4.11415691 -4.15639443 -4.17640167 -4.16973259
 -4.13638718 -4.07191938 -3.98077526 -3.8629548  -3.72290407 -3.56729215
 -3.40056509 -3.22939198 -3.06266492 -2.90260694 -2.75811016 -2.62917457
 -2.52024622 -2.42687907 -2.34907311 -2.28460531 -2.23347568 -2.18901513
 -2.15344669 -2.12010128 -2.09342495 -2.07119468 -2.05785651 -2.05118743
 -2.05785651 -2.07786376 -2.11120917 -2.15789275 -2.21791449 -2.28460531
 -2.35796522 -2.4291021  -2.49579292 -2.55136861 -2.59582916 -2.62250549
 -2.63362062 -2.62917457 -2.6158364  -2.59582916 -2.57359888 -2.55803769
 -2.55359163 -2.56026072 -2.58249099 -2.61805943 -2.66251998 -2.71364961
 -2.76255621 -2.80479374 -2.83147007 -2.8425852  -2.83369309 -2.80701676
 -2.76033319 -2.70031145 -2.63584365 -2.57137585 -2.51357714 -2.47356265
 -2.45133237 -2.45133237 -2.47356265 -2.5180232  -2.57804494 -2.64918181
 -2.72254172 -2.79590163 -2.8581464  -2.907053   -2.93595236 -2.94262144
 -2.92483722 -2.8825997  -2.81368585 -2.72254172 -2.60694429 -2.47133962
 -2.31795072 -2.14900064 -1.96226633 -1.76441689 -1.55322928 -1.33314956
 -1.10862379 -0.87965196 -0.65512619 -0.43504647 -0.23052795 -0.04157061
  0.1296025   0.27854534  0.4052579   0.51418625  0.60533038  0.68535936
  0.75871927  0.82541009  0.88987789  0.95212266  1.0121444   1.06994311
  1.12107274  1.16553329  1.20110173  1.23000109  1.25000834  1.26779256
  1.28335375  1.30113797  1.32559127  1.35449063  1.39228209  1.43451961
  1.47898016  1.52344071  1.56567823  1.59680062  1.61903089  1.62569998
  1.61680787  1.59457759  1.56123218  1.51677163  1.46341897  1.40784329
  1.35449063  1.303361    1.25890045  1.22555503  1.20110173  1.1899866
  1.1899866   1.20332476  1.22555503  1.25890045  1.30113797  1.35004457
  1.40339723  1.45897292  1.5145486   1.56567823  1.61236181  1.65015328
  1.68127566  1.70350594  1.7168441   1.73018227  1.7412974   1.76130465
  1.78798098  1.8302185   1.88801722  1.95915409  2.04807519  2.14811143
  2.25703977  2.37041417  2.4860116   2.599386    2.70831434  2.81057361
  2.90838682  2.99953094  3.08845204  3.17515011  3.26407121  3.35966139
  3.46192065  3.570849    3.6842234   3.80204385  3.91986431  4.03101568
  4.13327494  4.21774998  4.28666384  4.33334741  4.36002374  4.3644698
  4.35113163  4.32000925  4.27332567  4.21330393  4.13994402  4.05546898
  3.96210183  3.85984257  3.75313725  3.64865496  3.54861872  3.46636671
  3.41079102  3.39078377  3.4174601   3.50193515  3.6442089   3.84872743
  4.11104467  4.42226851  4.77128382  5.14030638  5.50932893  5.86056727
  6.18068323  6.4541156   6.67641835  6.84536843  6.96096586  7.03877182
  7.0854554   7.11657778]","[-6.28000365e-01 -5.99897424e-01 -5.51720954e-01 -4.89493013e-01
 -4.23250366e-01 -3.55000366e-01 -2.90765072e-01 -2.32551837e-01
 -1.76345955e-01 -1.20140073e-01 -6.19268380e-02  6.32316174e-03
  8.66172791e-02  1.80962867e-01  2.89359925e-01  4.09801101e-01
  5.38271689e-01  6.72764336e-01  8.07256982e-01  9.37734923e-01
  1.06018345e+00  1.16858051e+00  1.26493345e+00  1.34522757e+00
  1.40544816e+00  1.44559522e+00  1.46165404e+00  1.45763933e+00
  1.42752904e+00  1.37533786e+00  1.30508051e+00  1.21876433e+00
  1.12642610e+00  1.03208051e+00  9.51786394e-01  8.89558453e-01
  8.59448159e-01  8.65470217e-01  9.13646688e-01  1.00197022e+00
  1.12441875e+00  1.27697757e+00  1.44158051e+00  1.60819080e+00
  1.75874227e+00  1.87918345e+00  1.95747021e+00  1.98557315e+00
  1.95747021e+00  1.87516874e+00  1.74469080e+00  1.57607316e+00
  1.38135992e+00  1.17460257e+00  9.71859923e-01  7.81161394e-01
  6.16558454e-01  4.78051101e-01  3.69654043e-01  2.87352572e-01
  2.23117279e-01  1.70926102e-01  1.16727573e-01  5.85143380e-02
 -1.37503676e-02 -1.02073897e-01 -2.06456249e-01 -3.20875366e-01
 -4.41316542e-01 -5.55735660e-01 -6.58110659e-01 -7.38404777e-01
 -7.94610659e-01 -8.20706247e-01 -8.20706247e-01 -7.96618012e-01
 -7.60485659e-01 -7.16323894e-01 -6.76176836e-01 -6.48073895e-01
 -6.38037130e-01 -6.50081248e-01 -6.86213600e-01 -7.46434188e-01
 -8.28735659e-01 -9.29103305e-01 -1.04552978e+00 -1.16998566e+00
 -1.30247095e+00 -1.44097830e+00 -1.58149301e+00 -1.72401507e+00
 -1.86653713e+00 -2.00905918e+00 -2.14957389e+00 -2.29209595e+00
 -2.43060330e+00 -2.56710330e+00 -2.69958859e+00 -2.82805918e+00
 -2.94850036e+00 -3.06492683e+00 -3.17533124e+00 -3.28172094e+00
 -3.38409594e+00 -3.49048565e+00 -3.60691212e+00 -3.73538271e+00
 -3.88794153e+00 -4.07061065e+00 -4.28740476e+00 -4.54434594e+00
 -4.84143417e+00 -5.17866947e+00 -5.54802241e+00 -5.94347093e+00
 -6.35497829e+00 -6.76849299e+00 -7.17598564e+00 -7.56541210e+00
 -7.93075034e+00 -8.26597828e+00 -8.56908857e+00 -8.84208857e+00
 -9.08297092e+00 -9.29775769e+00 -9.49046357e+00 -9.65908121e+00
 -9.81164004e+00 -9.94211798e+00 -1.00565371e+01 -1.01508827e+01
 -1.02271621e+01 -1.02873827e+01 -1.03295371e+01 -1.03616547e+01
 -1.03837356e+01 -1.04038092e+01 -1.04238827e+01 -1.04479709e+01]",5.183496625285531,1.0229470550626825,4.49837,0.4431049999999992
049,1,2,csm,43a.png,1,1,108,345,108,1,1,328,neu_feedback_onset,4,"[-0.69376552 -0.61429878 -0.54319697 -0.48464253 -0.4407267  -0.40935825
 -0.39053718 -0.37589858 -0.35707751 -0.32989152 -0.28179323 -0.20650895
 -0.09567377  0.05071233  0.23683179  0.45641093  0.70735852  0.97712717
  1.25735198  1.53757679  1.80943667  2.06247549  2.29251078  2.49326885
  2.66474971  2.80486211  2.91569729  2.99516403  3.04535355  3.06626585
  3.05999216  3.02653248  2.96588681  2.88223762  2.77976735  2.66265848
  2.53300222  2.40125474  2.26741602  2.13775977  2.01646844  1.90145079
  1.79479807  1.6923278   1.59194876  1.4894785   1.384917    1.27617305
  1.16324663  1.04404653  0.9227552   0.79937263  0.6780813   0.56306365
  0.45641093  0.36230558  0.28283884  0.22010195  0.17618612  0.15318259
  0.14900013  0.16154751  0.1887335   0.22637564  0.26610901  0.30375114
  0.33302836  0.35184943  0.35184943  0.33930205  0.31420729  0.27865638
  0.24519671  0.22010195  0.21173703  0.22846687  0.27447392  0.35184943
  0.46477585  0.60697948  0.77427787  0.95621487  1.14233434  1.32427134
  1.48738727  1.62331721  1.72369625  1.77806823  1.78434192  1.74251732
  1.65259443  1.52293818  1.36191348  1.1820677   0.99176578  0.80773755
  0.63834793  0.49405306  0.37694419  0.29120376  0.23264933  0.19291596
  0.16572997  0.13854398  0.10299307  0.05280356 -0.01829826 -0.11240361
 -0.22742125 -0.35916874 -0.49718991 -0.63730231 -0.76695857 -0.87988498
 -0.96980787 -1.03045354 -1.05973075 -1.05763952 -1.02627108 -0.96771664
 -0.88615867 -0.7899621  -0.68330937 -0.57456542 -0.47000392 -0.37798981
 -0.30270553 -0.25251601 -0.22742125 -0.22951248 -0.25460724 -0.30270553
 -0.3633512  -0.43027055 -0.49300745 -0.54319697 -0.57456542 -0.58083911
 -0.55783558 -0.50764606 -0.42817932 -0.32361783 -0.20023526 -0.06430532
  0.07789831  0.22010195  0.35184943  0.46895831  0.56306365  0.62580055
  0.65089531  0.64043916  0.58606718  0.49405306  0.36648804  0.2096458
  0.03189126 -0.15422821 -0.34034767 -0.51601098 -0.67076199 -0.79623579
 -0.88615867 -0.94053065 -0.95726049 -0.94262188 -0.90288851 -0.84433407
 -0.77532349 -0.70840413 -0.64984969 -0.60384263 -0.57874788 -0.57456542
 -0.59338649 -0.63311985 -0.68749183 -0.75650242 -0.83178669 -0.9091622
 -0.98653771 -1.05763952 -1.12455888 -1.18311332 -1.23957653 -1.29185727
 -1.34622925 -1.40060123 -1.46333813 -1.53025748 -1.60345053 -1.68291727
 -1.76447523 -1.84812443 -1.92549993 -1.99451052 -2.05097373 -2.09279833
 -2.11789309 -2.12416678 -2.1116194  -2.08234218 -2.03842635 -1.98196314
 -1.91713502 -1.8460332  -1.77074892 -1.69337342 -1.61808914 -1.54489609
 -1.47588551 -1.41314861 -1.3566854  -1.30649588 -1.26885374 -1.24166776
 -1.22702915 -1.23121161 -1.25003268 -1.28976604 -1.34622925 -1.42151353
 -1.51143641 -1.61599791 -1.73101555 -1.85230689 -1.97568945 -2.10116325
 -2.22245458 -2.33956346 -2.45248987 -2.55705137 -2.65533917 -2.74735329
 -2.82891125 -2.90001307 -2.96065874 -3.0066658  -3.03803424 -3.04849039
 -3.04430793 -3.01921317 -2.98157104 -2.93138152 -2.87491831 -2.81636387
 -2.7619919  -2.71389361 -2.68043393 -2.6574304  -2.65115671 -2.65533917
 -2.66997778 -2.69089008 -2.71598484 -2.73689714 -2.75362698 -2.7619919
 -2.75990067 -2.74317083]","[-2.42578131 -2.28524889 -2.11490655 -1.91901287 -1.69756783 -1.45270072
 -1.18867011 -0.90760525 -0.61163545 -0.30288996  0.01650191  0.34228163
  0.67657846  1.01087529  1.3473014   1.67946896  2.00311939  2.31612343
  2.61422252  2.89954593  3.16996439  3.42760717  3.67460355  3.9152121
  4.15369137  4.3964292   4.64342558  4.90106837  5.16509898  5.43551744
  5.7059359   5.97422508  6.23186786  6.47034713  6.6875336   6.87703945
  7.03673539  7.16449214  7.26669754  7.34122231  7.39445429  7.43278132
  7.46046195  7.47962546  7.49240113  7.50091825  7.50304753  7.49027186
  7.46259123  7.40935925  7.32418808  7.20494844  7.04738179  6.84722954
  6.60662099  6.33194398  6.02745706  5.69741878  5.35460483  5.00540305
  4.65833054  4.32403371  4.00677111  3.71293058  3.45102924  3.21893781
  3.02304412  2.86334819  2.74197927  2.6568081   2.6057054   2.58867117
  2.59718829  2.6269982   2.67384234  2.72494504  2.77817702  2.82289188
  2.85270179  2.86334819  2.84844323  2.80585765  2.73559143  2.63977387
  2.52053424  2.38426037  2.23946938  2.09041984  1.94775814  1.82213066
  1.7156667   1.63901265  1.59003923  1.573005    1.58578067  1.62197842
  1.67946896  1.74973517  1.82425994  1.89239688  1.94988741  1.98395588
  1.99034372  1.95840453  1.88600904  1.77102796  1.61133202  1.4090505
  1.17270051  0.90866989  0.62760504  0.34441091  0.06760461 -0.19003817
 -0.41787104 -0.60950617 -0.76281427 -0.87779534 -0.95870795 -1.01406921
 -1.04813768 -1.07581831 -1.10136966 -1.13543813 -1.18228227 -1.24616064
 -1.32494397 -1.41863226 -1.52296694 -1.63368946 -1.74654125 -1.85300521
 -1.95521061 -2.05102818 -2.1404579  -2.22562907 -2.30867096 -2.3959714
 -2.49391825 -2.60038221]",1.7871650764605853,6.208658713808917,4.781875,-0.09268000000000054
049,1,2,csp,40b.png,1,1,32,249,29,1,1,319,pos_feedback_onset,5,"[ 1.71729339  1.5725714   1.41226396  1.23637108  1.04934575  0.85341444
  0.65080365  0.44819287  0.24558208  0.04519779 -0.15296001 -0.34443833
 -0.53146367 -0.71180954 -0.88547592 -1.04800985 -1.19941132 -1.33745383
 -1.4576844  -1.56232953 -1.64916273 -1.72263697 -1.77829927 -1.82060262
 -1.854      -1.87626493 -1.88962388 -1.89185037 -1.88071791 -1.8562265
 -1.81392315 -1.74935487 -1.6580687  -1.54006461 -1.38866315 -1.20609079
 -0.99012105 -0.74298043 -0.4668954  -0.17077195  0.14316344  0.46377831
  0.78661967  1.09832857  1.39445203  1.66831056  1.91545119  2.13587391
  2.32957873  2.49879213  2.65242009  2.79268909  2.92627862  3.05764165
  3.19123118  3.3270472   3.46063673  3.58754678  3.70332438  3.79906354
  3.8658583   3.90148218  3.89702919  3.85472584  3.77457212  3.65879453
  3.51629904  3.35821809  3.19568417  3.04205621  2.91291967  2.819407
  2.77710365  2.7904626   2.86838982  3.00420584  3.19791066  3.43169233
  3.69441841  3.96382396  4.21987055  4.44251977  4.61395966  4.72305778
  4.75868165  4.71860479  4.60950668  4.44029327  4.22432354  3.9794094
  3.72781579  3.48735464  3.27361139  3.1021715   2.98194092  2.91737265
  2.90846668  2.94854354  3.03092375  3.14670134  3.28029087  3.42501286
  3.57196134  3.71000385  3.8369139   3.9526915   4.05288364  4.14194333
  4.21987055  4.29334479  4.36236605  4.42916081  4.49150259  4.5471649
  4.59614772  4.6317716   4.65403652  4.6584895   4.64513055  4.61173317
  4.56275034  4.49818207  4.42248134  4.34232762  4.26440039  4.19092615
  4.13303736  4.09073401  4.07069558  4.07737505  4.10631945  4.15752877
  4.22655003  4.30447725  4.38240448  4.45365223  4.50708804  4.53380594
  4.53157945  4.49372908  4.42025484  4.31338322  4.17311422  4.00390081
  3.81242249  3.60313223  3.37603003  3.13779537  2.88620176  2.62570218
  2.35407014  2.07353213  1.78854114  1.49909716  1.21187967  0.93134166
  0.6663891   0.42370145  0.20995821  0.02961235 -0.11065666 -0.21530179
 -0.27987006 -0.30881446 -0.31104095 -0.29100252 -0.25760514 -0.21975477
 -0.1841309  -0.15963949 -0.15073352 -0.1551865  -0.17522493 -0.20416933
 -0.23534022 -0.26428462 -0.28209655 -0.27987006 -0.25092566 -0.19526336
 -0.10397718  0.01625339  0.16988135  0.35022721  0.55506449  0.7799402
  1.02485433  1.2875804   1.56143894  1.84865642  2.14923286  2.45648878
  2.77487715  3.09771851  3.42278637  3.75008071  4.07514856  4.39353694
  4.70524584  5.01027526  5.30862521  5.60474866  5.90087212  6.20367505
  6.51315746  6.83599882  7.16997264  7.51730541  7.87354415  8.22978289
  8.57711567  8.90663651  9.20721294  9.46771252  9.67700279  9.83285724
  9.9285964   9.96644676  9.94640833  9.87961357  9.77496844  9.6458319
  9.50110991  9.35638792  9.22279839  9.1070208   9.01573462  8.94893986
  8.90218352  8.87101263  8.84652122  8.81980331  8.78417944  8.72851713
  8.65504289  8.56153022  8.45243211  8.33442803  8.21642394  8.10955232
  8.02494562  7.96928331  7.94701839  7.96260384  8.01381316  8.09841986
  8.21419745  8.35001347  8.50364143  8.66617535  8.83316226  8.9934697
  9.14709766  9.28291368  9.39869127  9.49220394  9.55677221  9.59684907
  9.60798153  9.59239608]","[-2.01832827 -1.82581757 -1.63958439 -1.4533512  -1.26502551 -1.07251481
 -0.86744906 -0.65192077 -0.42592994 -0.18738406  0.06162435  0.31481778
  0.57219622  0.82538965  1.07021305  1.30457391  1.52637972  1.72935297
  1.91558615  2.08717178  2.24410985  2.38849288  2.52241337  2.65214885
  2.77769931  2.90324977  3.03298524  3.16690574  3.30710375  3.45567179
  3.61470238  3.78210299  3.95787364  4.1378293   4.32406248  4.50820315
  4.68815881  4.85974444  5.0124975   5.14641799  5.25522839  5.33055867
  5.37031631  5.36822381  5.32637365  5.23848833  5.10875285  4.93716723
  4.73000897  4.49146309  4.22989963  3.9495036   3.66073755  3.36569396
  3.07065038  2.77979182  2.49311827  2.21481475  1.94069624  1.67285526
  1.40919929  1.15600586  0.91118247  0.68100662  0.47175585  0.28761518
  0.13486212  0.02186671 -0.05346357 -0.08485119 -0.07648116 -0.02835348
  0.05116181  0.15997221  0.28761518  0.43199821  0.58265876  0.73331931
  0.87979485  1.01371534  1.13089577  1.22924363  1.3024814   1.34851657
  1.36734914  1.35897911  1.32759149  1.2752788   1.20622605  1.12461825
  1.03254791  0.93001503  0.81701962  0.69146916  0.54917864  0.38387053
  0.19135983 -0.03672351 -0.29619446 -0.59333055 -0.92185425 -1.27758056
 -1.64795442 -2.0246058  -2.39497966 -2.74442844 -3.06667462 -3.35125566
 -3.59398655 -3.79068227 -3.94343533 -4.05433824 -4.12966852 -4.17361118
 -4.19453625 -4.19662876 -4.18825873 -4.17570368 -4.16105613 -4.15059359
 -4.14640858 -4.15059359 -4.16942616 -4.20081378 -4.24894145 -4.31171668
 -4.39332448 -4.48957983 -4.60048274 -4.7260332  -4.85995369 -4.9980592
 -5.13616471 -5.2700852  -5.38935813 -5.4897985  -5.56512878 -5.61534896
 -5.63418153 -5.62371899]",8.246258936582826,3.7737329604484686,4.49137,-0.10217500000000079
049,1,2,csp,45b.png,1,1,8,201,7,1,1,284,pos_feedback_onset,6,"[-4.63332451e-01 -3.91175911e-01 -3.19019371e-01 -2.49049392e-01
 -1.81265976e-01 -1.17855683e-01 -5.88185132e-02 -6.34102930e-03
  3.73902073e-02  6.80020729e-02  9.20542530e-02  1.07360186e-01
  1.18292995e-01  1.27039242e-01  1.37972051e-01  1.55464546e-01
  1.79516726e-01  2.10128592e-01  2.51673266e-01  3.01964188e-01
  3.61001358e-01  4.28784775e-01  5.05314439e-01  5.92776912e-01
  6.95545318e-01  8.11433094e-01  9.46999928e-01  1.10443238e+00
  1.28154389e+00  1.47614789e+00  1.68824439e+00  1.90908713e+00
  2.13211644e+00  2.34858606e+00  2.54974975e+00  2.72686126e+00
  2.87336090e+00  2.98487555e+00  3.05921865e+00  3.09639021e+00
  3.09857677e+00  3.07015146e+00  3.01767398e+00  2.94333088e+00
  2.85805497e+00  2.76621937e+00  2.67001065e+00  2.57380193e+00
  2.47977977e+00  2.38794417e+00  2.29173545e+00  2.19334017e+00
  2.08619864e+00  1.96375118e+00  1.82381122e+00  1.66200565e+00
  1.47614789e+00  1.26623795e+00  1.03446240e+00  7.83007791e-01
  5.20620371e-01  2.53859828e-01 -1.29007148e-02 -2.73101572e-01
 -5.17996497e-01 -7.45398927e-01 -9.50935739e-01 -1.13898006e+00
 -1.30515876e+00 -1.45603152e+00 -1.59159835e+00 -1.71623238e+00
 -1.82993359e+00 -1.93488856e+00 -2.03109728e+00 -2.11855976e+00
 -2.19508942e+00 -2.25849971e+00 -2.31097720e+00 -2.35252187e+00
 -2.38313374e+00 -2.40718592e+00 -2.42467841e+00 -2.44435747e+00
 -2.46403652e+00 -2.49027527e+00 -2.52526026e+00 -2.56680493e+00
 -2.61709585e+00 -2.66957334e+00 -2.72423738e+00 -2.77452830e+00
 -2.81607298e+00 -2.84449828e+00 -2.85543109e+00 -2.84449828e+00
 -2.81169986e+00 -2.75703581e+00 -2.68487927e+00 -2.59741680e+00
 -2.50339464e+00 -2.40281279e+00 -2.30441751e+00 -2.21476848e+00
 -2.13386569e+00 -2.06170915e+00 -2.00048542e+00 -1.94363481e+00
 -1.88897076e+00 -1.83212016e+00 -1.76652330e+00 -1.68999364e+00
 -1.60253116e+00 -1.49976276e+00 -1.39043467e+00 -1.27236033e+00
 -1.15647255e+00 -1.04714446e+00 -9.46562615e-01 -8.63473266e-01
 -7.93503287e-01 -7.38839242e-01 -6.99481129e-01 -6.66682701e-01
 -6.40443960e-01 -6.14205218e-01 -5.85779914e-01 -5.52981486e-01
 -5.15809935e-01 -4.76451822e-01 -4.37093709e-01 -4.04295282e-01
 -3.82429664e-01 -3.71496855e-01 -3.78056540e-01 -4.04295282e-01
 -4.48026519e-01 -5.07063688e-01 -5.79220228e-01 -6.62309578e-01
 -7.49772051e-01 -8.41607648e-01 -9.29070121e-01 -1.01215947e+00
 -1.08431601e+00 -1.14335318e+00 -1.18708442e+00 -1.21332316e+00
 -1.21988284e+00 -1.21113660e+00 -1.18927098e+00 -1.15647255e+00
 -1.12148756e+00 -1.09087570e+00 -1.06682352e+00 -1.05807727e+00
 -1.06463695e+00 -1.08868913e+00 -1.12804725e+00 -1.17833817e+00
 -1.23300221e+00 -1.28766626e+00 -1.33139750e+00 -1.35982280e+00
 -1.36638249e+00 -1.34670343e+00 -1.29859907e+00 -1.21988284e+00
 -1.11055475e+00 -9.74987919e-01 -8.15368906e-01 -6.36070836e-01
 -4.39280271e-01 -2.29370336e-01 -1.29007148e-02  2.07942030e-01
  4.28784775e-01  6.47440957e-01  8.57350893e-01  1.05632802e+00
  1.24437234e+00  1.41492416e+00  1.56798349e+00  1.69917720e+00
  1.80850529e+00  1.89378120e+00  1.95500493e+00  1.99217648e+00
  2.00529585e+00  1.99654961e+00  1.96812430e+00  1.92439307e+00
  1.86754246e+00  1.79975904e+00  1.72760250e+00  1.65544596e+00
  1.58984911e+00  1.53518506e+00  1.50020007e+00  1.48926726e+00
  1.51113288e+00  1.56798349e+00  1.66419221e+00  1.79975904e+00
  1.97687055e+00  2.18459392e+00  2.41855604e+00  2.66782409e+00
  2.92146526e+00  3.16636018e+00  3.39157605e+00  3.58618005e+00
  3.74361251e+00  3.85950028e+00  3.93384339e+00  3.96882837e+00
  3.96664181e+00  3.93602995e+00  3.88136590e+00  3.80702280e+00
  3.71956033e+00  3.62335161e+00  3.52058320e+00  3.41781479e+00
  3.31504639e+00  3.22102423e+00  3.13574832e+00  3.06796490e+00
  3.02423366e+00  3.01330086e+00  3.04391272e+00  3.11825582e+00
  3.24288985e+00  3.41562823e+00  3.63647098e+00  3.89885840e+00
  4.18967112e+00  4.50016290e+00  4.81502780e+00  5.12333302e+00
  5.41195918e+00  5.67216004e+00  5.89300278e+00  6.07448742e+00
  6.21224081e+00  6.30407641e+00  6.35436733e+00  6.36092701e+00
  6.33031515e+00  6.26034517e+00  6.15757676e+00  6.02200993e+00
  5.85801779e+00  5.66560035e+00  5.45131729e+00  5.21735518e+00
  4.97027369e+00  4.71663252e+00  4.46080479e+00  4.21372330e+00]","[-1.74694848 -1.58787287 -1.42680881 -1.26176787 -1.09076158 -0.91180152
 -0.72091079 -0.51808938 -0.30532575 -0.0826199   0.14406285  0.36875715
  0.58549767  0.78831908  0.96926759  1.13033164  1.26554591  1.37888729
  1.47234421  1.54989357  1.61948915  1.68510784  1.75470342  1.83225278
  1.92372126  2.03109729  2.15835778  2.30152583  2.46258989  2.63757306
  2.82051002  3.00742386  3.19234926  3.36932088  3.53237338  3.67554143
  3.79484814  3.8902935   3.95988908  4.00363488  4.02550777  4.02749622
  4.01556555  3.99170421  3.96187753  3.93006241  3.89625884  3.86444372
  3.8326286   3.80280192  3.7709868   3.73718323  3.69940277  3.65366853
  3.59998051  3.53833871  3.4627778   3.37727466  3.2778524   3.16649947
  3.03923898  2.89805938  2.74097221  2.56797748  2.3750983   2.16432312
  1.93366348  1.68510784  1.41865619  1.13828542  0.84797243  0.54771722
  0.24547355 -0.05478166 -0.35105999 -0.63938454 -0.91577841 -1.17427628
 -1.4128897  -1.62764177 -1.81455562 -1.97363123 -2.10089172 -2.19633709
 -2.26195577 -2.29774779 -2.30769001 -2.2937709  -2.25599044 -2.19434864
 -2.11481083 -2.01538858 -1.90005876 -1.77478671 -1.64156089 -1.51231196
 -1.39300525 -1.29358299 -1.22597585 -1.19813762 -1.21802207 -1.29159454
 -1.42084348 -1.60974577 -1.85432452 -2.1486144  -2.48665008 -2.86246621
 -3.26413213 -3.6856825  -4.11319821 -4.54071391 -4.95828739 -5.35796487
 -5.73179255 -6.07380512 -6.38201412 -6.65045421 -6.87514851 -7.05808547
 -7.19926507 -7.30067577 -7.36430602 -7.40009803 -7.41401715 -7.41401715
 -7.4120287  -7.41600559 -7.43589004 -7.47963584 -7.55121986 -7.65064212
 -7.77591416 -7.9230591  -8.08412316 -8.24916411 -8.40823972 -8.55140777
 -8.67071448 -8.76019451]",4.899906156741879,3.2926166049088996,4.573390000000001,0.13529999999999998
049,1,2,csm,5a.png,1,1,228,125,222,1,1,317,neu_feedback_onset,7,"[-0.14975441 -0.08897235 -0.01771063  0.06193482  0.149964    0.23589725
  0.31554271  0.38051663  0.42453122  0.44129868  0.42243529  0.36794103
  0.27781591  0.149964   -0.0093269  -0.19167307 -0.3907867  -0.59618813
 -0.79739769 -0.98603165 -1.15370629 -1.29832566 -1.41360198 -1.50163116
 -1.56031728 -1.60014001 -1.6190034  -1.62738714 -1.62948307 -1.62948307
 -1.631579   -1.64205867 -1.65882613 -1.68607326 -1.72380005 -1.77200651
 -1.83069263 -1.89357062 -1.96273641 -2.02980626 -2.09268425 -2.14717851
 -2.18700123 -2.20796056 -2.21215243 -2.19328903 -2.15346631 -2.09478018
 -2.0193266  -1.93129741 -1.83278857 -1.73008785 -1.62109934 -1.51420676
 -1.40731418 -1.3067094  -1.21239241 -1.12436323 -1.04471778 -0.97555199
 -0.912674   -0.85608381 -0.80578142 -0.76176683 -0.71984817 -0.67792951
 -0.63810679 -0.59828406 -0.55426947 -0.51025488 -0.46414435 -0.41803383
 -0.36982737 -0.32371684 -0.27970225 -0.23987953 -0.2063446  -0.18328934
 -0.16652187 -0.15604221 -0.15394627 -0.15604221 -0.16023407 -0.16442594
 -0.16442594 -0.16023407 -0.15394627 -0.14346661 -0.13089101 -0.12041135
 -0.11202762 -0.10783575 -0.10783575 -0.11621948 -0.12669915 -0.14137068
 -0.16023407 -0.17909747 -0.2000568  -0.22311206 -0.24616732 -0.27131852
 -0.29646972 -0.32371684 -0.34886804 -0.37611517 -0.39917043 -0.41803383
 -0.43270536 -0.44318502 -0.45156875 -0.45785655 -0.46414435 -0.47252808
 -0.48929555 -0.51444674 -0.5500776  -0.59828406 -0.65697018 -0.72613597
 -0.80787735 -0.9000984  -1.00279912 -1.11388356 -1.23544768 -1.36539552
 -1.50372709 -1.64834647 -1.79925364 -1.95435268 -2.11154765 -2.26874262
 -2.42803352 -2.58732443 -2.74242346 -2.89333064 -3.04214188 -3.18256938
 -3.31251723 -3.43408134 -3.53887798 -3.62690717 -3.69607296 -3.74427941
 -3.77152654 -3.77781434 -3.76523874 -3.73799161 -3.70026482 -3.65834616
 -3.6164275  -3.58079664 -3.55354951 -3.54306985 -3.54516578 -3.55983731
 -3.58918037 -3.62481124 -3.66463396 -3.70236075 -3.73589568 -3.75685501
 -3.76733468 -3.76104688 -3.74008755 -3.70445669 -3.65625023 -3.59337224
 -3.51582272 -3.42779354 -3.32299689 -3.20352871 -3.06519714 -2.90590623
 -2.725656   -2.5223505  -2.30018161 -2.05705339 -1.79715771 -1.52887829
 -1.25221514 -0.97345606 -0.69679291 -0.42641756 -0.16023407  0.09756568
  0.35117357  0.59849365  0.84371781  1.0847501   1.32368645  1.56262281
  1.79946323  2.03420772  2.26685628  2.49321704  2.71748186  2.93336296
  3.14505218  3.34835768  3.54327944  3.72981748  3.90587584  4.07145455
  4.22445765  4.36069329  4.48016147  4.57867032  4.65621984  4.71281003
  4.74424902  4.75263275  4.73796122  4.70233036  4.64783611  4.57447845
  4.4885452   4.39213229  4.28943157  4.18044306  4.07145455  3.96246603
  3.85347752  3.74658494  3.64178829  3.53699164  3.432195    3.32530242
  3.21840984  3.10732539  2.99414501  2.88096463  2.76778425  2.65669981
  2.55190316  2.45758618  2.37374886  2.30458307  2.25218475  2.21655389
  2.19559456  2.18721083  2.18930676  2.19978642  2.20817016  2.21236202
  2.20397829  2.17673116  2.12642877  2.04887925  1.93779481  1.79527137
  1.619213    1.41381157  1.18325895  0.93174699  0.66765944  0.39518816
  0.12271687 -0.14765848]","[-2.04823751 -1.83270095 -1.60649427 -1.36961745 -1.12847259 -0.88305968
 -0.64191482 -0.40717203 -0.18096535  0.03457121  0.23730362  0.4293659
  0.60862402  0.77721202  0.93726392  1.09304777  1.24883162  1.4067495
  1.57320347  1.7524616   1.9466579   2.16432849  2.40333932  2.66155639
  2.94111371  3.23347517  3.53223872  3.82673422  4.10842556  4.36664262
  4.59284931  4.77637549  4.91722116  5.00685022  5.04953073  5.04526268
  5.00044815  4.91935518  4.81051989  4.68034435  4.53736465  4.38584885
  4.23219903  4.08281725  3.94197158  3.81393006  3.69655867  3.5898574
  3.49809432  3.41059928  3.32950631  3.24627933  3.15665026  3.05635107
  2.94324773  2.81520621  2.67222651  2.51217461  2.34145259  2.16219446
  1.97866828  1.79300808  1.6094819   1.43022377  1.25736772  1.09091375
  0.93086185  0.77934605  0.6320983   0.49338666  0.36107709  0.23730362
  0.12420027  0.02176706 -0.06999603 -0.14468692 -0.20443963 -0.24498611
 -0.26846039 -0.27272844 -0.25992428 -0.23004793 -0.1852334  -0.12974874
 -0.06999603 -0.01024332  0.04310731  0.08365379  0.10499405  0.10499405
  0.07511769  0.01536498 -0.07426408 -0.19803755 -0.35168737 -0.53521355
 -0.74648206 -0.98122485 -1.23517386 -1.51046313 -1.79855655 -2.09945412
 -2.40888779 -2.72258951 -3.04055929 -3.35639503 -3.66582871 -3.96672628
 -4.2548197  -4.52157286 -4.76698577 -4.98679038 -5.17671864 -5.33677054
 -5.46908011 -5.57364735 -5.65474031 -5.71662704 -5.7635756  -5.80198806
 -5.83399844 -5.86600882 -5.8980192  -5.93429763 -5.96844203 -6.00472046
 -6.03673084 -6.06447317 -6.08154538 -6.08581343 -6.07727733 -6.05166902
 -6.01112254 -5.95563788 -5.88521505 -5.80198806 -5.71022497 -5.61419383
 -5.51176061 -5.4093274 ]",3.7241060583989833,3.4993213799461413,4.771145,-0.14025000000000087
049,1,2,csm,31a.png,1,1,44,123,47,1,1,550,neu_feedback_onset,8,"[ 2.43808610e-01  7.39419556e-02 -6.09521526e-02 -1.63371753e-01
 -2.30818807e-01 -2.65791354e-01 -2.70787432e-01 -2.48305081e-01
 -2.00842339e-01 -1.35893324e-01 -6.09521526e-02  1.89850967e-02
  9.89223460e-02  1.66369400e-01  2.18828220e-01  2.46306649e-01
  2.43808610e-01  2.03839986e-01  1.23902736e-01 -9.99215616e-04
 -1.70865870e-01 -3.85697228e-01 -6.40497210e-01 -9.35265816e-01
 -1.26001089e+00 -1.60723832e+00 -1.96945398e+00 -2.33416768e+00
 -2.69638334e+00 -3.04361077e+00 -3.36835584e+00 -3.66312445e+00
 -3.92541855e+00 -4.14524598e+00 -4.32760283e+00 -4.46499498e+00
 -4.55992046e+00 -4.61487732e+00 -4.62986556e+00 -4.60488517e+00
 -4.54493223e+00 -4.44750871e+00 -4.31761068e+00 -4.15773618e+00
 -3.96788521e+00 -3.75305385e+00 -3.51574014e+00 -3.25844212e+00
 -2.98615587e+00 -2.70637550e+00 -2.41910101e+00 -2.12932848e+00
 -1.84205399e+00 -1.55228146e+00 -1.26250893e+00 -9.67740324e-01
 -6.67975639e-01 -3.58218798e-01 -3.34737231e-02  3.06259586e-01
  6.60981130e-01  1.03069091e+00  1.41289088e+00  1.79758889e+00
  2.18228690e+00  2.55699276e+00  2.91671038e+00  3.25894173e+00
  3.57619269e+00  3.87096130e+00  4.14574559e+00  4.40054557e+00
  4.64785144e+00  4.89016122e+00  5.13496905e+00  5.38976903e+00
  5.65456117e+00  5.93184350e+00  6.21911799e+00  6.51138856e+00
  6.79616501e+00  7.06595323e+00  7.31325909e+00  7.52559241e+00
  7.69795710e+00  7.83285121e+00  7.92777670e+00  7.99272571e+00
  8.04018845e+00  8.08015708e+00  8.13511394e+00  8.21505118e+00
  8.33995314e+00  8.51731391e+00  8.75712566e+00  9.06438446e+00
  9.42909816e+00  9.85126676e+00  1.03134040e+01  1.08030196e+01
  1.13051255e+01  1.17997372e+01  1.22718666e+01  1.27090234e+01
  1.31037136e+01  1.34509410e+01  1.37482077e+01  1.40055057e+01
  1.42278312e+01  1.44301723e+01  1.46275174e+01  1.48298586e+01
  1.50496860e+01  1.52944938e+01  1.55692781e+01  1.58690428e+01
  1.61912898e+01  1.65235290e+01  1.68532702e+01  1.71680231e+01
  1.74527996e+01  1.76976074e+01  1.78924544e+01  1.80348426e+01
  1.81172779e+01  1.81472544e+01  1.81272701e+01  1.80673172e+01
  1.79723917e+01  1.78524858e+01  1.77150937e+01  1.75702074e+01
  1.74203250e+01  1.72729407e+01  1.71280545e+01  1.69856663e+01
  1.68507721e+01  1.67183761e+01  1.65934741e+01  1.64710702e+01
  1.63586585e+01  1.62537408e+01  1.61588153e+01  1.60788781e+01
  1.60164271e+01  1.59789565e+01  1.59639683e+01  1.59789565e+01
  1.60239212e+01  1.60988624e+01  1.62037800e+01  1.63361761e+01
  1.64935526e+01  1.66659173e+01  1.68557682e+01  1.70531133e+01
  1.72554545e+01  1.74552976e+01  1.76476466e+01  1.78325015e+01
  1.79998701e+01  1.81497524e+01  1.82771524e+01  1.83745760e+01
  1.84445211e+01  1.84819916e+01  1.84919838e+01  1.84769956e+01
  1.84420230e+01  1.83995563e+01  1.83620858e+01  1.83371054e+01
  1.83421015e+01  1.83870662e+01  1.84794936e+01  1.86218818e+01
  1.88142308e+01  1.90490465e+01  1.93163367e+01  1.96061092e+01
  1.98983798e+01  2.01831562e+01  2.04504464e+01  2.06952542e+01
  2.09075875e+01  2.10949405e+01  2.12548150e+01  2.13897091e+01
  2.15071169e+01  2.16070385e+01  2.16894738e+01  2.17519247e+01
  2.17918934e+01  2.18068816e+01  2.17918934e+01  2.17494267e+01
  2.16769836e+01  2.15820581e+01  2.14746424e+01  2.13647287e+01
  2.12673052e+01  2.11923640e+01  2.11498973e+01  2.11473993e+01
  2.11823718e+01  2.12523169e+01  2.13422463e+01  2.14396699e+01
  2.15271012e+01  2.15920502e+01  2.16170306e+01  2.15945483e+01
  2.15246032e+01  2.14096934e+01  2.12573130e+01  2.10899444e+01
  2.09200777e+01  2.07701954e+01  2.06602817e+01  2.06078229e+01
  2.06253091e+01  2.07177366e+01  2.08876032e+01  2.11299130e+01
  2.14371718e+01  2.17943914e+01  2.21840855e+01  2.25837717e+01
  2.29709678e+01  2.33206933e+01  2.36104658e+01  2.38227991e+01
  2.39377089e+01  2.39477011e+01  2.38477795e+01  2.36479364e+01
  2.33556658e+01  2.29909521e+01  2.25787757e+01  2.21466149e+01
  2.17169522e+01  2.13172659e+01  2.09675405e+01  2.06802660e+01
  2.04679327e+01  2.03305405e+01  2.02680895e+01  2.02780817e+01
  2.03505248e+01  2.04829209e+01  2.06627797e+01  2.08901013e+01
  2.11548934e+01  2.14546581e+01  2.17868973e+01  2.21441169e+01
  2.25288149e+01  2.29334972e+01  2.33581638e+01  2.37978187e+01]","[-1.38508406 -1.38715785 -1.37056753 -1.33116553 -1.26480427 -1.17148373
 -1.04913015 -0.89774351 -0.71732382 -0.51201865 -0.281828   -0.02675189
  0.25320971  0.5539092   0.87742037  1.21752186  1.57213988  1.93712685
  2.30833518  2.67539594  3.03416154  3.3804844   3.70399557  4.00469506
  4.27843528  4.52521624  4.74503794  4.94204795  5.11624627  5.27385428
  5.41487197  5.54344693  5.66372672  5.77363757  5.87525326  5.97064758
  6.05982053  6.14484591  6.23194507  6.31904423  6.41236476  6.51605424
  6.62596509  6.74624489  6.87274605  6.99924721  7.1216008   7.23358544
  7.32483218  7.39119345  7.42437408  7.42437408  7.38911966  7.32483218
  7.22943786  7.11537943  6.98680448  6.84786057  6.70684288  6.5637514
  6.4248075   6.2858636   6.15106728  6.01627095  5.887696    5.76326862
  5.64713641  5.53929935  5.44390503  5.36095345  5.28629702  5.21371439
  5.13698417  5.04573743  4.92960521  4.77614478  4.57913477  4.33235381
  4.03787569  3.69984799  3.33071345  2.94291479  2.55511614  2.18390781
  1.85002769  1.56591851  1.34194924  1.18434123  1.09516828  1.06613522
  1.0910207   1.15738197  1.24862871  1.35231819  1.45186009  1.53895925
  1.59909915  1.63020599  1.62398462  1.58458262  1.51199998  1.41038429
  1.28803071  1.14908681  0.99977396  0.85046111  0.70322205  0.56635193
  0.44192456  0.33616129  0.24906213  0.18270086  0.14122507  0.12670854
  0.1350037   0.16818434  0.22417665  0.29883308  0.38593224  0.48340035
  0.58086846  0.6721152   0.75091921  0.81105911  0.84423974  0.84631353
  0.81935426  0.75921437  0.66796762  0.54976162  0.41081772  0.2552835
  0.09145412 -0.07652284 -0.24035221 -0.39588643 -0.53690412 -0.65718392
 -0.75050445 -0.81686572]",21.695531507766397,6.444352967281839,4.00314,-0.6433100000000005
049,1,2,csp,59b.png,1,1,304,346,306,1,1,254,pos_feedback_onset,9,"[-7.03666199e-01 -4.75106355e-01 -2.72383710e-01 -1.03448173e-01
  2.97127798e-02  1.27099148e-01  1.86723456e-01  2.14548132e-01
  2.12560655e-01  1.90698409e-01  1.52936348e-01  1.09211856e-01
  6.54873641e-02  2.97127798e-02  7.85053379e-03 -9.93738454e-05
  9.83801069e-03  3.36877336e-02  7.14497948e-02  1.13186810e-01
  1.54923825e-01  1.88710932e-01  2.12560655e-01  2.16535609e-01
  2.00635794e-01  1.60886256e-01  1.01261948e-01  2.17628721e-02
 -7.36360194e-02 -1.76984819e-01 -2.84308572e-01 -3.87657371e-01
 -4.83056262e-01 -5.60567862e-01 -6.22179646e-01 -6.59941707e-01
 -6.75841523e-01 -6.69879092e-01 -6.46029369e-01 -6.08267308e-01
 -5.60567862e-01 -5.10880939e-01 -4.61194017e-01 -4.21444478e-01
 -3.93619802e-01 -3.83682417e-01 -3.91632325e-01 -4.21444478e-01
 -4.71131401e-01 -5.40693093e-01 -6.26154600e-01 -7.23540968e-01
 -8.24902291e-01 -9.24276136e-01 -1.01768755e+00 -1.09519915e+00
 -1.15283598e+00 -1.18861056e+00 -1.19854795e+00 -1.18662309e+00
 -1.15084850e+00 -1.09718663e+00 -1.03159989e+00 -9.58063244e-01
 -8.82539121e-01 -8.10989952e-01 -7.45403214e-01 -6.89753861e-01
 -6.44041892e-01 -6.10254785e-01 -5.86405062e-01 -5.70505246e-01
 -5.60567862e-01 -5.58580385e-01 -5.60567862e-01 -5.66530293e-01
 -5.78455154e-01 -5.98329923e-01 -6.26154600e-01 -6.69879092e-01
 -7.29503399e-01 -8.09002475e-01 -9.12351275e-01 -1.04153727e+00
 -1.19854795e+00 -1.38139582e+00 -1.59206838e+00 -1.82460318e+00
 -2.07900022e+00 -2.35128456e+00 -2.63549375e+00 -2.92765286e+00
 -3.22577440e+00 -3.52389593e+00 -3.81605504e+00 -4.10026424e+00
 -4.36459866e+00 -4.60707085e+00 -4.81774340e+00 -4.98866641e+00
 -5.11785241e+00 -5.19735149e+00 -5.22716364e+00 -5.21126383e+00
 -5.15362700e+00 -5.06419054e+00 -4.95289183e+00 -4.83165574e+00
 -4.71439460e+00 -4.61104580e+00 -4.52757177e+00 -4.46794746e+00
 -4.43416036e+00 -4.42024802e+00 -4.41826054e+00 -4.41826054e+00
 -4.41229811e+00 -4.39043586e+00 -4.34273642e+00 -4.26721230e+00
 -4.15988854e+00 -4.02275264e+00 -3.86375448e+00 -3.68686904e+00
 -3.50004621e+00 -3.31322338e+00 -3.13633793e+00 -2.97535231e+00
 -2.83821640e+00 -2.72493021e+00 -2.63946871e+00 -2.57984440e+00
 -2.54208234e+00 -2.52419505e+00 -2.51624514e+00 -2.51624514e+00
 -2.51227019e+00 -2.50034532e+00 -2.47649560e+00 -2.43674606e+00
 -2.37910923e+00 -2.30756006e+00 -2.22209856e+00 -2.13266210e+00
 -2.04521311e+00 -1.96571404e+00 -1.90211477e+00 -1.86236524e+00
 -1.85044038e+00 -1.86832767e+00 -1.91602711e+00 -1.99552619e+00
 -2.09887499e+00 -2.22607351e+00 -2.36718437e+00 -2.52220757e+00
 -2.68518068e+00 -2.85411621e+00 -3.02901418e+00 -3.20589963e+00
 -3.39073498e+00 -3.57954529e+00 -3.77630550e+00 -3.97902814e+00
 -4.18572574e+00 -4.39639829e+00 -4.60309589e+00 -4.80383106e+00
 -4.99462884e+00 -5.16753933e+00 -5.32057506e+00 -5.45373601e+00
 -5.56304724e+00 -5.65248370e+00 -5.72602035e+00 -5.78564465e+00
 -5.83930653e+00 -5.89098093e+00 -5.94464281e+00 -6.00625459e+00
 -6.07780376e+00 -6.15929031e+00 -6.25270173e+00 -6.35406305e+00
 -6.46138680e+00 -6.57069803e+00 -6.67802178e+00 -6.77938311e+00
 -6.87279452e+00 -6.95428107e+00 -7.02583024e+00 -7.08346707e+00
 -7.13116652e+00 -7.16694110e+00 -7.19277830e+00 -7.21265307e+00
 -7.22656541e+00 -7.23451532e+00 -7.24047775e+00 -7.24047775e+00
 -7.23849027e+00 -7.23054037e+00 -7.22060298e+00 -7.20669064e+00
 -7.19079083e+00 -7.17489101e+00 -7.15899120e+00 -7.14905381e+00
 -7.14706634e+00 -7.15899120e+00 -7.18681587e+00 -7.23650280e+00
 -7.30407701e+00 -7.39550095e+00 -7.50679966e+00 -7.63399818e+00
 -7.77312156e+00 -7.91820738e+00 -8.06329319e+00 -8.20241657e+00
 -8.32961510e+00 -8.44091380e+00 -8.53631269e+00 -8.61382429e+00
 -8.67543608e+00 -8.72313552e+00 -8.76288506e+00 -8.79865965e+00
 -8.83443423e+00 -8.87418377e+00 -8.92188321e+00 -8.97554509e+00
 -9.03914435e+00 -9.10671857e+00 -9.17826774e+00 -9.25180438e+00
 -9.32534103e+00 -9.39689019e+00 -9.46446441e+00 -9.53005115e+00
 -9.59365041e+00 -9.65724967e+00 -9.72283641e+00 -9.79438558e+00
 -9.87189718e+00 -9.95934616e+00 -1.00547451e+01 -1.01580939e+01
 -1.02674051e+01 -1.03787038e+01 -1.04900025e+01 -1.05973262e+01
 -1.06947126e+01 -1.07801741e+01 -1.08457609e+01 -1.08874979e+01
 -1.09053852e+01 -1.08934603e+01 -1.08517233e+01 -1.07821616e+01]","[-0.03247109 -0.17459379 -0.31671649 -0.44304778 -0.54569195 -0.62070116
 -0.66017969 -0.66412754 -0.63649257 -0.57530085 -0.48450024 -0.36409073
 -0.21209839 -0.02654931  0.19453045  0.45508873  0.75117769  1.08477126
  1.44599979  1.82499366  2.20990931  2.58100747  2.92644459  3.22845533
  3.47717006  3.666667    3.79497221  3.86603356  3.88972068  3.87985105
  3.84826823  3.81076362  3.77720687  3.75351976  3.74365013  3.74759798
  3.76141546  3.77523295  3.78115473  3.77325902  3.74562405  3.69232804
  3.61139706  3.50480503  3.37847374  3.23437711  3.07843693  2.91854889
  2.75866085  2.60272066  2.45467618  2.31650133  2.18819612  2.06976053
  1.95922065  1.85262863  1.74998446  1.64339243  1.53285255  1.41244304
  1.2821639   1.13411942  0.97028352  0.79065622  0.59326358  0.38205346
  0.15899977 -0.06997569 -0.30092508 -0.52990054 -0.75295423 -0.96613828
 -1.16747877 -1.35697571 -1.53462908 -1.70241283 -1.86230087 -2.0142932
 -2.16431161 -2.31433001 -2.46632235 -2.62226253 -2.7841245  -2.95388217
 -3.12956162 -3.3151107  -3.50855549 -3.70792206 -3.91518433 -4.12836838
 -4.34550029 -4.5705279  -4.79950336 -5.03242668 -5.26929784 -5.50616901
 -5.74304018 -5.97793742 -6.20691289 -6.42799265 -6.6411767  -6.84646504
 -7.04188376 -7.22743284 -7.40311229 -7.56892211 -7.72288837 -7.86501107
 -7.99529021 -8.10977794 -8.20847426 -8.2933531  -8.3604666  -8.41376261
 -8.45521506 -8.48482396 -8.50456322 -8.52035464 -8.53219819 -8.53811997
 -8.54404175 -8.54601568 -8.54404175 -8.53614605 -8.52035464 -8.49469359
 -8.46113684 -8.41968439 -8.37033623 -8.31506629 -8.2558485  -8.19465678
 -8.13543899 -8.07819512 -8.02489911 -7.9794988  -7.9419942  -7.91633316
 -7.90054174 -7.90054174]",-0.11681395526782376,2.5478455086758833,5.031504999999998,0.11757000000000062
049,1,2,csm,36a.png,1,1,348,267,347,1,1,403,neu_feedback_onset,10,"[ 1.38225902e+00  1.21123559e+00  1.04237701e+00  8.75683282e-01
  7.15484115e-01  5.61779510e-01  4.10239758e-01  2.67359420e-01
  1.28808789e-01 -3.24728040e-03 -1.30973643e-01 -2.54370298e-01
 -3.73437246e-01 -4.90339341e-01 -6.02911728e-01 -7.15484115e-01
 -8.30221356e-01 -9.44958597e-01 -1.06186069e+00 -1.18742220e+00
 -1.32164312e+00 -1.46885317e+00 -1.62905234e+00 -1.80873518e+00
 -2.00790172e+00 -2.22871678e+00 -2.46685068e+00 -2.72230340e+00
 -2.99507496e+00 -3.27434107e+00 -3.56226660e+00 -3.84802728e+00
 -4.12729339e+00 -4.39790009e+00 -4.65335282e+00 -4.89148671e+00
 -5.11013693e+00 -5.30930346e+00 -5.48898631e+00 -5.65135033e+00
 -5.79856037e+00 -5.93494615e+00 -6.06050766e+00 -6.18173946e+00
 -6.29864155e+00 -6.41770850e+00 -6.53894030e+00 -6.66233696e+00
 -6.79006332e+00 -6.91995454e+00 -7.05201061e+00 -7.18190182e+00
 -7.30962819e+00 -7.43085999e+00 -7.54343238e+00 -7.64518049e+00
 -7.73610435e+00 -7.81620393e+00 -7.88980895e+00 -7.95475456e+00
 -8.01537046e+00 -8.07815122e+00 -8.14526168e+00 -8.21670185e+00
 -8.30113114e+00 -8.39421984e+00 -8.49813281e+00 -8.60854035e+00
 -8.72111273e+00 -8.83152027e+00 -8.93326839e+00 -9.01553282e+00
 -9.07181902e+00 -9.09346755e+00 -9.07614873e+00 -9.01553282e+00
 -8.90945500e+00 -8.75575039e+00 -8.55874871e+00 -8.32494453e+00
 -8.05866753e+00 -7.76641230e+00 -7.45900308e+00 -7.14293446e+00
 -6.82686583e+00 -6.52162148e+00 -6.22720139e+00 -5.95442983e+00
 -5.70547167e+00 -5.48682145e+00 -5.29414948e+00 -5.13611517e+00
 -5.00838881e+00 -4.91097040e+00 -4.84169508e+00 -4.80056286e+00
 -4.77891433e+00 -4.77458462e+00 -4.77891433e+00 -4.78540889e+00
 -4.78757374e+00 -4.77674947e+00 -4.74644152e+00 -4.69232018e+00
 -4.61005574e+00 -4.49531850e+00 -4.35027331e+00 -4.17492017e+00
 -3.97142393e+00 -3.74411430e+00 -3.49948585e+00 -3.23970342e+00
 -2.97126157e+00 -2.69849001e+00 -2.42571846e+00 -2.15727661e+00
 -1.89749418e+00 -1.64853602e+00 -1.41256698e+00 -1.19608161e+00
 -9.94750230e-01 -8.17232235e-01 -6.61362775e-01 -5.29306706e-01
 -4.21064026e-01 -3.38799589e-01 -2.78183688e-01 -2.41381177e-01
 -2.24062348e-01 -2.21897494e-01 -2.34886616e-01 -2.56535152e-01
 -2.82513395e-01 -3.10656492e-01 -3.34469881e-01 -3.53953564e-01
 -3.66942686e-01 -3.71272393e-01 -3.64777832e-01 -3.47459003e-01
 -3.21480760e-01 -2.89007956e-01 -2.50040591e-01 -2.06743519e-01
 -1.61281593e-01 -1.17984521e-01 -7.68523029e-02 -4.00497916e-02
 -9.74184121e-03  1.40715484e-02  3.35552308e-02  4.87092060e-02
  6.38631813e-02  8.11820101e-02  1.00665692e-01  1.24479082e-01
  1.54787033e-01  1.87259837e-01  2.19732641e-01  2.47875737e-01
  2.67359420e-01  2.73853981e-01  2.60864859e-01  2.28392055e-01
  1.72105861e-01  1.00665692e-01  1.40715484e-02 -7.90171565e-02
 -1.72105861e-01 -2.58700005e-01 -3.30140174e-01 -3.79931807e-01
 -4.10239758e-01 -4.16734318e-01 -4.03745197e-01 -3.73437246e-01
 -3.30140174e-01 -2.80348541e-01 -2.28392055e-01 -1.78600422e-01
 -1.39633057e-01 -1.09325107e-01 -9.20062781e-02 -8.98414245e-02
 -9.85008389e-02 -1.20149375e-01 -1.52622179e-01 -1.87259837e-01
 -2.26227201e-01 -2.60864859e-01 -2.86843102e-01 -3.06326785e-01
 -3.14986199e-01 -3.12821345e-01 -3.01997077e-01 -2.84678249e-01
 -2.67359420e-01 -2.54370298e-01 -2.50040591e-01 -2.54370298e-01
 -2.69524273e-01 -2.95502517e-01 -3.30140174e-01 -3.66942686e-01
 -4.05910050e-01 -4.42712562e-01 -4.73020512e-01 -4.98998755e-01
 -5.20647291e-01 -5.40130974e-01 -5.61779510e-01 -5.87757753e-01
 -6.24560264e-01 -6.72187043e-01 -7.32802944e-01 -8.08572820e-01
 -8.93002111e-01 -9.88255669e-01 -1.08783893e+00 -1.18742220e+00
 -1.28484061e+00 -1.37576446e+00 -1.45586405e+00 -1.52513936e+00
 -1.58142556e+00 -1.62255777e+00 -1.65070087e+00 -1.66585485e+00
 -1.67018455e+00 -1.66368999e+00 -1.64853602e+00 -1.63121719e+00
 -1.60956865e+00 -1.59008497e+00 -1.57709585e+00 -1.56843643e+00
 -1.57060129e+00 -1.58359041e+00 -1.60307409e+00 -1.63338204e+00
 -1.67018455e+00 -1.70698706e+00 -1.74378958e+00 -1.77409753e+00
 -1.79574606e+00 -1.80440548e+00 -1.80007577e+00 -1.78059209e+00
 -1.74378958e+00 -1.68966824e+00 -1.62255777e+00 -1.54029334e+00
 -1.44720463e+00 -1.34329166e+00 -1.22855442e+00 -1.10948747e+00
 -9.83925962e-01 -8.54034746e-01 -7.26308383e-01 -5.98582021e-01]","[-2.11917238 -2.01084544 -1.87278169 -1.70285707 -1.50319564 -1.27592147
 -1.0231586  -0.74915516 -0.46240736 -0.1692874   0.12595662  0.41482847
  0.69520409  0.96283536  1.21772229  1.45986487  1.6892631   1.90804105
  2.11195059  2.30311578  2.47516446  2.62597255  2.74491978  2.82563398
  2.86386702  2.84899861  2.78102877  2.65995748  2.49003286  2.27550303
  2.02698828  1.75298483  1.46411298  1.17099302  0.87999711  0.59962149
  0.33199022  0.08135141 -0.15229494 -0.36470071 -0.55798996 -0.73003864
 -0.88509485 -1.01891049 -1.1336096  -1.2291922  -1.30990639 -1.37362812
 -1.42460551 -1.46708666 -1.50107159 -1.5308084  -1.55629709 -1.57966172
 -1.6009023  -1.61789476 -1.63488722 -1.64763157 -1.66037592 -1.6709962
 -1.68161649 -1.6964849  -1.71347736 -1.73684199 -1.76445474 -1.79631561
 -1.83667271 -1.88127792 -1.9322553  -1.99172892 -2.05969877 -2.1382889
 -2.2338715  -2.3443225  -2.47176596 -2.61620189 -2.77550622 -2.94543083
 -3.11747951 -3.28528007 -3.44033628 -3.57627597 -3.68460292 -3.761069
 -3.80355015 -3.80779827 -3.77806146 -3.71433973 -3.6251293  -3.51255424
 -3.38298672 -3.24704703 -3.10685922 -2.97304358 -2.84984824 -2.74364535
 -2.66293116 -2.60982971 -2.59071319 -2.60770566 -2.6608071  -2.75214158
 -2.87958504 -3.04101343 -3.23642674 -3.4594528  -3.70796755 -3.97559882
 -4.25597444 -4.54272223 -4.82947003 -5.10772159 -5.3732288  -5.61749544
 -5.83414933 -6.01894235 -6.16975044 -6.2823255  -6.35666752 -6.39490056
 -6.39702462 -6.36728781 -6.30993825 -6.23134812 -6.13151741 -6.01894235
 -5.89999511 -5.77892382 -5.65997659 -5.54952559 -5.44969488 -5.36473257
 -5.30101084 -5.25852968 -5.23728911 -5.23941317 -5.26065374 -5.29888678
 -5.35411228 -5.41783401]",-1.942890293094024e-15,0.9723936218795037,4.61925,0.07914499999999958
049,1,2,csp,37b.png,1,1,124,288,123,1,0,324,neg_feedback_onset,11,"[ 2.14387984  1.90800352  1.66740968  1.42445707  1.18622199  0.95034568
  0.71918689  0.49510439  0.27573941  0.06109197 -0.14647919 -0.35405035
 -0.55926274 -0.76447514 -0.9720463  -1.17961746 -1.39190614 -1.60419482
 -1.82120104 -2.03820725 -2.25521346 -2.4698609  -2.68214959 -2.89207951
 -3.0972919  -3.29778677 -3.49592288 -3.68698269 -3.87568375 -4.05966727
 -4.23893327 -4.41112298 -4.5762364  -4.72955601 -4.8710818  -4.99609625
 -5.10224059 -5.18715606 -5.24612514 -5.27914783 -5.28386535 -5.25791896
 -5.20130864 -5.11167564 -4.98901996 -4.83570035 -4.64935806 -4.43471062
 -4.19647554 -3.93465283 -3.6610363  -3.37798472 -3.09257438 -2.81424032
 -2.55005885 -2.30238872 -2.07358869 -1.86365877 -1.67731648 -1.50512677
 -1.34473088 -1.19141127 -1.04045043 -0.88948959 -0.73381122 -0.57813285
 -0.42009572 -0.26205859 -0.10873898  0.03750433  0.17195383  0.29225076
  0.40075386  0.49746315  0.58709615  0.66965286  0.75456833  0.84420133
  0.94326939  1.05413126  1.1791457   1.32067149  1.47163233  1.63202823
  1.79714165  1.95989631  2.11793344  2.26417676  2.39626749  2.51656441
  2.62034999  2.71234176  2.79725723  2.87509641  2.95529436  3.03549231
  3.12276655  3.21475831  3.31382636  3.41761194  3.52375628  3.62754186
  3.72660991  3.81624291  3.90115839  3.97428005  4.04032541  4.10165326
  4.16062234  4.21959142  4.28091926  4.34460586  4.41536876  4.48849042
  4.56397084  4.63709249  4.70785539  4.77390076  4.83051107  4.87532757
  4.91070902  4.93901418  4.96260181  4.98618944  5.01685336  5.0593111
  5.1229977   5.2126307   5.3282101   5.47445342  5.64900189  5.84713799
  6.06178544  6.28822671  6.51702673  6.74110923  6.95575668  7.15625155
  7.34259384  7.51242478  7.67046192  7.81434647  7.94407844  8.0620166
  8.16344342  8.24364136  8.29553415  8.31676302  8.29789292  8.23892384
  8.13749702  7.99597123  7.819064    7.61621036  7.39920415  7.17748042
  6.96047421  6.7623381   6.58778963  6.44390507  6.33776073  6.26463907
  6.23161639  6.23397515  6.27407413  6.35191331  6.46513394  6.61373602
  6.80007831  7.01708452  7.26475465  7.53365365  7.80962894  8.08560423
  8.34270942  8.56443315  8.73662286  8.84512597  8.88286618  8.84276721
  8.72954657  8.55028057  8.31676302  8.04786402  7.76009492  7.47468457
  7.20342681  6.96047421  6.75290305  6.57835457  6.43447002  6.3141731
  6.20566999  6.09716689  5.97922873  5.84949676  5.69853592  5.53106373
  5.35179773  5.16073792  4.97203686  4.78805334  4.62058115  4.46726155
  4.33988834  4.23374399  4.15354605  4.09693573  4.05919552  4.04268418
  4.04268418  4.05683676  4.07806563  4.10401202  4.12759965  4.14175223
  4.1370347   4.10872955  4.04976047  3.95069241  3.81388415  3.63697691
  3.41761194  3.16286552  2.87745518  2.56138091  2.22643655  1.87262207
  1.50937255  1.13904673  0.76872091  0.40311262  0.04929815 -0.28800498
 -0.60172048 -0.8824133  -1.13008343 -1.34001335 -1.50748553 -1.63485875
 -1.72449175 -1.78346082 -1.81648351 -1.83063609 -1.83299485 -1.82827732
 -1.8235598  -1.81648351 -1.80940722 -1.80233093 -1.79289588 -1.78110206
 -1.76459072 -1.74336185 -1.71505669 -1.68675153 -1.65844638 -1.63485875
 -1.62070617 -1.62306493]","[-1.49656605 -1.38748377 -1.27626263 -1.16076375 -1.03884826 -0.90409957
 -0.7543788  -0.58968595 -0.41002103 -0.21538402 -0.00791381  0.205973
  0.42413755  0.64016324  0.85191119  1.05510366  1.24760179  1.43154446
  1.60693164  1.7780411   1.94701168  2.11812113  2.29564719  2.48172872
  2.67636572  2.87741933  3.08488954  3.29235975  3.49982996  3.6987447
  3.8869651   4.06021342  4.21635079  4.35109949  4.46659837  4.5585697
  4.63129121  4.68476292  4.72112368  4.74037349  4.74679009  4.74037349
  4.72754028  4.7061516   4.67834631  4.64840216  4.61631914  4.58209725
  4.54573649  4.50723686  4.4708761   4.43237648  4.39601572  4.36179383
  4.3297108   4.29976665  4.27410023  4.25485042  4.24201721  4.2356006
  4.2356006   4.23987834  4.25271155  4.2698225   4.29121118  4.31473873
  4.34254401  4.37248817  4.40457119  4.43665421  4.46873723  4.50082026
  4.53504215  4.56712517  4.60134706  4.63343008  4.66765197  4.69973499
  4.73181802  4.76176217  4.78956746  4.81523387  4.83662256  4.84945576
  4.8537335   4.84517803  4.82378935  4.78101198  4.71898481  4.63129121
  4.5179312   4.37890477  4.21635079  4.02813039  3.82066018  3.60035676
  3.369359    3.13408351  2.89880801  2.66994912  2.4496457   2.24217549
  2.04753848  1.86787356  1.70104184  1.5491822   1.41015577  1.28182368
  1.16418594  1.05724253  0.96313233  0.8775776   0.80271722  0.74069004
  0.68721834  0.64657984  0.61449682  0.58669153  0.56316398  0.53749757
  0.50755341  0.46691492  0.41558208  0.35141604  0.27441678  0.18672319
  0.09047412 -0.01219155 -0.11271835 -0.21110629 -0.30093875 -0.38221574
 -0.45279839 -0.51054783 -0.56188066 -0.60893576 -0.65599086 -0.70518483
 -0.76507314 -0.83779466]",7.1253517505560975,4.1379078019493845,4.239509999999999,0.13634000000000057
049,1,2,csm,16a.png,1,1,208,297,212,1,1,296,neu_feedback_onset,12,"[-0.79574576 -0.66750309 -0.502925   -0.30842362 -0.09682322  0.11905194
  0.32424022  0.50377995  0.64484689  0.73675414  0.7688148   0.73675414
  0.64270951  0.48881831  0.27935528  0.0271447  -0.25926393 -0.56704634
 -0.88124088 -1.19329804 -1.49253093 -1.76611529 -2.01191374 -2.22137677
 -2.38809224 -2.51419753 -2.59328051 -2.62534118 -2.61679167 -2.56976936
 -2.488549   -2.38381749 -2.26198695 -2.1316069  -2.00763899 -1.89222059
 -1.79603858 -1.72336774 -1.67634543 -1.6592464  -1.66779591 -1.70199396
 -1.75542841 -1.8238245  -1.90290748 -1.98626521 -2.06534819 -2.13801904
 -2.19572824 -2.24061317 -2.2662617  -2.27053646 -2.25984957 -2.22992628
 -2.18290397 -2.12519477 -2.05679868 -1.98199045 -1.9007701  -1.81527498
 -1.72550512 -1.63573525 -1.54596538 -1.45405813 -1.36215089 -1.27024364
 -1.17833639 -1.08642915 -0.9945219  -0.90261465 -0.81070741 -0.71880016
 -0.62903029 -0.53712305 -0.44949056 -0.36185807 -0.27636295 -0.19300522
 -0.11178486 -0.03270188  0.04424372  0.11905194  0.19386017  0.26866839
  0.34988875  0.43324648  0.52087898  0.6149236   0.70896822  0.80515023
  0.89492009  0.97614045  1.04453654  1.09583361  1.12361952  1.12789428
  1.1065205   1.06163556  0.98896472  0.89492009  0.78163907  0.64698427
  0.4995052   0.3349271   0.1617995  -0.02201499 -0.214379   -0.40888038
 -0.60765651 -0.8021579  -0.9945219  -1.17619902 -1.34505186 -1.49466831
 -1.6207736  -1.72550512 -1.80031334 -1.85161041 -1.87725894 -1.87939632
 -1.86443467 -1.83451138 -1.79603858 -1.74901627 -1.6977192  -1.64214738
 -1.5823008  -1.51817947 -1.45192075 -1.37711253 -1.29589217 -1.20825968
 -1.11207768 -1.01162092 -0.90475203 -0.79574576 -0.68246474 -0.56918371
 -0.44949056 -0.32766002 -0.19727997 -0.05621304  0.09767817  0.26653101
  0.45462026  0.65767116  0.87568369  1.10438312  1.33949468  1.57460624
  1.79903091  2.00635656  2.19230843  2.35261177  2.48085444  2.57703644
  2.64329515  2.67963058  2.69459222  2.68818009  2.66894369  2.6390204
  2.60482235  2.57062431  2.53856364  2.51505248  2.50436559  2.51077773
  2.54070102  2.6005476   2.69886698  2.84207129  3.04084743  3.29733277
  3.61793944  4.00266745  4.44724203  4.94097631  5.47104601  6.01607736
  6.55897132  7.07835413  7.54857725  7.95681642  8.29024736  8.54032056
  8.71131079  8.80749279  8.84169084  8.83100395  8.79039377  8.73482195
  8.68352488  8.6429147   8.62581568  8.63436519  8.66856323  8.72627243
  8.80749279  8.90581217  9.01481844  9.13664898  9.26275427  9.39099694
  9.52137698  9.65175703  9.7799997   9.90396761 10.02793553 10.14976606
 10.26732184 10.38487762 10.50457078 10.62640132 10.75464399 10.88929879
 11.0325031  11.18853169 11.35738453 11.54119903 11.73997516 11.95157557
 12.17813762 12.4111118  12.64622336 12.87919754 13.10148484 13.30453573
 13.48407547 13.62941716 13.74269818 13.81750641 13.85811659 13.86880347
 13.85384183 13.82391854 13.78544574 13.74911032 13.72346178 13.71918703
 13.73628605 13.78330836 13.85597921 13.95643597 14.0782665  14.21933344
 14.37108726 14.52925322 14.68741918 14.83489825 14.97169043 15.08924621
 15.18542821 15.25809906 15.30298399 15.32649515 15.32435777 15.30298399
 15.26451119 15.2153515 ]","[ -0.83977692  -0.52790235  -0.25575702  -0.02532739   0.16338652
   0.3064118    0.40772138   0.46930171   0.49313926   0.48717987
   0.44745062   0.38189737   0.29250657   0.17927822   0.04817171
  -0.0988265   -0.25377055  -0.41070107  -0.56365867  -0.70072456
  -0.81395291  -0.89539786  -0.93711357  -0.93711357  -0.88745201
  -0.79408829  -0.65702239  -0.48420018  -0.28555395  -0.07300249
   0.13954897   0.3381952    0.50505803   0.62821869   0.69774487
   0.70569072   0.64808331   0.52690911   0.34614105   0.11372496
  -0.15842037  -0.4563897   -0.76627782  -1.07815239  -1.37810819
  -1.65819937  -1.91048008  -2.13495031  -2.32565069  -2.48456767
  -2.61368772  -2.71698376  -2.79445578  -2.85404965  -2.89775182
  -2.93152168  -2.95734569  -2.97919677  -3.00303432  -3.03084479
  -3.06660111  -3.11030328  -3.16791069  -3.23942333  -3.32484121
  -3.42217786  -3.53341974  -3.65459394  -3.78371399  -3.91680696
  -4.05188639  -4.18497937  -4.31211295  -4.42931422  -4.53261026
  -4.62398753  -4.69947309  -4.7570805   -4.80276913  -4.83455252
  -4.85839007  -4.87626823  -4.89215993  -4.90606517  -4.91798394
  -4.93188918  -4.94182149  -4.9517538   -4.95572672  -4.95572672
  -4.94976734  -4.94579441  -4.94380795  -4.94976734  -4.96963196
  -5.01134767  -5.08286031  -5.18615634  -5.32918163  -5.51590908
  -5.74435224  -6.01649757  -6.32837214  -6.67600304  -7.04945794
  -7.44476393  -7.84801577  -8.25126761  -8.64061421  -9.00612327
  -9.33984893  -9.63185888  -9.88016666 -10.08477228 -10.24567572
 -10.37082284 -10.46815949 -10.55357737 -10.63700879 -10.73037251
 -10.84757378 -10.99457199 -11.18129944 -11.40775614 -11.67394208
 -11.98184373 -12.32152878 -12.69101076 -13.0783709  -13.47764982
 -13.87891519 -14.27223472 -14.64966255 -15.00722576 -15.33499203
 -15.63097491 -15.89318792 -16.12361755 -16.32226377 -16.49905891]",14.52378153433804,-0.8092847246018493,4.67863,-0.0029500000000011184
049,1,2,csp,51b.png,1,1,112,51,113,1,1,360,pos_feedback_onset,13,"[ 1.74893339e+00  1.48355686e+00  1.24114561e+00  1.02680303e+00
  8.37977423e-01  6.69565395e-01  5.19015249e-01  3.86326985e-01
  2.58742115e-01  1.38812338e-01  1.63308633e-02 -1.13805704e-01
 -2.59252455e-01 -4.22561088e-01 -6.13938392e-01 -8.30832670e-01
 -1.07834732e+00 -1.35648233e+00 -1.66268602e+00 -1.98930328e+00
 -2.33633413e+00 -2.69102007e+00 -3.04570600e+00 -3.39528855e+00
 -3.73211260e+00 -4.04597138e+00 -4.33431319e+00 -4.59203462e+00
 -4.81658399e+00 -5.00540960e+00 -5.16106314e+00 -5.28354461e+00
 -5.37030233e+00 -5.42643967e+00 -5.44940494e+00 -5.44685325e+00
 -5.41368118e+00 -5.35754384e+00 -5.27333782e+00 -5.16871823e+00
 -5.03858166e+00 -4.88292812e+00 -4.70686100e+00 -4.50782861e+00
 -4.28583093e+00 -4.04086799e+00 -3.77293976e+00 -3.48714965e+00
 -3.18094597e+00 -2.85943209e+00 -2.52515974e+00 -2.18068059e+00
 -1.82854635e+00 -1.47386041e+00 -1.11662278e+00 -7.61936840e-01
 -4.07250903e-01 -5.76683610e-02  2.86810787e-01  6.26186539e-01
  9.57907200e-01  1.28197277e+00  1.59838324e+00  1.90203523e+00
  2.19292874e+00  2.47106375e+00  2.73133689e+00  2.97374814e+00
  3.19829751e+00  3.40753669e+00  3.59891400e+00  3.77498112e+00
  3.93828975e+00  4.09649499e+00  4.24704513e+00  4.39504358e+00
  4.54559373e+00  4.70124727e+00  4.86200421e+00  5.03551963e+00
  5.21669014e+00  5.40806745e+00  5.60965154e+00  5.81633903e+00
  6.03068161e+00  6.24247249e+00  6.45426338e+00  6.65839917e+00
  6.84722477e+00  7.01818850e+00  7.16873864e+00  7.28866842e+00
  7.37797783e+00  7.43411517e+00  7.45708045e+00  7.44942536e+00
  7.41625329e+00  7.36521934e+00  7.30653030e+00  7.24784126e+00
  7.20446241e+00  7.18660053e+00  7.20446241e+00  7.27080654e+00
  7.39328802e+00  7.57190683e+00  7.80921469e+00  8.10521159e+00
  8.45224243e+00  8.84265213e+00  9.26878560e+00  9.72298773e+00
  1.01899484e+01  1.06620124e+01  1.11264213e+01  1.15806234e+01
  1.20144120e+01  1.24252353e+01  1.28054382e+01  1.31575724e+01
  1.34765346e+01  1.37648764e+01  1.40225978e+01  1.42522506e+01
  1.44589381e+01  1.46426603e+01  1.48085206e+01  1.49616225e+01
  1.51045175e+01  1.52448609e+01  1.53826525e+01  1.55255476e+01
  1.56709943e+01  1.58266479e+01  1.59950599e+01  1.61762304e+01
  1.63701594e+01  1.65768469e+01  1.67962929e+01  1.70233940e+01
  1.72555984e+01  1.74852512e+01  1.77098006e+01  1.79164880e+01
  1.81053137e+01  1.82660706e+01  1.83987589e+01  1.85008267e+01
  1.85748260e+01  1.86207565e+01  1.86488252e+01  1.86615837e+01
  1.86666871e+01  1.86717905e+01  1.86819973e+01  1.86998591e+01
  1.87304795e+01  1.87738584e+01  1.88299957e+01  1.88988915e+01
  1.89754425e+01  1.90647519e+01  1.91642681e+01  1.92739911e+01
  1.93939208e+01  1.95266091e+01  1.96695042e+01  1.98251577e+01
  1.99961214e+01  2.01823953e+01  2.03916345e+01  2.06263907e+01
  2.08943189e+01  2.12056260e+01  2.15654153e+01  2.19787903e+01
  2.24457509e+01  2.29688489e+01  2.35353257e+01  2.41298712e+01
  2.47320718e+01  2.53189622e+01  2.58624737e+01  2.63294343e+01
  2.67019822e+01  2.69597036e+01  2.70923919e+01  2.71000470e+01
  2.69877723e+01  2.67734297e+01  2.64799845e+01  2.61278502e+01
  2.57425439e+01  2.53444791e+01  2.49566211e+01  2.45891767e+01
  2.42574561e+01  2.39640109e+01  2.37164962e+01  2.35225672e+01
  2.33847756e+01  2.33107763e+01  2.33056729e+01  2.33771205e+01
  2.35251189e+01  2.37496683e+01  2.40507686e+01  2.44131096e+01
  2.48264846e+01  2.52704799e+01  2.57272338e+01  2.61686774e+01
  2.65795007e+01  2.69341866e+01  2.72148733e+01  2.74139057e+01
  2.75185253e+01  2.75236287e+01  2.74292159e+01  2.72429420e+01
  2.69673587e+01  2.66203278e+01  2.62146080e+01  2.57680609e+01
  2.52959969e+01  2.48162778e+01  2.43442138e+01  2.38925633e+01
  2.34715333e+01  2.30836753e+01  2.27315410e+01  2.24125788e+01
  2.21191336e+01  2.18435503e+01  2.15756221e+01  2.13102456e+01
  2.10372140e+01  2.07488721e+01  2.04452202e+01  2.01237063e+01
  1.97843305e+01  1.94372997e+01  1.90826138e+01  1.87330312e+01
  1.83911038e+01  1.80670382e+01  1.77684896e+01  1.74954580e+01
  1.72530467e+01  1.70412558e+01  1.68575336e+01  1.66993284e+01
  1.65615367e+01  1.64390553e+01  1.63293323e+01  1.62247127e+01
  1.61251965e+01  1.60333354e+01  1.59440260e+01  1.58598200e+01]","[-1.80946960e+00 -1.50880530e+00 -1.20625004e+00 -9.09367678e-01
 -6.21940173e-01 -3.49640432e-01 -9.81413652e-02  1.24993145e-01
  3.17872129e-01  4.76713645e-01  5.93953811e-01  6.71483599e-01
  7.09303007e-01  7.09303007e-01  6.75265540e-01  6.12863515e-01
  5.33442757e-01  4.44567147e-01  3.55691537e-01  2.78161750e-01
  2.17650696e-01  1.79831288e-01  1.62812554e-01  1.66594495e-01
  1.83613228e-01  2.04413903e-01  2.23323607e-01  2.27105548e-01
  2.11977785e-01  1.68485465e-01  9.85195593e-02 -1.70187338e-03
 -1.24614951e-01 -2.68328704e-01 -4.27170219e-01 -5.93575617e-01
 -7.65653926e-01 -9.37732235e-01 -1.10981054e+00 -1.28188885e+00
 -1.45774910e+00 -1.63739129e+00 -1.82648834e+00 -2.02882217e+00
 -2.24439280e+00 -2.48076410e+00 -2.73415414e+00 -3.01023582e+00
 -3.30900915e+00 -3.62858315e+00 -3.96895783e+00 -4.32824221e+00
 -4.70265436e+00 -5.09030329e+00 -5.48740708e+00 -5.89018378e+00
 -6.29296048e+00 -6.69195524e+00 -7.08905903e+00 -7.48048991e+00
 -7.86435691e+00 -8.24066002e+00 -8.60939926e+00 -8.96868364e+00
 -9.32229511e+00 -9.66456076e+00 -9.99926252e+00 -1.03245094e+01
 -1.06421925e+01 -1.09542026e+01 -1.12605398e+01 -1.15649860e+01
 -1.18694323e+01 -1.21757695e+01 -1.24877796e+01 -1.28035717e+01
 -1.31231457e+01 -1.34483926e+01 -1.37755305e+01 -1.41026683e+01
 -1.44298062e+01 -1.47550531e+01 -1.50784091e+01 -1.53979831e+01
 -1.57137752e+01 -1.60295672e+01 -1.63472502e+01 -1.66649333e+01
 -1.69863982e+01 -1.73116452e+01 -1.76368921e+01 -1.79621390e+01
 -1.82836040e+01 -1.85975051e+01 -1.89000603e+01 -1.91874878e+01
 -1.94541147e+01 -1.96999408e+01 -1.99230753e+01 -2.01216272e+01
 -2.02937055e+01 -2.04449832e+01 -2.05754601e+01 -2.06870274e+01
 -2.07815759e+01 -2.08666696e+01 -2.09404174e+01 -2.10084923e+01
 -2.10708944e+01 -2.11314054e+01 -2.11881345e+01 -2.12391907e+01
 -2.12864650e+01 -2.13261754e+01 -2.13545399e+01 -2.13715587e+01
 -2.13734496e+01 -2.13621038e+01 -2.13337393e+01 -2.12902469e+01
 -2.12354088e+01 -2.11711158e+01 -2.11011499e+01 -2.10274021e+01
 -2.09536542e+01 -2.08836883e+01 -2.08193953e+01 -2.07588843e+01
 -2.07059371e+01 -2.06548809e+01 -2.06094976e+01 -2.05660053e+01
 -2.05206220e+01 -2.04733477e+01 -2.04241825e+01 -2.03693443e+01
 -2.03088333e+01 -2.02426493e+01 -2.01707924e+01 -2.00951536e+01]",24.591856002612918,0.0638320704802344,3.9189600000000007,0.5212649999999996
049,1,2,csm,37a.png,1,1,116,228,112,1,1,520,neu_feedback_onset,14,"[  0.52167088   0.49097791   0.47563143   0.47343907   0.47782378
   0.48440085   0.4865932    0.47782378   0.45151552   0.40328371
   0.32655128   0.22131824   0.08319987  -0.08341911  -0.27853871
  -0.49996657  -0.73893327  -0.99324645  -1.25632905  -1.52379637
  -1.78907133  -2.04776922  -2.29989005  -2.5366644   -2.76247697
  -2.97294305  -3.16806265  -3.35002812  -3.52103181  -3.67888137
  -3.83015387  -3.97265695  -4.11077532  -4.24012426  -4.36070379
  -4.47032154  -4.5602081   -4.63255581  -4.67640292  -4.6917494
  -4.67640292  -4.63255581  -4.56678516  -4.48786038  -4.40674325
  -4.33658788  -4.29274078  -4.28616372  -4.33001082  -4.4286668
  -4.58651636  -4.79698244  -5.05348798  -5.34726356  -5.66515504
  -5.98962358  -6.30751506  -6.60567535  -6.87314266  -7.10333994
  -7.29188248  -7.43877026  -7.54619566  -7.62512044  -7.67992932
  -7.72596877  -7.7785853   -7.84874066  -7.94958899  -8.09647678
  -8.29378873  -8.55029427  -8.86380104  -9.23211669  -9.64866414
 -10.10028928 -10.57383797 -11.05834843 -11.53628183 -11.99667639
 -12.42857033 -12.82757895 -13.18493282 -13.5028243  -13.78125339
 -14.02241245 -14.23287853 -14.414844   -14.57488592 -14.71300428
 -14.83358381 -14.94100921 -15.03528047 -15.11639761 -15.18655297
 -15.24793891 -15.30274779 -15.3509796  -15.3948267  -15.43428909
 -15.46936677 -15.50005974 -15.526368   -15.55048391 -15.56802275
 -15.58117688 -15.58556159 -15.58336923 -15.57240746 -15.55267626
 -15.52198329 -15.48032855 -15.42551967 -15.35974902 -15.27863188
 -15.18655297 -15.08351228 -14.96731747 -14.84235323 -14.70861957
 -14.57050121 -14.43019048 -14.28768741 -14.14956904 -14.01364303
 -13.88648643 -13.76809926 -13.65628915 -13.55763318 -13.46774662
 -13.38662948 -13.31647412 -13.25728054 -13.20247166 -13.15643221
 -13.1125851  -13.07093036 -13.03146797 -12.98762087 -12.94158141
 -12.89115725 -12.83634837 -12.77715478 -12.7179612  -12.65657526
 -12.59957403 -12.54476515 -12.49872569 -12.46145566 -12.4351474
 -12.42199327 -12.41980091 -12.42857033 -12.44830153 -12.4789945
 -12.51187982 -12.54914986 -12.5864199  -12.61711287 -12.63684406
 -12.64122877 -12.62588229 -12.5864199  -12.51845689 -12.42418562
 -12.29702903 -12.14137182 -11.95940635 -11.75332498 -11.52751241
 -11.28635336 -11.03642488 -10.77991934 -10.52560616 -10.27348533
 -10.03013392  -9.79555193  -9.56973936  -9.35708092  -9.1531919
  -8.95807231  -8.77172213  -8.58975666  -8.40998355  -8.23021043
  -8.05043732  -7.8662795   -7.67773696  -7.48480972  -7.29188248
  -7.10114759  -6.91698976  -6.74598607  -6.59252122  -6.46536463
  -6.36670865  -6.300938    -6.27024503  -6.27024503  -6.29874564
  -6.35136216  -6.41932517  -6.49824995  -6.57936709  -6.65829187
  -6.73063959  -6.79421788  -6.84902676  -6.89725857  -6.93891332
  -6.97837571  -7.01564574  -7.05291578  -7.09018581  -7.12307114
  -7.15376411  -7.17568766  -7.18884179  -7.19103414  -7.18445708
  -7.16472588  -7.13841762  -7.1055323   -7.07264697  -7.03976165
  -7.01345339  -6.99152984  -6.97618335  -6.96960629  -6.96741393
  -6.96741393  -6.96522158  -6.96302922  -6.95206745  -6.93452861
  -6.90822034  -6.87533502  -6.83587263  -6.79202553  -6.75037078
  -6.71090839  -6.68021542  -6.65829187  -6.64952245  -6.65390716
  -6.66925365  -6.69556191  -6.73063959  -6.76790962  -6.80517966
  -6.84025734  -6.87314266  -6.89945092  -6.91918212  -6.93891332
  -6.95645216  -6.97618335  -7.00029926  -7.02660752  -7.05730049]","[-3.52307184e+00 -3.15511484e+00 -2.75455405e+00 -2.33070485e+00
 -1.89288259e+00 -1.45506034e+00 -1.02888230e+00 -6.19006143e-01
 -2.34747251e-01  1.21565541e-01  4.52261072e-01  7.57339345e-01
  1.04378688e+00  1.31160369e+00  1.57243397e+00  1.82860656e+00
  2.08245031e+00  2.34095175e+00  2.60643971e+00  2.87658536e+00
  3.15604637e+00  3.44016507e+00  3.72661261e+00  4.01771783e+00
  4.31115189e+00  4.60458596e+00  4.89569118e+00  5.18213872e+00
  5.46625741e+00  5.74338958e+00  6.01120639e+00  6.26272130e+00
  6.49560548e+00  6.70520124e+00  6.88685089e+00  7.03123908e+00
  7.13836581e+00  7.20357337e+00  7.22686179e+00  7.20357337e+00
  7.13836581e+00  7.03589677e+00  6.90315279e+00  6.74479155e+00
  6.56779957e+00  6.38614991e+00  6.20450025e+00  6.02750828e+00
  5.86448935e+00  5.71544348e+00  5.58037066e+00  5.45927089e+00
  5.34981532e+00  5.24967513e+00  5.14953493e+00  5.04939473e+00
  4.94226801e+00  4.82116824e+00  4.69075310e+00  4.54170723e+00
  4.37868830e+00  4.19936749e+00  4.00607362e+00  3.79880670e+00
  3.58455326e+00  3.36098445e+00  3.13042911e+00  2.89754494e+00
  2.66233192e+00  2.42944774e+00  2.19889240e+00  1.97299475e+00
  1.75641247e+00  1.55380323e+00  1.36283821e+00  1.19050391e+00
  1.03447152e+00  8.99398693e-01  7.80627763e-01  6.82816408e-01
  5.96649262e-01  5.24455167e-01  4.63905281e-01  4.10341921e-01
  3.63765085e-01  3.19517091e-01  2.82255623e-01  2.49651838e-01
  2.24034579e-01  2.05403844e-01  1.98417319e-01  2.03075003e-01
  2.21705737e-01  2.49651838e-01  2.91570990e-01  3.38147826e-01
  3.91711186e-01  4.42945705e-01  4.89522541e-01  5.26784009e-01
  5.52401269e-01  5.66374319e-01  5.64045478e-01  5.50072427e-01
  5.26784009e-01  4.94180224e-01  4.56918756e-01  4.21986129e-01
  3.87053503e-01  3.59107402e-01  3.35818984e-01  3.19517091e-01
  3.12530566e-01  3.07872883e-01  3.07872883e-01  3.10201724e-01
  3.12530566e-01  3.14859408e-01  3.12530566e-01  3.07872883e-01
  2.98557515e-01  2.84584465e-01  2.63624889e-01  2.38007629e-01
  2.07732686e-01  1.70471218e-01  1.30880908e-01  8.89617558e-02
  4.23849203e-02 -4.19191519e-03 -5.07687507e-02 -9.50167444e-02
 -1.36935896e-01 -1.71868523e-01 -1.97485782e-01 -2.09129991e-01
 -2.09129991e-01 -1.88170415e-01 -1.48580105e-01 -8.57013773e-02]",-1.8485213360008856e-14,5.609539401673984,4.561305000000001,-0.35463500000000003
049,2,2,csp,10b.png,1,1,260,358,264,1,1,294,pos_feedback_onset,1,"[-4.48036282 -3.59333313 -2.70285196 -1.84170834 -1.04269132 -0.32996124
  0.27404731  0.75725414  1.11793353  1.35608547  1.48379014  1.51485343
  1.46825849  1.36126269  1.2145749   1.04545251  0.86424994  0.68304738
  0.50874777  0.34135112  0.18085742  0.02381519 -0.13495277 -0.29889794
 -0.47492329 -0.66475455 -0.86839172 -1.08410905 -1.31018082 -1.53970407
 -1.7640501  -1.97459022 -2.16269574 -2.3214637  -2.44399115 -2.52682661
 -2.56824434 -2.56997008 -2.5354553  -2.47332871 -2.39049325 -2.29557762
 -2.19548478 -2.09539193 -1.99875057 -1.90556068 -1.81237079 -1.72090663
 -1.62599101 -1.5276239  -1.42580532 -1.32571247 -1.23079684 -1.14796138
 -1.08238331 -1.03751411 -1.01680524 -1.01680524 -1.03233689 -1.05477149
 -1.07548036 -1.08410905 -1.07030314 -1.02543394 -0.9477757  -0.83732842
 -0.69581784 -0.53014693 -0.34549289 -0.15221015  0.04279832  0.23262958
  0.40865492  0.56914862  0.70893346  0.82455795  0.9160221   0.9781487
  1.01266347  1.01784069  0.99540608  0.94881114  0.88150733  0.80212335
  0.71238494  0.62437226  0.53981107  0.46387856  0.39830049  0.34480259
  0.30165913  0.26196714  0.22400088  0.18258315  0.13598821  0.07731309
  0.01000928 -0.0693747  -0.15566163 -0.24885152 -0.34549289 -0.44040852
 -0.53187267 -0.61298239 -0.68373767 -0.73896131 -0.78037904 -0.80453938
 -0.81316808 -0.80799086 -0.79073347 -0.76829887 -0.74241279 -0.71652671
 -0.69754358 -0.68373767 -0.6802862  -0.68373767 -0.69409211 -0.70617228
 -0.71652671 -0.7251554  -0.7251554  -0.72170393 -0.71307523 -0.7027208
 -0.69581784 -0.69926932 -0.71825245 -0.7562187  -0.82007103 -0.90980944
 -1.02888541 -1.17212173 -1.34124412 -1.5276239  -1.72780959 -1.93489823
 -2.14198688 -2.34044683 -2.52337513 -2.68386883 -2.81502497 -2.91511782
 -2.97897015 -3.00658197 -3.00140475 -2.96688998 -2.90821486 -2.83573384
 -2.75634986 -2.68214309 -2.62346798 -2.58550172 -2.57859877 -2.60448485
 -2.66833718 -2.77015577 -2.90476338 -3.06525708 -3.24645965 -3.43801664
 -3.62957364 -3.8107762  -3.97472138 -4.11105474 -4.2163248  -4.28880582
 -4.33022355 -4.34057798 -4.32849781 -4.29570878 -4.25083957 -4.19906741
 -4.14384377 -4.09207161 -4.04202519 -3.99715598 -3.95573825 -3.917772
 -3.88153149 -3.84701672 -3.80905046 -3.765907   -3.71931205 -3.66408841
 -3.60196182 -3.53120653 -3.45354829 -3.37071283 -3.28270016 -3.19123601
 -3.09977186 -3.01003344 -2.92374651 -2.84436253 -2.7718815  -2.70975491
 -2.66315997 -2.63382241 -2.62519371 -2.64417684 -2.69249752 -2.7718815
 -2.88405452 -3.02901657 -3.20331618 -3.40177613 -3.61576773 -3.83838802
 -4.05928258 -4.26637122 -4.452751   -4.61151896 -4.73577215 -4.8272363
 -4.88418568 -4.91524897 -4.92387767 -4.92042619 -4.91007176 -4.90489454
 -4.91007176 -4.92905488 -4.96356966 -5.01361608 -5.07401693 -5.139595
 -5.20344734 -5.25694524 -5.29318575 -5.30526592 -5.29146001 -5.25004228
 -5.18446421 -5.09817727 -4.99981017 -4.89454011 -4.79444726 -4.70816033
 -4.64258226 -4.60116453 -4.5908101  -4.60806748 -4.65466243 -4.72369198
 -4.80997891 -4.90662028 -5.00671312 -5.10335449 -5.19136716 -5.26557393
 -5.32597478 -5.36911825 -5.40018155 -5.41916467 -5.43297058 -5.44505075
 -5.4605824  -5.48301701]","[-0.15882956 -0.24777412 -0.31130594 -0.35305543 -0.37665296 -0.38572894
 -0.38209855 -0.36757699 -0.34579465 -0.31130594 -0.26229568 -0.19513346
 -0.10437371  0.01179877  0.15519917  0.32401231  0.51279259  0.71972482
  0.93391783  1.14448045  1.34778229  1.53111698  1.69085414  1.82154818
  1.92501429  2.00125248  2.05570833  2.09382743  2.11924016  2.1410225
  2.16462003  2.19184796  2.22633666  2.26990134  2.322542    2.38425863
  2.44960565  2.51858306  2.58756047  2.65472268  2.71825451  2.77634075
  2.8307966   2.87980686  2.92518674  2.96693622  3.00687051  3.04498961
  3.08129351  3.11759741  3.15208611  3.18475962  3.21743313  3.24284586
  3.26281301  3.27370418  3.26825859  3.24284586  3.1920204   3.11215182
  2.99779454  2.84713335  2.66198346  2.44052967  2.19184796  1.91956871
  1.6327679   1.3423367   1.0537207   0.77781106  0.51460778  0.27318685
  0.04810267 -0.16245995 -0.3621314  -0.55817246 -0.75784391 -0.97022173
 -1.20075149 -1.4530636  -1.72715804 -2.02666521 -2.34613953 -2.68013541
 -3.02683766 -3.3753551  -3.72024215 -4.05968361 -4.38278832 -4.69137147
 -4.98180267 -5.25045153 -5.50094844 -5.7332934  -5.94748641 -6.14715786
 -6.33412294 -6.50838166 -6.66811882 -6.81696481 -6.94947405 -7.06746172
 -7.16548225 -7.24172044 -7.2925459  -7.32158902 -7.32340422 -7.30343707
 -7.26350278 -7.21086213 -7.1491455  -7.08561367 -7.03115782 -6.98759314
 -6.96218041 -6.95673483 -6.97125639 -7.00574509 -7.05657055 -7.12010238
 -7.18907979 -7.26168759 -7.33429539 -7.40508799 -7.47225021 -7.53578203
 -7.59568347 -7.6574001  -7.71911673 -7.78627894 -7.85525635 -7.92786415
 -8.00047195 -8.07307975 -8.13842677 -8.19288262 -8.23281691 -8.25459925
 -8.25822964 -8.2382625 ]",-0.2559771516649175,2.3567130448988443,5.794619999999999,-0.16710999999999832
049,2,2,csp,4b.png,1,1,28,274,32,1,1,343,pos_feedback_onset,2,"[ 1.69731738  1.60488768  1.50013402  1.38100241  1.24543885  1.09138935
  0.91885391  0.72783253  0.5224332   0.30060192  0.06644668 -0.17797852
 -0.4306197  -0.68942286 -0.952334   -1.21935314 -1.48842626 -1.75955338
 -2.03273449 -2.3059156  -2.57704272 -2.84611585 -3.11108099 -3.36372216
 -3.60403938 -3.82587066 -4.02510801 -4.19353547 -4.32704503 -4.42563671
 -4.48725651 -4.51190443 -4.50163447 -4.4605546  -4.39482681 -4.31266708
 -4.21612939 -4.11753771 -4.02100003 -3.93473231 -3.86284254 -3.80943872
 -3.77452083 -3.76219687 -3.76835885 -3.79095278 -3.82587066 -3.86900452
 -3.91419237 -3.95938023 -3.99635211 -4.02510801 -4.03948597 -4.04153996
 -4.03126999 -4.00662207 -3.97170419 -3.93062432 -3.88543647 -3.84230261
 -3.80327674 -3.77452083 -3.75808888 -3.75603489 -3.77041284 -3.80327674
 -3.85051858 -3.91008439 -3.97992016 -4.05591791 -4.13396966 -4.20791342
 -4.2756952  -4.33320701 -4.38250285 -4.42152873 -4.45439262 -4.48520252
 -4.51395843 -4.54887631 -4.59406416 -4.65568396 -4.73168172 -4.82616541
 -4.93708105 -5.06032065 -5.18972223 -5.31912381 -5.44030941 -5.54095509
 -5.61489885 -5.65187073 -5.64981673 -5.60462888 -5.51425317 -5.3827976
 -5.21847813 -5.02951075 -4.82616541 -4.62282007 -4.43179869 -4.26337124
 -4.12986167 -4.03743197 -3.99429811 -3.99635211 -4.04153996 -4.12575369
 -4.23461533 -4.35990893 -4.4913645  -4.6146041  -4.72346574 -4.81178746
 -4.87546125 -4.9206491  -4.951459   -4.96994494 -4.99048488 -5.01924078
 -5.06442864 -5.13015642 -5.21847813 -5.32939377 -5.46084935 -5.60257489
 -5.7525164  -5.89629593 -6.0277515  -6.13866714 -6.22082688 -6.26806872
 -6.28039268 -6.25163678 -6.18590899 -6.08526332 -5.95175375 -5.78743429
 -5.60257489 -5.39512156 -5.17534427 -4.94529702 -4.70908779 -4.47287856
 -4.24077731 -4.01689204 -3.80738472 -3.61430935 -3.4438279  -3.29388639
 -3.16653881 -3.05973115 -2.96935545 -2.88924971 -2.81530595 -2.7372542
 -2.65098648 -2.55034081 -2.43531718 -2.30386161 -2.15597409 -1.99370862
 -1.82322717 -1.64863774 -1.46994032 -1.2912429  -1.11459948 -0.94411803
 -0.77774457 -0.62164108 -0.47169957 -0.33202802 -0.20262644 -0.08349483
  0.0294748   0.13833645  0.24309011  0.35400575  0.47313736  0.60459293
  0.75248045  0.92090791  1.11192929  1.3234906   1.55559184  1.80207104
  2.06292819  2.32789333  2.59491246  2.85371562  3.10224881  3.33024207
  3.53564141  3.71023084  3.85195638  3.96081802  4.03681578  4.08816561
  4.1210295   4.14362343  4.17032534  4.2134592   4.28329498  4.39421061
  4.55442209  4.77214539  5.0453265   5.37601942  5.75600819  6.17296883
  6.6145774   7.06234794  7.49779452  7.89832322  8.24955608  8.53506115
  8.73840649  8.85548411  8.88218602  8.81645824  8.66857072  8.44468545
  8.15918037  7.83054144  7.4731466   7.10958979  6.75835693  6.43793397
  6.17091484  5.9675695   5.8443299   5.80530403  5.85665386  5.99221742
  6.20583272  6.48722981  6.81997673  7.18764153  7.57379228  7.96199702
  8.33993179  8.69321864  9.02185757  9.31763261  9.58259775  9.82086097
 10.03653027 10.23165964 10.41035706 10.57673052 10.72872602 10.87045156
 10.99574515 11.1046068  11.19292851 11.2586563  11.30179016 11.32233009
 11.32233009 11.30589814]","[ -1.13364215  -1.07700252  -1.01469893  -0.94673137  -0.87121187
  -0.78436444  -0.6843011   -0.56913386  -0.43508674  -0.28404773
  -0.11412885   0.07278192   0.27290861   0.48436321   0.6995938
   0.9129364    1.11495107   1.29997385   1.46234078   1.59449991
   1.69078728   1.74742691   1.76253081   1.73798697   1.67379539
   1.57562004   1.44723688   1.29997385   1.14327088   0.99034389
   0.84874482   0.73168959   0.64673015   0.59575448   0.58253857
   0.59764247   0.63729021   0.68826587   0.73546556   0.76378538
   0.7600094    0.71280971   0.61274637   0.4560434    0.23892483
  -0.0310574   -0.35390327  -0.72017286  -1.12420221  -1.55466338
  -2.00589241  -2.47033736  -2.94422224  -3.4218831   -3.89954396
  -4.37531683  -4.84731372  -5.30798269  -5.75543575  -6.18400893
  -6.58803828  -6.95619586  -7.28092972  -7.55657591  -7.76991851
  -7.91906952  -7.998365    -8.00780494  -7.94927733  -7.82844612
  -7.65475126  -7.4357447   -7.18086638  -6.90144422  -6.5993662
  -6.28407228  -5.95556244  -5.61572467  -5.26644697  -4.90961731
  -4.5471237   -4.18274209  -3.82402445  -3.47474675  -3.14246094
  -2.83471896  -2.55718478  -2.31552237  -2.10973173  -1.94358882
  -1.81709365  -1.73024622  -1.68304653  -1.67171861  -1.69815043
  -1.76234201  -1.86240535  -2.00022845  -2.1739233   -2.38160194
  -2.61948837  -2.88569462  -3.17644471  -3.4822987   -3.80514458
  -4.1355424   -4.47160419  -4.81144196  -5.1550557   -5.49866944
  -5.84417117  -6.1896729   -6.53517462  -6.88256434  -7.22806607
  -7.56979182  -7.90962959  -8.24380339  -8.57420122  -8.89704709
  -9.21422901  -9.52574696  -9.82971296 -10.12612701 -10.41121314
 -10.68497134 -10.94362563 -11.18340006 -11.40240662 -11.59875733
 -11.7705642  -11.91782723 -12.04621038 -12.15571366 -12.25200103
 -12.34262443 -12.43135985 -12.52387124 -12.62393459 -12.73343786]",10.006881324150589,0.639508594591484,4.8685649999999985,-0.22670499999999993
049,2,2,csm,64a.png,1,1,252,49,254,1,1,369,neu_feedback_onset,3,"[-0.19503956 -0.29223535 -0.36999199 -0.42182974 -0.44342881 -0.43262928
 -0.39159105 -0.32463395 -0.23607778 -0.13240227 -0.02440694  0.08574829
  0.1894238   0.28013988  0.35789651  0.41621399  0.45941212  0.48317109
  0.49613053  0.49613053  0.48965081  0.47885128  0.46589184  0.4550923
  0.44429277  0.43565314  0.42917343  0.42701352  0.42485361  0.42485361
  0.42701352  0.42917343  0.43133333  0.43349324  0.43781305  0.43997296
  0.44429277  0.44645268  0.45077249  0.4529324   0.45725221  0.45941212
  0.46373193  0.46589184  0.47021165  0.47453146  0.47669137  0.48101118
  0.48317109  0.4874909   0.48965081  0.49397062  0.49613053  0.50045034
  0.50261025  0.50693006  0.51124987  0.51340978  0.51772959  0.52204941
  0.52636922  0.53284894  0.53932866  0.54796828  0.56092772  0.57604707
  0.59548623  0.62140511  0.65812352  0.70348155  0.76611884  0.84387548
  0.94107127  1.06202604  1.20457987  1.36657285  1.548005    1.73591687
  1.92598864  2.10526088  2.26725387  2.39900817  2.49404406  2.54588181
  2.55236153  2.51564312  2.43572658  2.32341144  2.18301752  2.02750425
  1.86551126  1.70783808  1.56312435  1.44000968  1.34497379  1.28017659
  1.2499379   1.25425772  1.28881622  1.35361342  1.44000968  1.5458451
  1.66463995  1.78991453  1.91734902  2.04046369  2.15709864  2.26077415
  2.35365013  2.43356668  2.50052378  2.55668135  2.60419929  2.64739742
  2.68627574  2.72947387  2.77699181  2.83530929  2.90874611  2.99730228
  3.10745751  3.2370519   3.38824536  3.56103788  3.74894975  3.95414086
  4.17229142  4.40340142  4.64099114  4.88722048  5.13992954  5.39911833
  5.66046701  5.9218157   6.17884458  6.42507392  6.65834383  6.87001467
  7.05360672  7.20264027  7.31927522  7.39703186  7.43807008  7.44670971
  7.42511064  7.38407242  7.32575494  7.25663793  7.18536102  7.1119242
  7.04280719  6.97585009  6.9132128   6.85489532  6.79873775  6.74689999
  6.69506224  6.64322448  6.59138672  6.54170887  6.49203102  6.44451308
  6.39699514  6.35595691  6.3192385   6.29331963  6.27604037  6.26740075
  6.27172056  6.28683991  6.31275878  6.34299748  6.37755598  6.41427439
  6.44451308  6.47043196  6.48555131  6.48987112  6.4833914   6.46179233
  6.42939374  6.38835551  6.33867766  6.28683991  6.23284224  6.17884458
  6.13132664  6.09028841  6.05788981  6.02981103  6.00821196  5.98877281
  5.97149355  5.94773458  5.9196558   5.87861757  5.82677982  5.76198262
  5.68422599  5.59782973  5.50279384  5.40559805  5.30624235  5.21120646
  5.11833048  5.03409412  4.95633749  4.88506057  4.82026338  4.759786
  4.70578833  4.65611048  4.61291235  4.57403404  4.54379534  4.52219628
  4.51139675  4.51571656  4.53299581  4.56755432  4.62155198  4.6949888
  4.78570487  4.8937002   5.01681487  5.15072908  5.28896309  5.42719711
  5.56111132  5.68638589  5.79654113  5.89157701  5.97365346  6.04493038
  6.10972757  6.17668467  6.24796159  6.33219794  6.43371355  6.55250841
  6.69074242  6.84409579  7.00608878  7.17240158  7.33439457  7.48558802
  7.62166213  7.73613718  7.83117307  7.90029008  7.95212783  7.98236652
  8.00180568  8.01044531  8.01692503  8.02340475  8.03852409  8.06876278
  8.11412082  8.18323783]","[-1.71263345 -1.62568748 -1.52256551 -1.39517955 -1.2394856  -1.05548366
 -0.84519573 -0.6106438  -0.36193788 -0.10312197  0.15771595  0.40844387
  0.64299579  0.85732773  1.04537367  1.21117761  1.35473957  1.48212553
  1.59940149  1.71263345  1.83395341  1.96538337  2.11298932  2.27879327
  2.45875121  2.65084115  2.84899709  3.04108703  3.21700097  3.37067292
  3.49199288  3.57489486  3.61129084  3.60522485  3.55265286  3.45964089
  3.33023293  3.17049499  2.99053704  2.79238111  2.58815917  2.38191524
  2.1837593   1.99773536  1.83193141  1.69443546  1.59131349  1.52458751
  1.50436752  1.52863151  1.59737949  1.70656745  1.85215141  2.02199935
  2.20802329  2.39809123  2.57804918  2.74183112  2.87932708  2.98447104
  3.05321902  3.08961501  3.09163701  3.06535102  3.01277904  2.93998706
  2.84899709  2.74789712  2.63870916  2.52143319  2.40213523  2.27879327
  2.15545131  2.03210935  1.90876739  1.78542543  1.66410547  1.54480751
  1.42753154  1.31429958  1.20511161  1.09996765  0.99684568  0.89574571
  0.79262375  0.68343578  0.56211582  0.42259786  0.25881592  0.06874798
 -0.15569395 -0.41248787 -0.70163378 -1.01908767 -1.36080556 -1.71465545
 -2.07052734 -2.42033323 -2.74991912 -3.04917502 -3.31001294 -3.52434487
 -3.69014882 -3.80742478 -3.88021676 -3.91459075 -3.91863475 -3.90245875
 -3.87819476 -3.85393077 -3.83573277 -3.83168877 -3.83977677 -3.86404076
 -3.90043675 -3.94492074 -3.99142672 -4.03793271 -4.08039469 -4.11679068
 -4.14307667 -4.16127467 -4.16531867 -4.15520867 -4.13296668 -4.09252669
 -4.03186671 -3.95300874 -3.85393077 -3.7346328  -3.60118085 -3.45761889
 -3.30799094 -3.16240699 -3.02693303 -2.90763507 -2.8126011  -2.74183112
 -2.69734714 -2.67712714]",7.646038222322879,2.2848592688450204,4.62983,-0.16159999999999908
049,2,2,csp,5b.png,1,1,248,276,251,1,1,445,pos_feedback_onset,4,"[-3.75981267e-01 -2.95857396e-01 -2.09724234e-01 -1.23591072e-01
 -4.34672003e-02  2.46380905e-02  7.67186070e-02  1.14777446e-01
  1.36811511e-01  1.44823898e-01  1.40817704e-01  1.30802220e-01
  1.14777446e-01  9.47464781e-02  7.27124134e-02  5.06783487e-02
  2.86442841e-02  2.60402582e-03 -2.54393292e-02 -5.94919746e-02
 -9.55477168e-02 -1.39615846e-01 -1.89693266e-01 -2.47783073e-01
 -3.11882170e-01 -3.83993654e-01 -4.60111332e-01 -5.36229010e-01
 -6.12346688e-01 -6.82455076e-01 -7.42547979e-01 -7.86616109e-01
 -8.12656367e-01 -8.14659464e-01 -7.94628496e-01 -7.52563463e-01
 -6.90467463e-01 -6.14349785e-01 -5.28216623e-01 -4.40080364e-01
 -3.55950299e-01 -2.81835718e-01 -2.23745911e-01 -1.83683975e-01
 -1.63653008e-01 -1.59646814e-01 -1.71665395e-01 -1.97705653e-01
 -2.29755202e-01 -2.67814041e-01 -3.09879073e-01 -3.53947202e-01
 -4.00018428e-01 -4.50095848e-01 -5.08185655e-01 -5.76290946e-01
 -6.56414817e-01 -7.48557270e-01 -8.52718302e-01 -9.68897916e-01
 -1.09308992e+00 -1.22128811e+00 -1.34948631e+00 -1.47568140e+00
 -1.59386411e+00 -1.70603753e+00 -1.80619237e+00 -1.89833483e+00
 -1.98446799e+00 -2.06258876e+00 -2.13870644e+00 -2.21081792e+00
 -2.28292941e+00 -2.35303780e+00 -2.42114309e+00 -2.48524218e+00
 -2.54934128e+00 -2.60542799e+00 -2.65750851e+00 -2.70157664e+00
 -2.73562928e+00 -2.75566025e+00 -2.76166954e+00 -2.75165406e+00
 -2.71960451e+00 -2.66351780e+00 -2.58539702e+00 -2.48323909e+00
 -2.35704399e+00 -2.20881483e+00 -2.04656399e+00 -1.87429766e+00
 -1.70203134e+00 -1.53777740e+00 -1.39355444e+00 -1.27737482e+00
 -1.19925405e+00 -1.16720450e+00 -1.18322927e+00 -1.24933147e+00
 -1.36350798e+00 -1.52375573e+00 -1.72005921e+00 -1.94640915e+00
 -2.19479315e+00 -2.45719883e+00 -2.72361070e+00 -2.99202567e+00
 -3.25443135e+00 -3.50882464e+00 -3.75119935e+00 -3.98355858e+00
 -4.20189613e+00 -4.40621200e+00 -4.59450310e+00 -4.76676943e+00
 -4.91700168e+00 -5.04720298e+00 -5.15136401e+00 -5.22948478e+00
 -5.28156530e+00 -5.30760556e+00 -5.30960865e+00 -5.28957769e+00
 -5.25552504e+00 -5.20745072e+00 -5.15336711e+00 -5.09327420e+00
 -5.03318130e+00 -4.97509149e+00 -4.91900478e+00 -4.86492117e+00
 -4.81284065e+00 -4.76276323e+00 -4.71669201e+00 -4.67462697e+00
 -4.63656813e+00 -4.60852478e+00 -4.58849381e+00 -4.58048142e+00
 -4.57847833e+00 -4.58248452e+00 -4.58649071e+00 -4.58048142e+00
 -4.55844736e+00 -4.50636684e+00 -4.41622749e+00 -4.28202000e+00
 -4.09372890e+00 -3.85536039e+00 -3.56491135e+00 -3.23440038e+00
 -2.87183986e+00 -2.49525767e+00 -2.11667238e+00 -1.75611495e+00
 -1.42360089e+00 -1.13515495e+00 -8.94783335e-01 -7.06492237e-01
 -5.70281655e-01 -4.78139203e-01 -4.24055590e-01 -3.96012235e-01
 -3.81990557e-01 -3.75981267e-01 -3.65965783e-01 -3.45934815e-01
 -3.15888363e-01 -2.69817137e-01 -2.11727330e-01 -1.41618943e-01
 -6.14950714e-02  2.26349937e-02  1.12774349e-01  2.04916801e-01
  2.97059254e-01  3.89201706e-01  4.81344158e-01  5.71483514e-01
  6.61622869e-01  7.53765321e-01  8.45907773e-01  9.40053322e-01
  1.04020816e+00  1.14837539e+00  1.26455500e+00  1.39475629e+00
  1.53697617e+00  1.69522081e+00  1.86548404e+00  2.04776585e+00
  2.23806004e+00  2.43035733e+00  2.61464224e+00  2.78690856e+00
  2.93714082e+00  3.06133282e+00  3.15147218e+00  3.20755889e+00
  3.22959295e+00  3.22158056e+00  3.18953101e+00  3.14145669e+00
  3.08737308e+00  3.03729566e+00  2.99923682e+00  2.97720276e+00
  2.97519966e+00  2.99322753e+00  3.02928327e+00  3.07335140e+00
  3.11942263e+00  3.15948456e+00  3.17951553e+00  3.17350624e+00
  3.13344430e+00  3.05332043e+00  2.92912843e+00  2.75886521e+00
  2.54854004e+00  2.30215914e+00  2.02372868e+00  1.72126107e+00
  1.40477178e+00  1.08227319e+00  7.59774612e-01  4.43285319e-01
  1.36811511e-01 -1.55640620e-01 -4.36074171e-01 -7.04489140e-01
 -9.64891723e-01 -1.21527882e+00 -1.45765353e+00 -1.69602205e+00
 -1.92838128e+00 -2.15272812e+00 -2.36705947e+00 -2.56736915e+00
 -2.75566025e+00 -2.92792657e+00 -3.08216503e+00 -3.22438490e+00
 -3.35458619e+00 -3.47677509e+00 -3.59495780e+00 -3.71714671e+00
 -3.84334181e+00 -3.97955239e+00 -4.12577845e+00 -4.28202000e+00
 -4.44627394e+00 -4.61453407e+00 -4.78279420e+00 -4.94905123e+00
 -5.10529278e+00 -5.24751265e+00 -5.37771395e+00 -5.48988737e+00]","[-2.27682425 -2.2095681  -2.09543647 -1.93442934 -1.72654671 -1.47586473
 -1.18849757 -0.87463557 -0.54243098 -0.20003607  0.14235884  0.47863955
  0.80269188  1.10840162  1.39576877  1.66071722  1.90732307  2.13354828
  2.34550703  2.54931353  2.75312002  2.96507878  3.19130398  3.43790984
  3.71101054  4.01264415  4.34077261  4.69131978  5.05409534  5.41890896
  5.77353226  6.10166072  6.39514207  6.64174793  6.8353641   6.97395251
  7.05955124  7.09827447  7.09216028  7.05343704  6.9861809   6.90262024
  6.80275506  6.69473761  6.57856791  6.45628402  6.32584786  6.18929751
  6.04255683  5.8876639   5.72258064  5.54730705  5.36184314  5.16618891
  4.95830629  4.74023334  4.51197006  4.27351647  4.02691061  3.77011443
  3.51128018  3.25040787  2.99361169  2.74700583  2.51670449  2.3067838
  2.12335796  1.96642696  1.83802887  1.73816368  1.66479335  1.61180366
  1.58123268  1.5628901   1.55881397  1.56085203  1.56900429  1.57919462
  1.58530881  1.58938494  1.58327075  1.56492816  1.53028106  1.47932944
  1.4059591   1.31017005  1.18992421  1.0452216   0.88013834  0.69875056
  0.50105827  0.29928984  0.09344528 -0.11036122 -0.30601545 -0.4894413
