sub,run,cat_cond,trial_type,picture,old,response_old,target_pos,response_pos,dot_resp_loc,cat_corr,TN_corr,TN_rt,feedback_type,trial,SP_timeseries,FB_timeseries,SP_peak_response,FB_peak_response,preStim_bl,anticipation
022,1,1,csm,53b.png,1,1,44,298,44,1,1,374,neu_feedback_onset,1,"[nan nan nan nan nan nan nan nan nan nan nan nan nan nan nan nan nan nan
 nan nan nan nan nan nan nan nan nan nan nan nan nan nan nan nan nan nan
 nan nan nan nan nan nan nan nan nan nan nan nan nan nan nan nan nan nan
 nan nan nan nan nan nan nan nan nan nan nan nan nan nan nan nan nan nan
 nan nan nan nan nan nan nan nan nan nan nan nan nan nan nan nan nan nan
 nan nan nan nan nan nan nan nan nan nan nan nan nan nan nan nan nan nan
 nan nan nan nan nan nan nan nan nan nan nan nan nan nan nan nan nan nan
 nan nan nan nan nan nan nan nan nan nan nan nan nan nan nan nan nan nan
 nan nan nan nan nan nan nan nan nan nan nan nan nan nan nan nan nan nan
 nan nan nan nan nan nan nan nan nan nan nan nan nan nan nan nan nan nan
 nan nan nan nan nan nan nan nan nan nan nan nan nan nan nan nan nan nan
 nan nan nan nan nan nan nan nan nan nan nan nan nan nan nan nan nan nan
 nan nan nan nan nan nan nan nan nan nan nan nan nan nan nan nan nan nan
 nan nan nan nan nan nan nan nan nan nan nan nan nan nan nan nan nan nan
 nan nan nan nan nan nan nan nan]","[nan nan nan nan nan nan nan nan nan nan nan nan nan nan nan nan nan nan
 nan nan nan nan nan nan nan nan nan nan nan nan nan nan nan nan nan nan
 nan nan nan nan nan nan nan nan nan nan nan nan nan nan nan nan nan nan
 nan nan nan nan nan nan nan nan nan nan nan nan nan nan nan nan nan nan
 nan nan nan nan nan nan nan nan nan nan nan nan nan nan nan nan nan nan
 nan nan nan nan nan nan nan nan nan nan nan nan nan nan nan nan nan nan
 nan nan nan nan nan nan nan nan nan nan nan nan nan nan nan nan nan nan
 nan nan nan nan nan nan nan nan nan nan nan nan nan nan]",,,5.403979999999999,-0.007630000000000692
022,1,1,csp,44a.png,1,1,336,126,155,0,1,332,neg_feedback_onset,2,"[ 2.20435848  2.078754    1.93305282  1.75971865  1.56126358  1.33517553
  1.08396659  0.81266093  0.52628274  0.224832   -0.08164291 -0.39062991
 -0.69961691 -1.00106764 -1.29247001 -1.56879985 -1.82252088 -2.04609684
 -2.23450355 -2.38271682 -2.48571249 -2.54349055 -2.55102682 -2.51083339
 -2.43295861 -2.3174025  -2.18174967 -2.02851222 -1.87527476 -1.72706148
 -1.59643283 -1.4859009  -1.40048986 -1.33517553 -1.28493374 -1.2472524
 -1.20705897 -1.16184136 -1.09652704 -1.011116   -0.89807197 -0.75237078
 -0.57903661 -0.37806946 -0.15198141  0.09922753  0.3680211   0.6543993
  0.95585003  1.2723733   1.6039691   1.95063744  2.31489041  2.69924009
  3.10368649  3.5282296   3.97035734  4.42755762  4.89480626  5.3595428
  5.81925517  6.26389499  6.68341393  7.0702757   7.42448031  7.74351567
  8.02486969  8.27607863  8.4971425   8.69559756  8.87395591  9.03975382
  9.19550336  9.34622873  9.49192991  9.64014319  9.79086855  9.94913019
 10.12246436 10.31338316 10.52942285 10.7781197  11.06198581 11.39106952
 11.76788294 12.19493814 12.66972304 13.18721346 13.74489732 14.33021416
 14.93562771 15.54857753 16.15901526 16.75940463 17.34472147 17.90994159
 18.455065   18.9775796  19.47999749 19.95980657 20.41700685 20.85159832
 21.26106889 21.64793067 22.00464737 22.33875526 22.64523017 22.93160837
 23.19788984 23.45161088 23.69779564 23.94146832 24.19016517 24.44891038
 24.72272813 25.00910632 25.31055706 25.62456823 25.94862777 26.27771149
 26.60930729 26.9409031  27.2724989  27.60409471 27.9382026  28.27733467
 28.62400301 28.9832318  29.35502104 29.73434654 30.11869623 30.49550964
 30.85473843 31.17879797 31.45010362 31.65358287 31.77165107 31.79174779
 31.70633675 31.51290586 31.21647931 30.82208127 30.34227218 29.7921246
 29.19424732 28.56120078 27.91810588 27.28003517 26.66206117 26.07674433
 25.53162093 25.03673931 24.58958739 24.19518935 23.84349683 23.53450983
 23.25817999 23.00948314 22.780883   22.56233122 22.3538278  22.14281228
 21.92677259 21.70068454 21.46454814 21.21585128 20.95459398 20.69082459
 20.42454311 20.1657979  19.92714941 19.7136218  19.53526346 19.39709854
 19.30163914 19.24888526 19.24134899 19.26898198 19.33178421 19.41970734
 19.53275137 19.66589211 19.81410538 19.9773912  20.15826163 20.35420461
 20.57275639 20.81642906 21.08773472 21.38918546 21.72580544 22.10261885
 22.51711361 22.96928971 23.45663506 23.97663757 24.52427306 25.08949319
 25.67229793 26.26012686 26.85046788 27.4382968  28.01607737 28.5787854
 29.11637254 29.6263267  30.09608742 30.51058218 30.85976261 31.13106827
 31.30440244 31.36971676 31.31696288 31.13609244 30.82961753 30.39753815
 29.84739057 29.19424732 28.45318093 27.63675187 26.76505684 25.85568046
 24.92118319 23.97663757 23.03711612 22.11769139 21.22841173 20.38686177
 19.60811405 18.91226528 18.31690008 17.83960309 17.49795893 17.29950386
 17.25177416 17.34723356 17.57834579 17.93003831 18.37467814 18.88714438
 19.44734033 20.02512089 20.60792564 21.18068203 21.73334171 22.26590467
 22.780883   23.28330089 23.7781825  24.27055203 24.76794574 25.27287571
 25.78282987 26.30283238 26.82283489 27.34283741 27.85027947 28.34013691
 28.80487345 29.23192866]","[ 2.25793958  2.10883036  1.92680093  1.71378776  1.47172734  1.20836561
  0.92370256  0.62935709  0.33113865  0.0348567  -0.24980635 -0.51897754
 -0.76878389 -0.99922541 -1.20836561 -1.40588691 -1.59178931 -1.77188226
 -1.9539117  -2.13787761 -2.32958947 -2.5232378  -2.71688613 -2.9066615
 -3.08288149 -3.23780015 -3.35786212 -3.43144849 -3.45081332 -3.40627421
 -3.29202169 -3.10999225 -2.86599535 -2.5697134  -2.24244771 -1.90356313
 -1.58017041 -1.29550736 -1.07474826 -0.93338497 -0.88497289 -0.93338497
 -1.07668474 -1.30518978 -1.60340821 -1.95778466 -2.3489543  -2.76142525
 -3.17970565 -3.59411309 -3.99690163 -4.37838885 -4.7327653  -5.06003098
 -5.35050349 -5.6041828  -5.81332301 -5.97598761 -6.09411309 -6.16963594
 -6.21223857 -6.23547637 -6.25677769 -6.29550736 -6.36715724 -6.49302866
 -6.67699458 -6.92292796 -7.2211464  -7.55422153 -7.89697909 -8.21649884
 -8.47986057 -8.65608056 -8.72385747 -8.66382649 -8.47017816 -8.14678544
 -7.70526723 -7.16886135 -6.56274206 -5.91014717 -5.24012393 -4.57397366
 -3.92912471 -3.31913246 -2.75755229 -2.24825716 -1.80092951 -1.42331526
 -1.11928737 -0.89852827 -0.76684741 -0.72811774 -0.78814872 -0.94306739
 -1.19093726 -1.52013943 -1.92292796 -2.383811   -2.89116964 -3.42951201
 -3.98528273 -4.54879938 -5.10844307 -5.65259489 -6.17350891 -6.66343919
 -7.10883036 -7.50580945 -7.84663052 -8.12354764 -8.33268784 -8.47017816
 -8.53408211 -8.52246321 -8.43919442 -8.28621224 -8.06738962 -7.78853602
 -7.46320682 -7.10302091 -6.72347018 -6.34004648 -5.97405112 -5.64484895
 -5.36599535 -5.15685515 -5.02711077 -4.98257165 -5.02904725 -5.16460108
 -5.38148722 -5.67002324 -6.02246321 -6.42331526 -6.86289698 -7.32765298
 -7.80596437 -8.29008521]",28.239464924951342,6.861178292183467e-15,3.9807499999999996,0.008575000000000443
022,1,1,csp,63a.png,1,1,220,93,222,1,1,253,pos_feedback_onset,3,"[ 4.31092927e+00  3.71729532e+00  3.10342385e+00  2.47830931e+00
  1.85544339e+00  1.25281498e+00  6.77169940e-01  1.46497166e-01
 -3.30208885e-01 -7.48450986e-01 -1.09923468e+00 -1.38480859e+00
 -1.60517271e+00 -1.75807842e+00 -1.85027158e+00 -1.88400078e+00
 -1.86376326e+00 -1.79630485e+00 -1.68387418e+00 -1.53771431e+00
 -1.36681968e+00 -1.17568754e+00 -9.80058172e-01 -7.88926028e-01
 -6.09036953e-01 -4.53882625e-01 -3.23463045e-01 -2.24524053e-01
 -1.57065649e-01 -1.16590607e-01 -9.86016997e-02 -9.41044728e-02
 -9.18558594e-02 -8.51100190e-02 -6.26238845e-02 -1.76516156e-02
  5.43040148e-02  1.55491620e-01  2.81413973e-01  4.29822461e-01
  5.96219856e-01  7.69363091e-01  9.42506327e-01  1.10665511e+00
  1.25506360e+00  1.38323456e+00  1.48217355e+00  1.55637780e+00
  1.60135007e+00  1.62158759e+00  1.62383620e+00  1.61259313e+00
  1.60135007e+00  1.59685284e+00  1.61034452e+00  1.65081956e+00
  1.72502381e+00  1.83745448e+00  1.99036019e+00  2.18149234e+00
  2.41085091e+00  2.66944146e+00  2.95276675e+00  3.25183234e+00
  3.56438961e+00  3.88144410e+00  4.20299583e+00  4.52679616e+00
  4.85059650e+00  5.18114268e+00  5.51618608e+00  5.86022394e+00
  6.21100764e+00  6.56853718e+00  6.92831533e+00  7.28134764e+00
  7.62088827e+00  7.93794277e+00  8.22351667e+00  8.47086415e+00
  8.67099075e+00  8.82164785e+00  8.92508407e+00  8.98129941e+00
  8.99928831e+00  8.98804525e+00  8.95881327e+00  8.91833823e+00
  8.87786319e+00  8.84413399e+00  8.82164785e+00  8.81265340e+00
  8.81715062e+00  8.82614508e+00  8.83738815e+00  8.84413399e+00
  8.83963676e+00  8.81715062e+00  8.77442697e+00  8.70921718e+00
  8.61927264e+00  8.51583642e+00  8.39890852e+00  8.28198062e+00
  8.17179856e+00  8.08185403e+00  8.02114146e+00  7.99865533e+00
  8.02114146e+00  8.09309709e+00  8.21677083e+00  8.38541684e+00
  8.59678651e+00  8.83963676e+00  9.10272453e+00  9.37705537e+00
  9.64688899e+00  9.90323092e+00  1.01348381e+01  1.03394619e+01
  1.05103566e+01  1.06520192e+01  1.07644499e+01  1.08543944e+01
  1.09285987e+01  1.09915598e+01  1.10545210e+01  1.11197308e+01
  1.11894378e+01  1.12703879e+01  1.13603324e+01  1.14615200e+01
  1.15739507e+01  1.16998731e+01  1.18392871e+01  1.19921928e+01
  1.21585902e+01  1.23362307e+01  1.25206170e+01  1.27027547e+01
  1.28736493e+01  1.30243064e+01  1.31434829e+01  1.32221844e+01
  1.32581622e+01  1.32469191e+01  1.31952010e+01  1.31052565e+01
  1.29905772e+01  1.28556604e+01  1.27095005e+01  1.25565948e+01
  1.24014405e+01  1.22395403e+01  1.20708943e+01  1.18932538e+01
  1.17066189e+01  1.15154868e+01  1.13288518e+01  1.11647031e+01
  1.10410293e+01  1.09758195e+01  1.09938084e+01  1.11107363e+01
  1.13333491e+01  1.16638953e+01  1.20978776e+01  1.26173074e+01
  1.31974496e+01  1.38113211e+01  1.44251926e+01  1.50120807e+01
  1.55405048e+01  1.59879789e+01  1.63387626e+01  1.65816129e+01
  1.67142811e+01  1.67457616e+01  1.66828005e+01  1.65388892e+01
  1.63320168e+01  1.60846693e+01  1.58080898e+01  1.55270132e+01
  1.52571795e+01  1.50098321e+01  1.48029596e+01  1.46478053e+01
  1.45488663e+01  1.45151371e+01  1.45533635e+01  1.46612970e+01
  1.48411861e+01  1.50840363e+01  1.53831019e+01  1.57271398e+01
  1.61026582e+01  1.64894197e+01  1.68671868e+01  1.72202191e+01
  1.75260305e+01  1.77733780e+01  1.79487698e+01  1.80432116e+01
  1.80544547e+01  1.79824990e+01  1.78295933e+01  1.76047320e+01
  1.73169095e+01  1.69728716e+01  1.65838615e+01  1.61611221e+01
  1.57136481e+01  1.52526823e+01  1.47872193e+01  1.43217563e+01
  1.38652878e+01  1.34245596e+01  1.30018203e+01  1.25993184e+01
  1.22170542e+01  1.18550274e+01  1.15064923e+01  1.11624545e+01
  1.08139194e+01  1.04496440e+01  1.00538880e+01  9.61540840e+00
  9.12745928e+00  8.58104621e+00  7.97392058e+00  7.31282823e+00
  6.60676360e+00  5.86921839e+00  5.11818150e+00  4.36939322e+00
  3.64533969e+00  2.96400982e+00  2.33664667e+00  1.77674192e+00
  1.28654418e+00  8.66053470e-01  5.13021158e-01  2.16204183e-01
 -2.88946828e-02 -2.33518507e-01 -4.06661742e-01 -5.55070230e-01
 -6.83241196e-01 -7.95671869e-01 -8.92362247e-01 -9.73312331e-01
 -1.03177628e+00 -1.06775410e+00 -1.07674855e+00 -1.05201380e+00
 -9.93549852e-01 -8.96859474e-01 -7.64191281e-01 -5.93296658e-01]","[  1.56293245   1.60247033   1.52339456   1.3434972    1.09243166
   0.79589755   0.48157139   0.17515281  -0.10754304  -0.3526779
  -0.55036731  -0.70061126  -0.80736354  -0.87260104  -0.90423134
  -0.91016203  -0.89632377  -0.86667036  -0.82713248  -0.78166391
  -0.73026467  -0.67688853  -0.62153549  -0.56618246  -0.50687564
  -0.44756882  -0.38430821  -0.31709381  -0.24592562  -0.16684986
  -0.07986652   0.01897818   0.12770736   0.246321     0.37481911
   0.50727102   0.63774602   0.76031346   0.86508884   0.93823392
   0.97184112   0.94811839   0.85718127   0.68321459   0.41633389
   0.04467781  -0.43966124  -1.04063703  -1.75824958  -2.58854509
  -3.51966219  -4.53380884  -5.60923921  -6.72420746  -7.84708329
  -8.95216707 -10.01178229 -11.00418311 -11.9056468  -12.704312
 -13.38831735 -13.95766284 -14.41234847 -14.76028183 -15.01332427
 -15.18136026 -15.28020496 -15.32171974 -15.32171974 -15.29008943
 -15.2347364  -15.16554511 -15.08844624 -15.00739358 -14.92634093
 -14.85121895 -14.78005077 -14.72074394 -14.67132159 -14.63376061
 -14.61201477 -14.6041072  -14.60806098 -14.62585303 -14.64957576
 -14.67725228 -14.7029519  -14.72074394 -14.72469773 -14.71283637
 -14.68318296 -14.63376061 -14.5685231  -14.48549355 -14.39060264
 -14.28582725 -14.1711674  -14.05057686 -13.92010185 -13.78171927
 -13.63147532 -13.47332379 -13.30133401 -13.11748286 -12.92177035
 -12.71617337 -12.49871502 -12.26939531 -12.02821423 -11.771218
 -11.49642973 -11.19989562 -10.87766189 -10.52972853 -10.15411866
  -9.74885538  -9.31986937  -8.86913752  -8.40061363  -7.91825148
  -7.43193554  -6.93968892  -6.44941919  -5.95914946  -5.47283352
  -4.98849448  -4.50217854  -4.0158626   -3.52559287  -3.03136935
  -2.53121516  -2.02710717  -1.52695297  -1.03470635  -0.55827488
  -0.11149683   0.29376646   0.64367671   0.92637256   1.13196954]",15.380403558655662,-0.03477450793222321,4.447184999999999,0.6508650000000005
022,1,1,csm,29b.png,1,1,216,120,215,1,1,362,neu_feedback_onset,4,"[-4.77282586e+00 -4.14105037e+00 -3.50711126e+00 -2.87749938e+00
 -2.25870557e+00 -1.65722069e+00 -1.07737194e+00 -5.27813808e-01
 -1.28735075e-02  4.58794499e-01  8.82862982e-01  1.25716833e+00
  1.57954692e+00  1.85432599e+00  2.08366914e+00  2.27406724e+00
  2.43201111e+00  2.56399161e+00  2.67649957e+00  2.76953501e+00
  2.84526152e+00  2.90151550e+00  2.93396972e+00  2.93613334e+00
  2.90367912e+00  2.83227983e+00  2.71760825e+00  2.56615522e+00
  2.38008436e+00  2.17454096e+00  1.95817949e+00  1.75047248e+00
  1.57089246e+00  1.43242112e+00  1.35669460e+00  1.35669460e+00
  1.44107558e+00  1.62065560e+00  1.89759828e+00  2.26974001e+00
  2.73058994e+00  3.27149362e+00  3.87514212e+00  4.52422653e+00
  5.19494709e+00  5.86783127e+00  6.51907930e+00  7.12056418e+00
  7.65497702e+00  8.10068165e+00  8.44686000e+00  8.68269400e+00
  8.80385643e+00  8.81900173e+00  8.73894799e+00  8.57884050e+00
  8.36464264e+00  8.12015418e+00  7.87566572e+00  7.66146786e+00
  7.50352399e+00  7.43428832e+00  7.47323338e+00  7.63766810e+00
  7.94057416e+00  8.38844240e+00  8.97478199e+00  9.69093846e+00
  1.05152757e+01  1.14261575e+01  1.23889660e+01  1.33690835e+01
  1.43340556e+01  1.52471010e+01  1.60757655e+01  1.67940855e+01
  1.73804251e+01  1.78261298e+01  1.81268722e+01  1.82869797e+01
  1.83172703e+01  1.82328893e+01  1.80511457e+01  1.77915119e+01
  1.74691333e+01  1.71013188e+01  1.67010501e+01  1.62834725e+01
  1.58594040e+01  1.54310083e+01  1.50134306e+01  1.46045075e+01
  1.42150568e+01  1.38450787e+01  1.34967367e+01  1.31721945e+01
  1.28714521e+01  1.25923458e+01  1.23370392e+01  1.21012052e+01
  1.18848438e+01  1.16879548e+01  1.15062112e+01  1.13374492e+01
  1.11751781e+01  1.10150707e+01  1.08506359e+01  1.06775468e+01
  1.04914759e+01  1.02859325e+01  1.00652438e+01  9.82940980e+00
  9.58708495e+00  9.34476010e+00  9.11325333e+00  8.89905547e+00
  8.71298461e+00  8.56153158e+00  8.44469639e+00  8.36680626e+00
  8.32137035e+00  8.30406143e+00  8.30838866e+00  8.31920673e+00
  8.33218842e+00  8.33218842e+00  8.31487950e+00  8.26727998e+00
  8.18506262e+00  8.06822743e+00  7.91028355e+00  7.71339461e+00
  7.48405146e+00  7.22441769e+00  6.94098416e+00  6.64456895e+00
  6.34382650e+00  6.04741129e+00  5.76830499e+00  5.51299846e+00
  5.29230976e+00  5.11272974e+00  4.98074924e+00  4.90069549e+00
  4.87473212e+00  4.90285911e+00  4.97858562e+00  5.09974805e+00
  5.25769192e+00  5.43727194e+00  5.62334281e+00  5.80508644e+00
  5.96086670e+00  6.07553828e+00  6.13611949e+00  6.13179226e+00
  6.05822936e+00  5.91975802e+00  5.72286908e+00  5.48270785e+00
  5.21658324e+00  4.95045863e+00  4.70813378e+00  4.50908123e+00
  4.37710073e+00  4.32301037e+00  4.35330097e+00  4.47013617e+00
  4.66702511e+00  4.93098610e+00  5.24471023e+00  5.58656136e+00
  5.94139417e+00  6.29189975e+00  6.61860557e+00  6.91718440e+00
  7.17465455e+00  7.39534325e+00  7.57492327e+00  7.71988546e+00
  7.83239342e+00  7.91893801e+00  7.98817368e+00  8.04442766e+00
  8.09202719e+00  8.13746310e+00  8.17857178e+00  8.22184407e+00
  8.26727998e+00  8.31487950e+00  8.37113349e+00  8.44036916e+00
  8.52475013e+00  8.63293086e+00  8.76923859e+00  8.94449138e+00
  9.16301647e+00  9.42481385e+00  9.72988352e+00  1.00760619e+01
  1.04503672e+01  1.08419815e+01  1.12314321e+01  1.15992466e+01
  1.19237888e+01  1.21877498e+01  1.23738207e+01  1.24733470e+01
  1.24841650e+01  1.24106021e+01  1.22699672e+01  1.20817327e+01
  1.18675349e+01  1.16511734e+01  1.14564481e+01  1.13028314e+01
  1.11968143e+01  1.11427239e+01  1.11340695e+01  1.11578692e+01
  1.11924871e+01  1.12184504e+01  1.12141232e+01  1.11621965e+01
  1.10496885e+01  1.08765993e+01  1.06429289e+01  1.03594954e+01
  1.00436077e+01  9.71257460e+00  9.38154155e+00  9.06565381e+00
  8.77356582e+00  8.50311398e+00  8.25429829e+00  8.01630067e+00
  7.77397583e+00  7.51650568e+00  7.23090853e+00  6.91069356e+00
  6.54720629e+00  6.14477395e+00  5.70339655e+00  5.22956493e+00
  4.73193355e+00  4.22132048e+00  3.70205295e+00  3.18494903e+00
  2.67433596e+00  2.17886819e+00  1.70287296e+00  1.25284110e+00
  8.28772614e-01  4.39321966e-01  8.66527690e-02 -2.24907749e-01
 -4.97523202e-01 -7.31193591e-01 -9.21591685e-01 -1.07737194e+00]","[ 1.87335008  1.85002597  1.76945178  1.63162749  1.43443275  1.18210829
  0.88525598  0.5544777   0.20461605 -0.14736597 -0.482385   -0.78559842
 -1.04004326 -1.23511763 -1.36021967 -1.41322901 -1.39626602 -1.3178122
 -1.18846941 -1.01883952 -0.82588552 -0.62232965 -0.42301454 -0.23430128
 -0.06679177  0.07739364  0.20249568  0.30639399  0.39544968  0.46966275
  0.53539434  0.5862833   0.61808891  0.62232965  0.58840368  0.50358873
  0.35516258  0.13464372 -0.16008821 -0.53115359 -0.96795055 -1.45987723
 -1.98785026 -2.52854553 -3.06075931 -3.55692673 -3.99796444 -4.3626687
 -4.64255802 -4.82703052 -4.91608621 -4.92032696 -4.84823426 -4.71889147
 -4.55350233 -4.3711502  -4.19303881 -4.03613117 -3.90890875 -3.82197343
 -3.77532521 -3.76260297 -3.77956596 -3.81561231 -3.86226053 -3.91526987
 -3.96403846 -4.00856631 -4.04249229 -4.0658164  -4.07641826 -4.07429789
 -4.05945528 -4.02764967 -3.97888108 -3.9131495  -3.83045493 -3.73079737
 -3.61629719 -3.49331552 -3.36609311 -3.24523181 -3.13285201 -3.03955557
 -2.96746287 -2.92081465 -2.89961091 -2.90597203 -2.93353689 -2.98442586
 -3.05015744 -3.13285201 -3.22826882 -3.33640788 -3.45726917 -3.59085271
 -3.74139923 -3.904668   -4.08489976 -4.27997413 -4.48989112 -4.71465072
 -4.95001219 -5.20021628 -5.46314261 -5.73879118 -6.03140273 -6.34097728
 -6.67175556 -7.01949684 -7.3842011  -7.75738685 -8.13057261 -8.49315649
 -8.82605515 -9.11442596 -9.34342631 -9.49609321 -9.56394517 -9.54062106
 -9.43036163 -9.23528726 -8.97236093 -8.65854564 -8.31716548 -7.97154459
 -7.64288668 -7.35451587 -7.12551552 -6.96436712 -6.8774318  -6.86470956
 -6.9177189  -7.02585796 -7.17640448 -7.34603437 -7.52202538 -7.68529415
 -7.82311843 -7.92701674]",13.807539980895296,9.658940314238861e-16,4.621894999999999,-0.03866000000000014
022,1,1,csp,43a.png,1,1,4,79,185,1,1,456,neg_feedback_onset,5,"[ 3.75932625e+00  3.37769663e+00  2.99332148e+00  2.61718294e+00
  2.24378994e+00  1.87588801e+00  1.50798608e+00  1.14557522e+00
  7.77673295e-01  4.01534755e-01  1.71596049e-02 -3.86434303e-01
 -8.09246968e-01 -1.25402393e+00 -1.72351072e+00 -2.22045288e+00
 -2.74210487e+00 -3.28846669e+00 -3.85404726e+00 -4.43884660e+00
 -5.03462808e+00 -5.64139171e+00 -6.25364642e+00 -6.86315558e+00
 -7.46442814e+00 -8.05471855e+00 -8.62304466e+00 -9.16391541e+00
 -9.66085757e+00 -1.01083801e+01 -1.04900097e+01 -1.07920187e+01
 -1.10089161e+01 -1.11297197e+01 -1.11571751e+01 -1.10912822e+01
 -1.09402777e+01 -1.07178892e+01 -1.04460811e+01 -1.01385810e+01
 -9.82284424e+00 -9.51259858e+00 -9.22706276e+00 -8.97721891e+00
 -8.76581258e+00 -8.59558930e+00 -8.46380353e+00 -8.35672759e+00
 -8.26887042e+00 -8.18650431e+00 -8.10139267e+00 -7.99980781e+00
 -7.87625866e+00 -7.72525413e+00 -7.54953978e+00 -7.34637006e+00
 -7.11849050e+00 -6.86864666e+00 -6.60232959e+00 -6.32228484e+00
 -6.03674901e+00 -5.74846765e+00 -5.45744075e+00 -5.16641385e+00
 -4.87538695e+00 -4.57886898e+00 -4.27960547e+00 -3.97485088e+00
 -3.65636862e+00 -3.32415866e+00 -2.98096657e+00 -2.62130125e+00
 -2.25339932e+00 -1.87726078e+00 -1.49837670e+00 -1.12498370e+00
 -7.57081769e-01 -4.05653060e-01 -7.06975723e-02  2.45039158e-01
  5.41557131e-01  8.18856347e-01  1.08517341e+00  1.34050834e+00
  1.59035218e+00  1.83470496e+00  2.08180327e+00  2.33164712e+00
  2.58149096e+00  2.83133481e+00  3.08666973e+00  3.33925912e+00
  3.59459404e+00  3.84443789e+00  4.09702727e+00  4.34412558e+00
  4.58847835e+00  4.83283113e+00  5.07169283e+00  5.31055453e+00
  5.54392516e+00  5.77455025e+00  6.00517534e+00  6.23030935e+00
  6.45818891e+00  6.68881400e+00  6.92493016e+00  7.16928293e+00
  7.43010893e+00  7.70466261e+00  7.99568951e+00  8.30868070e+00
  8.63539958e+00  8.98133721e+00  9.33551146e+00  9.69517678e+00
  1.00548421e+01  1.04062708e+01  1.07439718e+01  1.10624541e+01
  1.13562265e+01  1.16197981e+01  1.18586598e+01  1.20700661e+01
  1.22622537e+01  1.24407136e+01  1.26109368e+01  1.27866512e+01
  1.29815843e+01  1.32039728e+01  1.34675443e+01  1.37832811e+01
  1.41594196e+01  1.46069421e+01  1.51231030e+01  1.57106479e+01
  1.63640856e+01  1.70779252e+01  1.78384389e+01  1.86291535e+01
  1.94418324e+01  2.02572568e+01  2.10589535e+01  2.18386860e+01
  2.25772354e+01  2.32718562e+01  2.39143118e+01  2.44963656e+01
  2.50180176e+01  2.54737767e+01  2.58663885e+01  2.61931073e+01
  2.64621699e+01  2.66735763e+01  2.68355629e+01  2.69563666e+01
  2.70442237e+01  2.71128622e+01  2.71732640e+01  2.72364113e+01
  2.73132863e+01  2.74121257e+01  2.75384204e+01  2.76949160e+01
  2.78816125e+01  2.80957643e+01  2.83291349e+01  2.85789788e+01
  2.88398048e+01  2.91088674e+01  2.93861666e+01  2.96717024e+01
  2.99709659e+01  3.02921938e+01  3.06408769e+01  3.10279976e+01
  3.14535558e+01  3.19285337e+01  3.24446946e+01  3.30020386e+01
  3.35923290e+01  3.41963471e+01  3.47976196e+01  3.53824190e+01
  3.59232897e+01  3.64065042e+01  3.68155892e+01  3.71340714e+01
  3.73564599e+01  3.74745180e+01  3.74937367e+01  3.74141162e+01
  3.72384018e+01  3.69775758e+01  3.66371293e+01  3.62280443e+01
  3.57585575e+01  3.52369055e+01  3.46685794e+01  3.40618158e+01
  3.34303423e+01  3.27769045e+01  3.21152302e+01  3.14590469e+01
  3.08220824e+01  3.02180643e+01  2.96607203e+01  2.91692692e+01
  2.87492021e+01  2.84142466e+01  2.81644027e+01  2.80024161e+01
  2.79200500e+01  2.79090678e+01  2.79612330e+01  2.80600723e+01
  2.81918581e+01  2.83428626e+01  2.85048493e+01  2.86668360e+01
  2.88233316e+01  2.89688450e+01  2.90923942e+01  2.91912335e+01
  2.92516353e+01  2.92653630e+01  2.92214344e+01  2.91088674e+01
  2.89249164e+01  2.86640904e+01  2.83346260e+01  2.79502509e+01
  2.75274382e+01  2.70881523e+01  2.66571030e+01  2.62617457e+01
  2.59130626e+01  2.56275268e+01  2.54106293e+01  2.52596248e+01
  2.51635310e+01  2.51086203e+01  2.50839105e+01  2.50729283e+01
  2.50619462e+01  2.50427274e+01  2.50180176e+01  2.49850711e+01
  2.49493792e+01  2.49219238e+01  2.49081961e+01  2.49246693e+01
  2.49768345e+01  2.50701828e+01  2.52129507e+01  2.54106293e+01
  2.56659643e+01  2.59762099e+01  2.63441119e+01  2.67614334e+01]","[-0.84888042 -0.77812251 -0.69449954 -0.6065882  -0.52082105 -0.43934225
 -0.36644017 -0.30425898 -0.24636615 -0.19276168 -0.13486885 -0.06625513
  0.01951203  0.13315351  0.27466931  0.45478034  0.66919823  0.92221133
  1.20738713  1.51829306  1.84635243  2.17655598  2.49603863  2.79407949
  3.05566932  3.27223138  3.43947733  3.55526299  3.62816508  3.66890447
  3.69249044  3.71178805  3.75038327  3.81685282  3.92191758  4.06772175
  4.24783277  4.44938559  4.65522676  4.84177032  4.98328613  5.05618821
  5.04975567  4.95112344  4.75814734  4.48154827  4.13204711  3.72465313
  3.2808081   2.8133771   2.33951357  1.87208258  1.41751665  0.9865367
  0.58128689  0.21463231 -0.11128288 -0.38144942 -0.58943477 -0.72022968
 -0.76740162 -0.72237386 -0.57871388 -0.33856584 -0.0083623   0.39903169
  0.87075104  1.38320979  1.91925451  2.45744341  2.98062306  3.46949584
  3.91548505  4.30786978  4.64236168  4.9146724   5.12480193  5.27275027
  5.36066161  5.39068011  5.36923832  5.29848042  5.18483894  5.03474642
  4.85677957  4.65522676  4.43652051  4.20923755  3.98195459  3.75681581
  3.5445421   3.351566    3.18860841  3.06639021  2.98919977  2.96990216
  3.01278574  3.11999468  3.29152899  3.51881195  3.79112267  4.09345189
  4.40864619  4.71740795  5.00687209  5.2598852   5.47001473  5.63297233
  5.74661381  5.81737171  5.84953439  5.84953439  5.82594842  5.78520903
  5.73589291  5.68228844  5.62868397  5.58365621  5.54934935  5.5343401
  5.54506099  5.58151203  5.65226993  5.7573347   5.89670633  6.0618081
  6.24620748  6.43918358  6.62572714  6.79082892  6.92162383  7.00953516
  7.05241874  7.05027456  7.0159677   6.96021905  6.9044704   6.87016354
  6.88088443  6.94949815]",33.43569609653307,6.269180828712891,3.642275,-0.019705000000000084
022,1,1,csm,23b.png,1,1,260,298,260,1,1,472,neu_feedback_onset,6,"[  0.59616359   0.70701443   0.74979896   0.73035145   0.65645089
   0.54171055   0.39779893   0.24027405   0.08274918  -0.06116244
  -0.18368178  -0.28091936  -0.35287517  -0.40343871  -0.44038899
  -0.47344977  -0.51428955  -0.57068734  -0.65431166  -0.76710725
  -0.91490837  -1.09382551  -1.29996918  -1.52750511  -1.7725438
  -2.03508526  -2.30929523  -2.60100796  -2.91216821  -3.25055498
  -3.61811303  -4.02262135  -4.4621352   -4.93470983  -5.43451098
  -5.95181489  -6.47884256  -7.00587023  -7.52706365  -8.03658856
  -8.53833446  -9.0342461   -9.53404725 -10.04940641 -10.58615784
 -11.15208054 -11.75495353 -12.39477679 -13.06766082 -13.76777138
 -14.48538471 -15.20883228 -15.93033511 -16.63433517 -17.31499822
 -17.95871098 -18.55963921 -19.1061144  -19.59619179 -20.01820287
 -20.37214766 -20.65219188 -20.86222505 -20.99835766 -21.07031346
 -21.08587148 -21.0489212  -20.97307589 -20.8680593  -20.74553996
 -20.6113521  -20.47716424 -20.34686589 -20.22823604 -20.11932996
 -20.02598188 -19.94624707 -19.88012551 -19.82372772 -19.77705368
 -19.7362139  -19.69926362 -19.66620284 -19.63119732 -19.59424704
 -19.5514625  -19.50089896 -19.43672216 -19.35504259 -19.25197076
 -19.12361716 -18.96609228 -18.77745138 -18.55769446 -18.30876626
 -18.03844579 -17.75062256 -17.45890983 -17.16914185 -16.89298713
 -16.64211418 -16.41846775 -16.2317716  -16.08397048 -15.97311964
 -15.89921909 -15.86226881 -15.86032405 -15.89532958 -15.96534064
 -16.07230197 -16.22399259 -16.41846775 -16.66156169 -16.95521918
 -17.29749545 -17.68839051 -18.12207011 -18.59464474 -19.09639064
 -19.61758405 -20.15239073 -20.69108691 -21.22394884 -21.74125275
 -22.2371644  -22.70584952 -23.13758437 -23.52653468 -23.8707557
 -24.16441319 -24.40556238 -24.59031378 -24.72255688 -24.80423645
 -24.83729722 -24.82951822 -24.78284418 -24.70894362 -24.61170604
 -24.4969657  -24.37444635 -24.24609275 -24.1157944  -23.98549604
 -23.85714244 -23.72878884 -23.60043524 -23.46430263 -23.31844626
 -23.15508713 -22.97228048 -22.76030256 -22.51331912 -22.22549589
 -21.89488812 -21.51760632 -21.09365048 -20.62885486 -20.12516421
 -19.59424704 -19.04777185 -18.49351766 -17.94315297 -17.40445679
 -16.88131862 -16.37373846 -15.87393731 -15.37608092 -14.86850076
 -14.33758359 -13.77555039 -13.17851166 -12.54646741 -11.88719663
 -11.22014685 -10.56282082  -9.94438983  -9.39402514  -8.93506377
  -8.59473225  -8.38664384  -8.32246703  -8.4041466   -8.62584828
  -8.9700693   -9.42125166  -9.95411359 -10.54726281 -11.17736231
 -11.82301983 -12.46673259 -13.0968321  -13.70359458 -14.2850753
 -14.83543999 -15.3605229  -15.8583793  -16.33095393 -16.77824679
 -17.19831312 -17.58726343 -17.93731871 -18.24264471 -18.49546241
 -18.68993756 -18.82412542 -18.89802598 -18.91163924 -18.87663371
 -18.8007884  -18.69382707 -18.57130772 -18.44295412 -18.32043477
 -18.21152868 -18.12401486 -18.05983806 -18.02288778 -18.01510877
 -18.03650104 -18.08511983 -18.16096514 -18.26209222 -18.38461157
 -18.52657843 -18.68410331 -18.84746244 -19.01082157 -19.16640169
 -19.30642381 -19.4269984  -19.52034648 -19.58841278 -19.63119732
 -19.65064483 -19.65647909 -19.65258958 -19.64870008 -19.65258958
 -19.66814759 -19.69537412 -19.73426915 -19.78288794 -19.83150673
 -19.87234651 -19.89762828 -19.89957303 -19.87234651 -19.81400396
 -19.72065589 -19.59619179 -19.44255641 -19.26558402 -19.06916412
 -18.8571862  -18.63742927 -18.40989334 -18.18041266 -17.95093197]","[-4.89516429 -4.21566841 -3.54958364 -2.90361552 -2.27999924 -1.68767553
 -1.1266444  -0.60361139 -0.12304687  0.31728434  0.71291187  1.07277647
  1.39687812  1.69862793  1.98249628  2.25965907  2.53905704  2.82739575
  3.12914557  3.44877685  3.78181924  4.12380236  4.47472622  4.82565008
  5.17657393  5.52302742  5.86501054  6.2025233   6.53780087  6.86860807
  7.19494491  7.50787064  7.8029149   8.06890178  8.29912571  8.4801756
  8.60534589  8.67463659  8.68804769  8.64781438  8.5628774   8.44217747
  8.29912571  8.14042766  7.97502406  7.81185564  7.65315759  7.50340027
  7.36481888  7.23964858  7.13459495  7.04742278  6.98483763  6.94907469
  6.94236914  6.97142653  7.03401167  7.13012458  7.25529487  7.402817
  7.56598542  7.73362421  7.89232226  8.03090365  8.14042766  8.20971836
  8.23430538  8.21195354  8.14713321  8.04207957  7.90349817  7.74256494
  7.56598542  7.38270035  7.19941528  7.01836539  6.84178587  6.67414708
  6.51097866  6.35228061  6.20028812  6.05276598  5.90971422  5.77336801
  5.64372735  5.52526261  5.42244415  5.3330368   5.25927573  5.20786651
  5.17210357  5.15869246  5.16539801  5.18998504  5.23468871  5.29280349
  5.36879974  5.45597191  5.55655518  5.663844    5.77560319  5.89406793
  6.01476786  6.13546778  6.25169734  6.36122135  6.46180462  6.54897679
  6.61826749  6.66744153  6.69649892  6.70096929  6.68308782  6.64285451
  6.5892101   6.52438977  6.45733425  6.39474911  6.35004543  6.32769359
  6.33663433  6.381338    6.4640398   6.58250455  6.73449704  6.91107657
  7.10330237  7.30223373  7.49892991  7.68221498  7.84091303  7.97278887
  8.06890178  8.12478137  8.14042766  8.10913508  8.03090365  7.90349817
  7.72468347  7.49669472]",-0.09130608541935019,6.927840443639278,5.142045000000001,-0.270305
022,1,1,csm,18b.png,1,1,188,132,188,1,1,351,neu_feedback_onset,7,"[  0.78045829   0.77411138   0.74449247   0.69160156   0.61543865
   0.51177246   0.38906554   0.25154917   0.10345462  -0.04040866
  -0.17792503  -0.29428503  -0.38948867  -0.45930467  -0.5016174
  -0.52912068  -0.54604577  -0.57354904  -0.62643996  -0.72375923
  -0.88877888  -1.13630834  -1.48327272  -1.93601892  -2.49666258
  -3.16097243  -3.91625465  -4.74135286  -5.61722636  -6.51425622
  -7.40282353  -8.26177193  -9.06359815  -9.78926145 -10.4302993
 -10.97824914 -11.43522662 -11.80969427 -12.11223028 -12.35975975
 -12.56920776 -12.75961504 -12.94367541 -13.13831396 -13.35199325
 -13.58894453 -13.85128345 -14.1326631  -14.4288522  -14.72927258
 -15.02334605 -15.29626315 -15.54167698 -15.74689372 -15.90345081
 -16.00923264 -16.06000791 -16.05154537 -15.99019191 -15.8738319
 -15.70881226 -15.49724861 -15.24760351 -14.96622386 -14.65945658
 -14.33787984 -14.01418746 -13.69895763 -13.40488416 -13.14466087
 -12.93098159 -12.77442449 -12.67710522 -12.64325503 -12.66864267
 -12.74692122 -12.8675125  -13.01560705 -13.17639542 -13.33506816
 -13.47470016 -13.58259762 -13.64818235 -13.66510744 -13.62279471
 -13.51912853 -13.34776197 -13.11081069 -12.80192777 -12.42534448
 -11.98106082 -11.47330807 -10.91478005 -10.31182366  -9.68347963
  -9.04667306  -8.42044466  -7.82806646  -7.28857916  -6.81890787
  -6.43386203  -6.14401984  -5.94938128  -5.84994637  -5.83936819
  -5.90706855  -6.04035365  -6.22441402  -6.44867149  -6.70254786
  -6.97969624  -7.2737697   -7.58265263  -7.90211373  -8.23003738
  -8.56219231  -8.89434723  -9.21592397  -9.51634435  -9.78714582
 -10.01351892 -10.18488547 -10.29278293 -10.33298002 -10.30124548
 -10.20181056 -10.04313783  -9.83157418  -9.58192908  -9.3047807
  -9.01282287  -8.7187494   -8.43102285  -8.15387447  -7.89153555
  -7.64400608  -7.4070548   -7.17856606  -6.95219296  -6.72158859
  -6.48040603  -6.22864529  -5.96419074  -5.69338927  -5.4225878
  -5.16448016  -4.92964451  -4.73500596  -4.5869114   -4.4938234
  -4.45574194  -4.46632013  -4.51074849  -4.57421758  -4.63345541
  -4.66095868  -4.63768668  -4.54671431  -4.37746339  -4.12570266
  -3.79989464  -3.41273317  -2.98325897  -2.53685968  -2.09257602
  -1.67368     -1.29286544  -0.96071052  -0.67933087  -0.44661086
  -0.25408794  -0.08906829   0.06114189   0.21135208   0.37002482
   0.54562264   0.74660811   0.97298121   1.22262631   1.4891965
   1.76211361   2.03291507   2.28679145   2.51104891   2.68876237
   2.80935365   2.86224456   2.8410882    2.74165329   2.56605546
   2.31641036   1.99906489   1.62671287   1.20358558   0.74449247
   0.25366481  -0.25620358  -0.77876578  -1.30555926  -1.8302371
  -2.34010549  -2.83304878  -3.2984888   -3.73007864  -4.12781829
  -4.48747649  -4.80905323  -5.09677979  -5.35700307  -5.59395436
  -5.81609619  -6.0318911   -6.24557039  -6.4613653   -6.68350713
  -6.91622714  -7.15529406  -7.40282353  -7.6566999   -7.91480755
  -8.17714647  -8.44160103  -8.70605559  -8.97051014  -9.2349647
  -9.49941926  -9.76598945 -10.03044401 -10.29489857 -10.55723749
 -10.82169204 -11.08403096 -11.34636989 -11.60659317 -11.86681645
 -12.12069283 -12.37245357 -12.61575176 -12.85270304 -13.07907614
 -13.29275543 -13.49162525 -13.67568562 -13.83858963 -13.98245291
 -14.10304419 -14.20036347 -14.26806383 -14.31037656 -14.32095474
 -14.30191402 -14.25325438 -14.17709147 -14.07130964 -13.94437145
 -13.7962769  -13.6333729  -13.45565943 -13.26948343 -13.07696051]","[-5.20965193 -4.72688692 -4.24412192 -3.75855013 -3.26455803 -2.76214561
 -2.24569932 -1.70679885 -1.14825096 -0.56444211  0.04182092  0.66773137
  1.31328923  1.97007418  2.63527946  3.30048473  3.96288323  4.61405464
  5.25399895  5.87148908  6.47213856  7.04752709  7.59484789  8.11690772
  8.60809305  9.06840387  9.49222664  9.88236813 10.23321479 10.54476663
 10.81702364 11.0527926  11.24926673 11.40925281 11.52994406 11.61414726
 11.65905563 11.66747595 11.64221499 11.58327275 11.49064923 11.37276476
 11.23242609 11.08086033 10.91806748 10.75246786 10.589675   10.43810925
 10.29777058 10.17146578 10.0648084   9.97779842  9.91604941  9.87956136
  9.87394781  9.89920877  9.96657133 10.07322872 10.22479447 10.42126861
 10.65703756 10.9264878  11.22400577 11.53836438 11.85833654 12.16988837
 12.45898603 12.72282272 12.94736458 13.13261162 13.2813706  13.39644831
 13.48626505 13.55924116 13.62941049 13.70519337 13.79501012 13.90447428
 14.0391994  14.19918547 14.38162574 14.58090664 14.79422142 15.01876328
 15.24611192 15.47065378 15.69519565 15.90851042 16.11621164 16.31549255
 16.50635313 16.69440694 16.87965398 17.07051457 17.27260224 17.49995088
 17.75817403 18.05849877 18.40934543 18.81913433 19.2850587  19.80992531
 20.38250707 20.99999719 21.64555505 22.30795355 22.96473851 23.61029637
 24.22778649 24.81159534 25.35049582 25.84448792 26.29076487 26.69494023
 27.05420721 27.37698614 27.66889057 27.94114758 28.19656395 28.45198032
 28.71020346 28.98246047 29.27155812 29.58030319 29.90308212 30.23147459
 30.55986707 30.87141891 31.15209624 31.3878652  31.56469191 31.67415607
 31.70783735 31.66292898 31.54785127 31.36260424 31.12402851 30.83773763
 30.51776547 30.1781459 ]",0.25387637489921044,29.732269913755864,4.7267100000000015,-0.5375899999999993
022,1,1,csp,64a.png,1,1,340,110,339,1,1,419,pos_feedback_onset,8,"[ -0.17822393  -0.27374977  -0.37746354  -0.48390662  -0.58489109
  -0.672229    -0.73227382  -0.7568376   -0.73500313  -0.66131176
  -0.5330342   -0.35017045  -0.12636704   0.1356467    0.41403629
   0.69788451   0.97081549   1.21918268   1.42933953   1.59855674
   1.72137568   1.80598428   1.85784117   1.89059289   1.9206153
   1.96155494   2.02705838   2.13623077   2.29453074   2.51014621
   2.77761857   3.09148919   3.43811154   3.80110974   4.15592001
   4.48070787   4.75636816   4.95833709   5.07023879   5.08115603
   4.98835949   4.78911988   4.4888958    4.0986045    3.63189253
   3.10240643   2.52379276   1.90696875   1.26012233   0.59144143
  -0.09634464  -0.80050656  -1.52104434  -2.25522868  -3.00305956
  -3.76180768  -4.52601442  -5.29295047  -6.04896928  -6.79407085
  -7.52006725  -8.21877056  -8.88745145  -9.52610994 -10.13201671
 -10.70517177 -11.25103373 -11.77233189 -12.26633697 -12.73850756
 -13.18884367 -13.614616   -14.01855385 -14.39792791 -14.75000887
 -15.07752604 -15.38047943 -15.65886903 -15.91542415 -16.15014479
 -16.36848957 -16.56772919 -16.75605156 -16.93072739 -17.09175667
 -17.2418687  -17.3810635  -17.50934106 -17.63216    -17.74679101
 -17.86142202 -17.97605304 -18.09614267 -18.22169092 -18.35269779
 -18.49189259 -18.63381669 -18.77847011 -18.92039422 -19.05685971
 -19.17967865 -19.28339242 -19.36800103 -19.42531653 -19.45806825
 -19.46079756 -19.43350446 -19.37891827 -19.29976828 -19.19878382
 -19.0814235  -18.94768732 -18.80849252 -18.6638391  -18.51645637
 -18.37726157 -18.24079609 -18.10978922 -17.98151166 -17.85869272
 -17.73314447 -17.59940829 -17.45748418 -17.29918421 -17.12177907
 -16.92253946 -16.69873606 -16.45036887 -16.1801672  -15.88813105
 -15.57971904 -15.25766049 -14.91922608 -14.56987442 -14.20414691
 -13.82477285 -13.42629362 -13.01143854 -12.58020759 -12.12987148
 -11.66588881 -11.19098891 -10.70790108 -10.22481325  -9.74445472
  -9.26955482  -8.80011354  -8.33340157  -7.87214821  -7.41362417
  -6.95510012  -6.49657608  -6.03532273  -5.57679868  -5.12100395
  -4.67339714  -4.23397827  -3.80547663  -3.38789224  -2.97849577
  -2.57455792  -2.16516145  -1.74757706  -1.31907542  -0.87146861
  -0.40748595   0.07287257   0.56141902   1.05542409   1.54669986
   2.02432907   2.48831173   2.93045992   3.34804431   3.74379423
   4.11770967   4.47524925   4.81914229   5.1575767    5.4932818
   5.8262576    6.15650408   6.48402126   6.8033505    7.10630389
   7.38742279   7.6412486    7.85959339   8.03699852   8.1707347
   8.26353124   8.31538812   8.33449329   8.32084674   8.28809502
   8.24442607   8.19529849   8.14617091   8.10523127   8.06975024
   8.04518645   8.02881059   8.02062266   8.01243474   8.00970543
   8.0015175    7.99332957   7.98241233   7.96876578   7.95511923
   7.94147268   7.93328475   7.93055544   7.94147268   7.96330716
   7.99878819   8.04791576   8.1134192    8.19529849   8.29628295
   8.41364327   8.55829669   8.73297252   8.94312937   9.19968449
   9.51082581   9.88201194  10.31597219  10.80997726  11.36129784
  11.95628737  12.57857001  13.20085264  13.8040301   14.36080929
  14.84389713  15.23691774  15.52349526  15.7009004   15.77186245
  15.74456936  15.64085558  15.48528493  15.29969186  15.1140988
  14.95306952  14.83297989  14.77020576  14.76474714  14.81933334
  14.92850573  15.07588846  15.25056428  15.43615735  15.6162918
  15.78005038  15.91378656  16.01204171  16.07481584  16.09937963]","[-6.03570875 -5.63156596 -5.14877916 -4.5807947  -3.92324345 -3.18049454
 -2.36783985 -1.50275582 -0.61145712  0.27328791  1.12308005  1.90515096
  2.58891688  3.15690134  3.59381246  3.8974657   4.07659926  4.15087415
  4.13995137  4.07659926  3.98484792  3.89528114  3.82537536  3.79260703
  3.79697614  3.8384827   3.90401936  3.98047881  4.04820004  4.09189115
  4.10062937  4.06567648  3.98703248  3.87125103  3.72707036  3.57196691
  3.42123257  3.28579012  3.17219323  3.08262645  3.01272067  2.94936855
  2.87727822  2.77897322  2.64134621  2.44692076  2.19569686  1.88985907
  1.53377651  1.14929472  0.7560747   0.37377747  0.02643312 -0.27066644
 -0.50441389 -0.66825557 -0.76874513 -0.81243624 -0.81025168 -0.78185246
 -0.73597679 -0.69447023 -0.6617019  -0.65077912 -0.6617019  -0.69447023
 -0.74253046 -0.80151346 -0.86049646 -0.91511035 -0.95443235 -0.98064702
 -0.98720069 -0.98064702 -0.96317058 -0.93914046 -0.91729491 -0.89981846
 -0.88889569 -0.88234202 -0.88015746 -0.8736038  -0.85612735 -0.81462079
 -0.74253046 -0.62893357 -0.469461   -0.26192822 -0.00633521  0.2885798
  0.61626314  0.96142293  1.31532094  1.66048073  1.98379497  2.27434086
  2.52119565  2.71999021  2.86635544  2.95810678  2.99961333  2.99305967
  2.94499944  2.86635544  2.76586588  2.65226899  2.5386721   2.42944431
  2.33332387  2.25249531  2.19132775  2.14108297  2.10176097  2.05806986
  2.00345597  1.92699652  1.81776874  1.6670344   1.47260895  1.23449239
  0.95705382  0.64684692  0.32134813 -0.01288888 -0.33838767 -0.64859457
 -0.93695591 -1.2034717  -1.45251104 -1.69281216 -1.93966694 -2.20399817
 -2.49891318 -2.82878108 -3.2023401  -3.61303655 -4.05650135 -4.5218117
 -4.99367571 -5.4568015 ]",15.399246684505965,1.7811626712817117,3.6639299999999997,0.06147499999999928
022,1,1,csm,49b.png,1,1,112,93,112,1,1,311,neu_feedback_onset,9,"[  4.19926464   4.16387914   4.0245487    3.78348492   3.4428994
   3.0160617    2.50960661   1.93901529   1.3153457    0.6562906
  -0.02488044  -0.71268626  -1.3938573   -2.05954718  -2.69869792
  -3.30909795  -3.89074724  -4.448069    -4.9899096   -5.52290382
  -6.05589805  -6.59552705  -7.14842562  -7.71017057  -8.27633871
  -8.83808365  -9.38213585  -9.88859094 -10.34639095 -10.74226633
 -11.0651591  -11.31506925 -11.49641998 -11.61584607 -11.68882868
 -11.73084898 -11.7595997  -11.79056202 -11.8392171  -11.9166229
 -12.02499102 -12.16432146 -12.33240262 -12.52038813 -12.71722003
 -12.90962873 -13.09097946 -13.25021425 -13.38069831 -13.48022005
 -13.55320266 -13.60406933 -13.64166644 -13.67926354 -13.72570702
 -13.79426644 -13.89599978 -14.03533022 -14.21889254 -14.44447516
 -14.70765488 -15.00622011 -15.32690128 -15.66527521 -16.00807232
 -16.34644624 -16.67818539 -16.99223178 -17.290797   -17.56503469
 -17.82157963 -18.05600863 -18.27274486 -18.47178835 -18.65756227
 -18.82785503 -18.98708982 -19.13747823 -19.27680867 -19.40729273
 -19.52671882 -19.63508694 -19.73239709 -19.82086086 -19.89384347
 -19.95576811 -20.00442319 -20.04202029 -20.06855942 -20.08182899
 -20.08404058 -20.07298261 -20.05307826 -20.01769275 -19.97124927
 -19.91153623 -19.83855362 -19.75230144 -19.6527797  -19.54441158
 -19.42719708 -19.30113621 -19.17286374 -19.04459127 -18.91410721
 -18.78804633 -18.66862024 -18.55361734 -18.44524922 -18.34793907
 -18.26168689 -18.18428109 -18.11793327 -18.064855   -18.02062312
 -17.9874492  -17.96091007 -17.94100572 -17.92331297 -17.90562021
 -17.88792746 -17.86359992 -17.8348492  -17.79946369 -17.75965499
 -17.71542311 -17.67340281 -17.63359412 -17.60484339 -17.58936223
 -17.59157383 -17.61590136 -17.66455644 -17.73975064 -17.84148398
 -17.96754485 -18.11572167 -18.28159124 -18.46073038 -18.6465043
 -18.83227822 -19.01362895 -19.1861333  -19.34536809 -19.48912172
 -19.612971   -19.71912753 -19.80316811 -19.86951594 -19.91374782
 -19.94028695 -19.94249855 -19.92480579 -19.87836231 -19.80316811
 -19.69701158 -19.55104636 -19.36748404 -19.14411301 -18.88093329
 -18.58015647 -18.24399414 -17.88350427 -17.49868687 -17.10059989
 -16.69587814 -16.2867332  -15.88422304 -15.48834766 -15.10353026
 -14.73419401 -14.37812733 -14.041965   -13.72128383 -13.4227186
 -13.14184613 -12.87866641 -12.63539104 -12.40980842 -12.19749537
 -11.99624029 -11.80161999 -11.60921129 -11.4123794  -11.20891272
 -10.98996489 -10.7533243  -10.49014458 -10.20263733  -9.88416775
  -9.53915904  -9.17203439  -8.78942858  -8.40682277  -8.03748652
  -7.6991126   -7.40939375  -7.18381113  -7.03563431  -6.96928648
  -6.98255605  -7.06659663  -7.21035026  -7.39170099  -7.59516767
  -7.79863434  -7.98661985  -8.14806624  -8.2785503   -8.37586045
  -8.44663147  -8.49749813  -8.53288364  -8.56384596  -8.5881735
  -8.61471263  -8.63904017  -8.66115611  -8.68327205  -8.705388
  -8.73192713  -8.76731264  -8.82260249  -8.90664308  -9.03270395
  -9.2074199   -9.4374257   -9.72935615 -10.07878805 -10.47908661
 -10.92140547 -11.39247505 -11.87902579 -12.36778813 -12.84549249
 -13.30329251 -13.7345534  -14.13264037 -14.49755342 -14.83150416
 -15.13006939 -15.39988389 -15.63652448 -15.84220275 -16.01028391
 -16.14519116 -16.24028972 -16.29557958 -16.31327233 -16.29336798
 -16.24250131 -16.16730711 -16.07442015 -15.97047522 -15.86431869
 -15.76258535 -15.66527521 -15.57902303 -15.50382882 -15.43969259]","[ -2.9135948   -2.81934589  -2.61280041  -2.30599012  -1.91295211
  -1.45574462  -0.96244181  -0.46111781   0.02215852   0.46131834
   0.84031928   1.14913487   1.3817492    1.54417817   1.64243768
   1.69257008   1.70460185   1.69457537   1.67051182   1.64043238
   1.60433705   1.55821525   1.50206696   1.42386042   1.32359562
   1.19726197   1.04887007   0.8824305    0.70796975   0.53952489
   0.38912769   0.26880993   0.1825822    0.13646039   0.12643391
   0.14448158   0.17857161   0.21065634   0.22669871   0.21266164
   0.15250276   0.04421678  -0.12021749  -0.33478416  -0.59948324
  -0.90228293  -1.23716736  -1.59611534  -1.9670951   -2.34609604
  -2.72309169  -3.09206615  -3.44700354  -3.77988267  -4.08468766
  -4.35941321  -4.59804343  -4.80057833  -4.96701789  -5.10337802
  -5.21767989  -5.3159394   -5.4141989   -5.51646899  -5.63478146
  -5.77114158  -5.92755467  -6.10201542  -6.28650265  -6.47299518
  -6.65748241  -6.83194316  -6.99437214  -7.14476934  -7.29115594
  -7.44355844  -7.6140086   -7.8125329   -8.05116312  -8.33792045
  -8.67481017  -9.0618323   -9.48695505  -9.94215724 -10.4113965
 -10.88063576 -11.33583795 -11.7609607  -12.15199341 -12.49690432
 -12.79569343 -13.04836072 -13.2569115  -13.42936696 -13.57575357
 -13.70208721 -13.82039968 -13.94071743 -14.07106167 -14.21744828
 -14.37987726 -14.5583486  -14.74885172 -14.93935484 -15.11782618
 -15.26822338 -15.37650936 -15.42463646 -15.40057291 -15.29629752
 -15.1077997  -14.83507944 -14.49016854 -14.08309345 -13.63190185
 -13.158652   -12.68139156 -12.22017348 -11.79304543 -11.41404449
 -11.08918654 -10.82248218 -10.60591021 -10.43345475 -10.28907344
 -10.15471861 -10.01635319  -9.85793481  -9.66943698  -9.44684913
  -9.19217654  -8.9114351   -8.61465129  -8.31786749  -8.03311546
  -7.77042168  -7.53780735  -7.33527245  -7.15680111  -6.99637743]",1.5853984791647237e-14,0.3621118930651426,4.521624999999999,1.1580000000000008
022,1,1,csp,66a.png,1,1,208,226,206,1,1,706,neg_feedback_onset,10,"[-3.79230744 -3.32881546 -2.86933639 -2.42189608 -1.98850098 -1.5691511
 -1.16384642 -0.76456112 -0.36928874  0.02197072  0.40921727  0.7924509
  1.16364578  1.51878898  1.84584176  2.13477183  2.37755334  2.56415401
  2.69056092  2.74874822  2.74272884  2.67250279  2.54810234  2.37755334
  2.17690747  1.956197    1.72946715  1.50675023  1.29807851  1.10746493
  0.93490947  0.78041215  0.63996003  0.50753375  0.38112685  0.25271348
  0.1202872  -0.01615199 -0.15861057 -0.30708852 -0.45556647 -0.60605088
 -0.75452883 -0.90100032 -1.04747181 -1.19193684 -1.34242125 -1.49892504
 -1.66947404 -1.8560747  -2.06273996 -2.29348272 -2.55030945 -2.82720076
 -3.12014374 -3.42111256 -3.71405554 -3.98492748 -4.2176767  -4.39424507
 -4.49858093 -4.51262614 -4.42634842 -4.23372837 -3.92874664 -3.51140321
 -2.98972392 -2.37374107 -1.67348695 -0.9070197  -0.08838451  0.76636694
  1.63516359  2.50797317  3.36473107  4.19339855  4.9799304   5.71228785
  6.38244509  6.98036981  7.50405555  7.94948941  8.31867782  8.61362727
  8.84236357  9.01090611  9.12728072  9.20151969  9.23964241  9.25168116
  9.24365533  9.21957782  9.18948094  9.15537114  9.12527426  9.10520967
  9.10520967  9.13330009  9.19750677  9.30384909  9.4543335   9.64896
  9.88371568 10.1505747  10.43749831 10.72843483 11.01134552 11.27017871
 11.49088917 11.66745755 11.79185799 11.86208405 11.8841551  11.86007759
 11.79988383 11.71159964 11.60124441 11.47885042 11.35043706 11.21399786
 11.0755522  10.93108717 10.7785963  10.61005376 10.42144664 10.20274263
  9.95394174  9.66701813  9.33996535  8.97478985  8.56948517  8.1300707
  7.66055934  7.16496402  6.65131057  6.12361191  5.58788741  5.04814999
  4.51041904  3.98071392  3.46505401  2.97146515  2.50997962  2.0926362
  1.72946715  1.43652417  1.22383954  1.10746493  1.09542618  1.19775558
  1.41445312  1.74551883  2.18292684  2.71263196  3.31858252  3.98071392
  4.6729422   5.37520278  6.06341814  6.72153663  7.33350656  7.89330856
  8.39091034  8.83032482  9.21155199  9.54061123  9.82151546 10.06229051
 10.26694931 10.44351768 10.59400209 10.72442191 10.83477715 10.92908071
 11.00532614 11.06351345 11.10163617 11.11568138 11.10364263 11.06551991
 10.99730031 10.89898383 10.77257693 10.62008606 10.44151122 10.2428718
 10.02617425  9.79743795  9.5566629   9.31187493  9.06508049  8.82229898
  8.58954976  8.37285221  8.18223863  8.02573484  7.91537961  7.86120522
  7.87123751  7.95350232  8.11000611  8.33874241  8.62967894  8.96877047
  9.33996535  9.71918606 10.08636802 10.42144664 10.70636379 10.92506779
 11.07354574 11.1437718  11.13975888 11.06351345 10.91904842 10.71238316
 10.44953706 10.13652949  9.78138628  9.39213328  8.98080922  8.55744642
  8.13809653  7.73279186  7.3555776   7.01447961  6.71150433  6.44865823
  6.21791547  6.01125021  5.81662371  5.61798429  5.4032932   5.16251815
  4.88161392  4.55857405  4.18938563  3.77806158  3.32660835  2.84305178
  2.33341125  1.80370613  1.26396872  0.71620547  0.16643576 -0.38333395
 -0.92909074 -1.47083462 -2.00053974 -2.51419319 -3.00978851 -3.47528695
 -3.90266267 -4.2858963  -4.61495554 -4.88582748 -5.09449919 -5.24699006
 -5.34931946 -5.41352614]","[ -0.9640891   -0.95492301  -0.92925797  -0.88709397  -0.82293135
  -0.74043656  -0.63777638  -0.51678402  -0.37929271  -0.22896887
  -0.06581251   0.1028435    0.27699917   0.45298805   0.62897694
   0.8031326    0.97545505   1.14044463   1.29993455   1.44659196
   1.57858362   1.68857667   1.77290468   1.82240155   1.83156764
   1.79307007   1.70140919   1.55108536   1.34026534   1.07078236
   0.74263642   0.35949396  -0.07131216  -0.5461155   -1.05208354
  -1.58554985  -2.13184867  -2.68364715  -3.22627954  -3.74874654
  -4.24188205  -4.69652     -5.10532751  -5.46647137  -5.77995157
  -6.04943454  -6.27858674  -6.47290779  -6.64156381  -6.78822121
  -6.92021287  -7.04120523  -7.15669794  -7.26485777  -7.3730176
  -7.477511    -7.5820044   -7.6864978   -7.7909912   -7.89365138
  -7.99814478  -8.10080497  -8.20529837  -8.30795855  -8.41245195
  -8.51511213  -8.61960553  -8.72226571  -8.82675911  -8.92941929
  -9.03391269  -9.13657287  -9.24106627  -9.34372645  -9.44821985
  -9.55088004  -9.65354022  -9.75436718  -9.85519415  -9.95235468
 -10.04401555 -10.13017678 -10.2053387  -10.26766809 -10.3098321
 -10.32999749 -10.3208314  -10.2786674  -10.19983904 -10.08617956
  -9.93952215  -9.76536649  -9.57287865  -9.37489115  -9.18973618
  -9.02841304  -8.91108712  -8.85059094  -8.85609059  -8.93308573
  -9.08157635  -9.29789602  -9.57287865  -9.89552493 -10.24933592
 -10.62147908 -10.99362224 -11.35659931 -11.69574455 -12.0037251
 -12.27137486 -12.49686061 -12.67468272 -12.80484116 -12.89100239
 -12.93499961 -12.94233248 -12.92583352 -12.8928356  -12.85983769
 -12.83967229 -12.84700516 -12.89466882 -12.99366257 -13.14765284
 -13.35663964 -13.61145688 -13.89927203 -14.19991971 -14.48956808
 -14.74438531 -14.94053959 -15.05786551 -15.08169734 -15.00286899
 -14.82138045 -14.5445646  -14.18525396 -13.76361393 -13.30164311]",10.356688179249002,-0.33919107443046226,4.983905,1.5429
022,1,1,csm,6b.png,1,1,116,139,115,1,0,558,neu_feedback_onset,11,"[  4.45998169   3.8380522    3.24249427   2.67330791   2.13488838
   1.62284042   1.13716402   0.67126631   0.22514727  -0.20558836
  -0.62313819  -1.02090936  -1.39890184  -1.7461275   -2.0537958
  -2.31311623  -2.51529826  -2.65594662  -2.73066607  -2.74165422
  -2.69989924  -2.61638927  -2.50870536  -2.39442857  -2.29333755
  -2.225211    -2.20543232  -2.24938494  -2.35926647  -2.54386746
  -2.79879262  -3.12184434  -3.50203446  -3.93277008  -4.40086543
  -4.89533234  -5.40298504  -5.915033    -6.41829044  -6.9017692
  -7.35448113  -7.76983334  -8.13903531  -8.45769176  -8.72360508
  -8.93457763  -9.09280704  -9.20049095  -9.26422224  -9.28619855
  -9.27301276  -9.22906015  -9.16313123  -9.075226    -8.97193735
  -8.85546293  -8.72580271  -8.58075908  -8.42033204  -8.24012632
  -8.0313514   -7.78961202  -7.50831529  -7.18086831  -6.80067819
  -6.36994256  -5.8864638   -5.3568348   -4.78764844  -4.18989288
  -3.57455627  -2.95702203  -2.35047595  -1.76370855  -1.21210323
  -0.70005527  -0.23415755   0.18339228   0.55479188   0.88223886
   1.17012848   1.42065839   1.64261909   1.83820823   2.00962342
   2.15906231   2.28432727   2.38761591   2.46673062   2.52167139
   2.55024059   2.55463585   2.53485717   2.49310219   2.4293709
   2.35245382   2.26454859   2.17005047   2.07555235   1.98105423
   1.89534663   1.81842955   1.75250063   1.70195512   1.66239777
   1.63822383   1.62723568   1.62943331   1.64042146   1.66239777
   1.6931646    1.73052432   1.77667457   1.82722007   1.88216084
   1.94149687   2.00742579   2.07335472   2.1436789    2.21620071
   2.29092016   2.37003487   2.45354483   2.54145006   2.64254108
   2.75681787   2.89087335   3.0447075    3.22491322   3.42709525
   3.65345121   3.89738823   4.15451102   4.41602908   4.67095424
   4.91269363   5.1324567    5.31925531   5.47528709   5.59395915
   5.67966675   5.74120041   5.78515303   5.82031512   5.8620701
   5.91481324   5.98953268   6.0906237    6.21588865   6.36093228
   6.51916169   6.67958874   6.82463236   6.94550205   7.02901202
   7.06637174   7.05538359   7.00044282   6.90374707   6.78287738
   6.64662427   6.51916169   6.41587305   6.35433939   6.34994413
   6.41367542   6.55432378   6.77188923   7.06197648   7.41579503
   7.82235672   8.26188286   8.72118769   9.17829488   9.62001866
  10.03537087  10.41556098  10.75839138  11.07265257  11.36273983
  11.64623419  11.93632145  12.24838502  12.60000593  12.99997473
  13.45268666  13.96033936  14.5141423   15.09871208  15.69866527
  16.29202557  16.85681667  17.36886463  17.8105884   18.16660458
  18.42812264  18.58854968  18.65008335  18.61931651  18.50503972
  18.32263637  18.08309462  17.80399551  17.50072247  17.18206601
  16.86121193  16.54255547  16.22829428  15.92062597  15.61735293
  15.30968463  14.9932258   14.66138356  14.30316975  13.91418911
  13.48565112  13.01316051  12.49232203  11.92313567  11.30120617
  10.62873116   9.90571065   9.129947     8.30583548   7.43557371
   6.51696406   5.55879706   4.56546797   3.54576731   2.5084856
   1.46680863   0.43611982  -0.56819743  -1.53075969  -2.44277644
  -3.28886428  -4.06682556  -4.77006739  -5.39858978  -5.96118325
  -6.46004543  -6.90616446  -7.30613326  -7.67313759  -8.01377035
  -8.33462444  -8.64449037  -8.94336815  -9.23785067  -9.52793793
  -9.81362993 -10.09492666 -10.37182813 -10.64213671 -10.9058524
 -11.16517283 -11.41570273 -11.66183737 -11.90357675 -12.14092087]","[-4.66374708 -4.3473711  -4.01395948 -3.66351224 -3.29602936 -2.90664353
 -2.49292109 -2.04999471 -1.57299707 -1.05462718 -0.49245139  0.12326495
  0.79738917  1.53235492  2.33302953  3.19697934  4.12420434  5.10740356
  6.13684235  7.20278606  8.28819905  9.38091304 10.46632604 11.52740242
 12.55440754 13.53030578 14.44536248 15.28984299 16.05157902 16.71840225
 17.27571072 17.71133612 18.0155438  18.17373179 18.17859911 18.03014576
 17.73323907 17.29274635 16.72570324 16.05157902 15.28740933 14.45996444
 13.59114731 12.70042723 11.81214081 10.94332368 10.11831245  9.35657642
  8.67515122  8.09350614  7.63111047  7.29526519  7.09813861  7.03973074
  7.12004157  7.32933645  7.65544708  8.08377149  8.59484039  9.17405182
  9.80437013 10.47119336 11.15991954 11.8632477  12.56900951 13.27233767
 13.96106385 14.63032074 15.2703737  15.87878906 16.44583217 16.96663572
 17.43633237 17.85005482 18.21023671 18.50957707 18.74564222 18.92086585
 19.03038061 19.07175286 19.04498258 18.9427688  18.76997884 18.52417903
 18.21023671 17.83545285 17.40226111 16.92526347 16.41419457 15.87878906
 15.3336489  14.78607508 14.2482359  13.72499869 13.22853176 12.7588351
 12.32807703 11.93625754 11.59067762 11.29377092 11.04553746 10.84354356
 10.68778923 10.57340714 10.49309631 10.44442308 10.41765281 10.41035182
 10.42008647 10.44198942 10.47606068 10.52230025 10.58557545 10.66831993
 10.7778347  10.9165534  11.08934336 11.30350557 11.56147368 11.8632477
 12.20882762 12.59091246 13.00220125 13.4402603  13.88805401 14.33584771
 14.77147311 15.18276189 15.55511209 15.87878906 16.14162449 16.33388375
 16.45313316 16.48963808 16.4506995  16.33631741 16.15866012 15.92746229
 15.65732587 15.36772016]",15.409457064338898,15.42813580317521,4.5503550000000015,-0.09313500000000063
022,1,1,csp,65a.png,1,1,108,337,100,1,1,303,pos_feedback_onset,12,"[-1.3900146  -1.33250116 -1.24516594 -1.12800894 -0.98742053 -0.82766098
 -0.65725079 -0.48258035 -0.30790991 -0.14175998  0.0201297   0.17349887
  0.32473791  0.47810708  0.64638714  0.83596848  1.05963185  1.32376764
  1.63689636  2.00114814  2.42078323  2.88515099  3.39425143  3.93104352
  4.48913688  5.0514905   5.60745374  6.14424583  6.65121614  7.11984416
  7.54799976  7.92929255  8.25946229  8.54276923  8.77921337  8.97092483
  9.12003374  9.23080036  9.30748495  9.35647788  9.37990928  9.38203941
  9.36925864  9.34582724  9.31600546  9.2883138   9.26275227  9.24358113
  9.23506062  9.23506062  9.24571125  9.26062215  9.27553304  9.28192342
  9.27127278  9.23719075  9.1711568   9.06678056  8.9219319   8.73235056
  8.50016668  8.23177064  7.93142268  7.60764332  7.26895307  6.92600257
  6.58305207  6.2507522   5.93549335  5.64366591  5.38166024  5.14947636
  4.95563477  4.80013548  4.68297847  4.60629389  4.56369134  4.5530407
  4.57008172  4.60629389  4.65528682  4.71280025  4.77457395  4.83847777
  4.90025146  4.96202515  5.02592898  5.09409305  5.16864751  5.25172247
  5.34118782  5.44130381  5.54354992  5.65005629  5.75443253  5.85241839
  5.93975361  6.01217794  6.06756125  6.10377341  6.12294456  6.12507469
  6.11442405  6.09312278  6.0718215   6.05265036  6.0483901   6.06117087
  6.10164329  6.16980736  6.26779322  6.39560086  6.54044952  6.69807894
  6.85570837  7.00055703  7.12197429  7.21143964  7.26682295  7.28812422
  7.27960371  7.25404218  7.22209027  7.200789    7.19865887  7.22848065
  7.2945146   7.39889084  7.53308887  7.68858816  7.85047784  8.00597714
  8.14017516  8.2445514   8.31271548  8.34253726  8.34253726  8.32336611
  8.29780458  8.28289369  8.29780458  8.35105777  8.45330388  8.60880318
  8.81116528  9.05399979  9.32026571  9.59931239  9.86770844 10.11054296
 10.31290506 10.4641441  10.56212996 10.6047325  10.60047225 10.55573957
 10.4875755  10.41089092 10.34059671 10.29160378 10.27669289 10.29799417
 10.36402811 10.47053448 10.61325301 10.78579333 10.97963492 11.18412714
 11.38861937 11.58672121 11.77204229 11.93393197 12.06812999 12.17463636
 12.25132095 12.29818375 12.31522477 12.30883438 12.28327286 12.24067031
 12.18315687 12.11925305 12.04895885 11.97440439 11.89771981 11.81890509
 11.74222051 11.6634058  11.58459108 11.50577637 11.42909179 11.3524072
 11.27572262 11.20116816 11.12874383 11.06057976 10.99667594 10.9391625
 10.88803944 10.84330677 10.80070422 10.75810167 10.70697862 10.63881454
 10.54508894 10.41302104 10.22983009  9.98699557  9.67599698  9.29470418
  8.84098706  8.32123599  7.74397147  7.12623454  6.48080595  5.82898699
  5.18994878  4.58286249  4.02689925  3.53483983  3.119465    2.78716513
  2.53794023  2.3717903   2.27380444  2.23759227  2.24185253  2.27380444
  2.3100166   2.33770826  2.33770826  2.29723584  2.20777049  2.0607917
  1.85416935  1.58790343  1.2662542   0.89348192  0.48023721  0.03291047
 -0.43358742 -0.90860582 -1.38149409 -1.83521122 -2.26123669 -2.64465961
 -2.9790896  -3.25600616 -3.47327915 -3.62664832 -3.72037392 -3.76084634
 -3.75658609 -3.7182438  -3.66073036 -3.60108679 -3.54996373 -3.52014195
 -3.52440221 -3.5627445 ]","[-0.31047617 -0.54946814 -0.76071996 -0.93142851 -1.05305835 -1.1149402
 -1.11280634 -1.04238907 -0.90368837 -0.70523969 -0.45557844 -0.16110619
  0.15683848  0.48758629  0.80979867  1.10853863  1.37100302  1.5843887
  1.74229411  1.84045152  1.88312866  1.87672709  1.83404995  1.76576653
  1.69108155  1.62493198  1.58012099  1.56731785  1.59719184  1.66760912
  1.77643582  1.91300266  2.06664035  2.22027804  2.35684488  2.46140386
  2.52541957  2.53608885  2.49767943  2.41445901  2.29282917  2.14986077
  2.00262464  1.86819166  1.76149882  1.6932154   1.67614455  1.70601854
  1.7871051   1.90660109  2.05810492  2.22667961  2.40165587  2.57023056
  2.72600211  2.86256895  2.97352951  3.05888378  3.12076563  3.16130891
  3.18478133  3.19331676  3.18691519  3.16771048  3.13143491  3.07595463
  2.99486807  2.88390752  2.7366714   2.54889199  2.31843546  2.04743564
  1.7380264   1.39447544  1.02958593  0.64975941  0.26566518 -0.11202748
 -0.47264929 -0.81406638 -1.13201105 -1.42434944 -1.69108155 -1.93860894
 -2.16693162 -2.37604959 -2.57023056 -2.74520682 -2.89884452 -3.02474207
 -3.11436406 -3.16130891 -3.15704119 -3.0972932  -2.97566336 -2.79641939
 -2.56169514 -2.27575832 -1.95141208 -1.60359341 -1.24723932 -0.89942066
 -0.57720828 -0.29767303 -0.0714842   0.09068892  0.18884633  0.22085418
  0.19738176  0.12696448  0.0224055  -0.09495663 -0.21231876 -0.31261003
 -0.38516116 -0.42143673 -0.41503516 -0.37022416 -0.29127146 -0.18671247
 -0.06508263  0.05868106  0.17817705  0.28060217  0.36382259  0.42357058
  0.46198001  0.48331857  0.49612172  0.50892486  0.52812957  0.56653899
  0.62628698  0.71377511  0.83113724  0.96983793  1.1298772   1.30058574
  1.47129429  1.63346741]",11.427760458659014,2.018201798841336,4.694555,0.27614999999999945
022,1,1,csm,12b.png,1,1,228,231,229,1,0,405,neu_feedback_onset,13,"[ 1.74269439e+00  1.57381607e+00  1.40493774e+00  1.23605942e+00
  1.06285088e+00  8.83147026e-01  6.94782742e-01  4.97758032e-01
  2.94238002e-01  8.20575442e-02 -1.32288020e-01 -3.46633584e-01
 -5.54483828e-01 -7.51508538e-01 -9.35542608e-01 -1.10009072e+00
 -1.24731797e+00 -1.37072906e+00 -1.47465418e+00 -1.55909334e+00
 -1.62404654e+00 -1.67167889e+00 -1.70199038e+00 -1.71498102e+00
 -1.71281592e+00 -1.69549506e+00 -1.66085336e+00 -1.61105590e+00
 -1.54610270e+00 -1.47032396e+00 -1.38588480e+00 -1.29711543e+00
 -1.20401584e+00 -1.11091625e+00 -1.01998177e+00 -9.35542608e-01
 -8.53268553e-01 -7.79654925e-01 -7.08206404e-01 -6.43253203e-01
 -5.82630215e-01 -5.24172334e-01 -4.67879559e-01 -4.15916998e-01
 -3.63954437e-01 -3.16322090e-01 -2.70854849e-01 -2.29717822e-01
 -1.90745901e-01 -1.58269300e-01 -1.34453127e-01 -1.14967166e-01
 -1.04141633e-01 -1.01976526e-01 -1.06306739e-01 -1.17132273e-01
 -1.32288020e-01 -1.49608873e-01 -1.66929727e-01 -1.79920367e-01
 -1.86415687e-01 -1.84250581e-01 -1.73425047e-01 -1.53939087e-01
 -1.19297380e-01 -7.16650320e-02 -6.71183079e-03  7.98924375e-02
  1.94643093e-01  3.46200562e-01  5.36729953e-01  7.74891691e-01
  1.05852067e+00  1.38112157e+00  1.73619907e+00  2.10210210e+00
  2.45501450e+00  2.76462475e+00  2.99845628e+00  3.12836268e+00
  3.12186736e+00  2.96164946e+00  2.63904857e+00  2.15622977e+00
  1.52401861e+00  7.72726584e-01 -6.73348186e-02 -9.59358782e-01
 -1.86220828e+00 -2.74773692e+00 -3.58779832e+00 -4.37156695e+00
 -5.09254749e+00 -5.75940035e+00 -6.38944640e+00 -7.00433671e+00
 -7.63005255e+00 -8.28607988e+00 -8.99406977e+00 -9.76051755e+00
 -1.05897534e+01 -1.14731170e+01 -1.23997826e+01 -1.33480994e+01
 -1.42985812e+01 -1.52274120e+01 -1.61129406e+01 -1.69378463e+01
 -1.76913034e+01 -1.83646516e+01 -1.89557257e+01 -1.94666909e+01
 -1.98997123e+01 -2.02634502e+01 -2.05665651e+01 -2.08220477e+01
 -2.10363933e+01 -2.12182622e+01 -2.13806452e+01 -2.15278725e+01
 -2.16664393e+01 -2.18028411e+01 -2.19414079e+01 -2.20843049e+01
 -2.22293671e+01 -2.23787594e+01 -2.25324820e+01 -2.26883697e+01
 -2.28442574e+01 -2.29979800e+01 -2.31452072e+01 -2.32881043e+01
 -2.34223409e+01 -2.35457520e+01 -2.36583375e+01 -2.37579324e+01
 -2.38467018e+01 -2.39224805e+01 -2.39874337e+01 -2.40458916e+01
 -2.41000193e+01 -2.41563120e+01 -2.42169350e+01 -2.42883836e+01
 -2.43749878e+01 -2.44789129e+01 -2.46001589e+01 -2.47408909e+01
 -2.48967785e+01 -2.50634918e+01 -2.52345352e+01 -2.54055786e+01
 -2.55636314e+01 -2.57086936e+01 -2.58299395e+01 -2.59230391e+01
 -2.59858272e+01 -2.60204689e+01 -2.60226340e+01 -2.59944876e+01
 -2.59425251e+01 -2.58667463e+01 -2.57736468e+01 -2.56632263e+01
 -2.55441454e+01 -2.54164041e+01 -2.52843326e+01 -2.51479309e+01
 -2.50136943e+01 -2.48794577e+01 -2.47473862e+01 -2.46153147e+01
 -2.44810780e+01 -2.43425112e+01 -2.41952840e+01 -2.40372312e+01
 -2.38618575e+01 -2.36691630e+01 -2.34526524e+01 -2.32101604e+01
 -2.29460174e+01 -2.26580582e+01 -2.23527782e+01 -2.20345075e+01
 -2.17097415e+01 -2.13828104e+01 -2.10645397e+01 -2.07592596e+01
 -2.04713004e+01 -2.02028272e+01 -1.99538399e+01 -1.97243386e+01
 -1.95143233e+01 -1.93172986e+01 -1.91310994e+01 -1.89535606e+01
 -1.87803521e+01 -1.86093087e+01 -1.84447606e+01 -1.82823775e+01
 -1.81286550e+01 -1.79814277e+01 -1.78450260e+01 -1.77194498e+01
 -1.76046991e+01 -1.75007740e+01 -1.74033442e+01 -1.73080795e+01
 -1.72149799e+01 -1.71197152e+01 -1.70201203e+01 -1.69161952e+01
 -1.68057748e+01 -1.66953543e+01 -1.65849339e+01 -1.64788437e+01
 -1.63814139e+01 -1.62948096e+01 -1.62233611e+01 -1.61627381e+01
 -1.61172708e+01 -1.60782989e+01 -1.60458223e+01 -1.60133457e+01
 -1.59765389e+01 -1.59310717e+01 -1.58704487e+01 -1.57903397e+01
 -1.56929099e+01 -1.55694988e+01 -1.54244367e+01 -1.52512282e+01
 -1.50520383e+01 -1.48247021e+01 -1.45692195e+01 -1.42855906e+01
 -1.39716501e+01 -1.36295632e+01 -1.32571649e+01 -1.28587852e+01
 -1.24344243e+01 -1.19927426e+01 -1.15380702e+01 -1.10812326e+01
 -1.06308904e+01 -1.02000342e+01 -9.79732436e+00 -9.43575154e+00
 -9.11964596e+00 -8.85766805e+00 -8.65198291e+00 -8.50475566e+00
 -8.40949096e+00 -8.36835393e+00 -8.37051904e+00 -8.41165607e+00
 -8.48526970e+00 -8.58919482e+00 -8.71260590e+00 -8.85117273e+00]","[-0.96477845 -0.93624121 -0.9120943  -0.89014258 -0.86599568 -0.83526326
 -0.7913598  -0.72769979 -0.6376977  -0.5169632  -0.36110593 -0.16793072
  0.05817208  0.31720247  0.60037976  0.90550879  1.2194185   1.53332821
  1.84065241  2.13261039  2.40261665  2.64408566  2.85482225  3.03263124
  3.17751265  3.29166164  3.37727338  3.43873821  3.48483684  3.51776444
  3.54410651  3.57264376  3.60996169  3.6582555   3.72630585  3.81850311
  3.93923762  4.08850937  4.27070871  4.48364047  4.72510948  4.99292057
  5.28268338  5.59439792  5.9192835   6.25734011  6.60417741  6.95540506
  7.31321823  7.67322657  8.03543009  8.3976336   8.76203229  9.12423581
  9.48863449  9.85303318 10.21743187 10.58183055 10.94622924 11.31062793
 11.67283144 12.03723013 12.40162882 12.76602751 13.13042619 13.49482488
 13.85702839 14.21923191 14.57704508 14.93266307 15.28169555 15.61975216
 15.94244257 16.24098607 16.50879716 16.73489995 16.90612343 17.01588208
 17.05100484 17.00490621 16.87319584 16.65587373 16.35733023 15.98634603
 15.55389698 15.07315413 14.56167887 14.02825187 13.48604419 12.9438365
 12.40601916 11.87259217 11.34355552 10.81451887 10.28548222  9.74986006
  9.2054572   8.65446882  8.09250458  7.52615     6.95979541  6.39783117
  5.84684279  5.31780614  4.8129164   4.34095424  3.90631002  3.50898374
  3.1489754   2.82189465  2.52554632  2.25114972  1.98553381  1.7199179
  1.44113095  1.13380676  0.78477428  0.387448   -0.06695277 -0.58281838
 -1.15356331 -1.77040688 -2.42017803 -3.08531539 -3.74825758 -4.3848577
 -4.97535919 -5.50439583 -5.95879661 -6.32758564 -6.61076293 -6.80832849
 -6.93125816 -6.98613748 -6.98833266 -6.95101472 -6.88735471 -6.814914
 -6.7424733  -6.68320364]",-0.7773815632503475,13.887596176008945,4.61871,0.7061850000000005
022,1,1,csp,49a.png,1,1,124,88,125,1,1,503,pos_feedback_onset,14,"[ 6.25450762e-01  3.48786342e-01  9.81331063e-02 -1.14685678e-01
 -2.82576053e-01 -4.00808711e-01 -4.71748306e-01 -4.95394838e-01
 -4.76477613e-01 -4.19725937e-01 -3.34598423e-01 -2.28189030e-01
 -1.09956372e-01  1.30055924e-02  1.35967557e-01  2.49470909e-01
  3.53515648e-01  4.41007815e-01  5.09582757e-01  5.59240473e-01
  5.85251658e-01  5.87616311e-01  5.61605127e-01  5.04853451e-01
  4.14996630e-01  2.87305359e-01  1.26508944e-01 -6.97572684e-02
 -2.96763972e-01 -5.45052554e-01 -8.09893709e-01 -1.07709952e+00
 -1.33721136e+00 -1.57604133e+00 -1.78886012e+00 -1.96620911e+00
 -2.10099434e+00 -2.19558046e+00 -2.24996749e+00 -2.26888471e+00
 -2.25469679e+00 -2.21686234e+00 -2.15774601e+00 -2.08207711e+00
 -1.99222029e+00 -1.89054021e+00 -1.77703685e+00 -1.64934558e+00
 -1.50983105e+00 -1.36085790e+00 -1.20242613e+00 -1.03690041e+00
 -8.76103997e-01 -7.22401542e-01 -5.89980965e-01 -4.85936225e-01
 -4.22090590e-01 -4.05538018e-01 -4.50466428e-01 -5.56875820e-01
 -7.31860154e-01 -9.75419430e-01 -1.28282434e+00 -1.65171024e+00
 -2.07498315e+00 -2.54554913e+00 -3.05158491e+00 -3.58836118e+00
 -4.14641932e+00 -4.71866539e+00 -5.29800542e+00 -5.87734544e+00
 -6.45195616e+00 -7.01474361e+00 -7.56334315e+00 -8.09302546e+00
 -8.59906123e+00 -9.07908583e+00 -9.53073458e+00 -9.95164284e+00
 -1.03441753e+01 -1.07106965e+01 -1.10512066e+01 -1.13704347e+01
 -1.16707457e+01 -1.19615980e+01 -1.22429918e+01 -1.25243855e+01
 -1.28057792e+01 -1.30942669e+01 -1.33945779e+01 -1.37090767e+01
 -1.40424928e+01 -1.43948261e+01 -1.47684413e+01 -1.51609738e+01
 -1.55771527e+01 -1.60075196e+01 -1.64544390e+01 -1.69108171e+01
 -1.73719245e+01 -1.78377611e+01 -1.82988685e+01 -1.87576112e+01
 -1.92068953e+01 -1.96490855e+01 -2.00770877e+01 -2.04909020e+01
 -2.08881637e+01 -2.12665082e+01 -2.16212062e+01 -2.19569870e+01
 -2.22691212e+01 -2.25647028e+01 -2.28460965e+01 -2.31180317e+01
 -2.33852375e+01 -2.36595372e+01 -2.39432956e+01 -2.42436066e+01
 -2.45651994e+01 -2.49104388e+01 -2.52769600e+01 -2.56647631e+01
 -2.60691188e+01 -2.64876624e+01 -2.69133000e+01 -2.73413022e+01
 -2.77645751e+01 -2.81807541e+01 -2.85803805e+01 -2.89587250e+01
 -2.93063290e+01 -2.96160986e+01 -2.98833044e+01 -3.00984878e+01
 -3.02545549e+01 -3.03467764e+01 -3.03727876e+01 -3.03302238e+01
 -3.02214498e+01 -3.00464654e+01 -2.98100001e+01 -2.95167831e+01
 -2.91715438e+01 -2.87790113e+01 -2.83415505e+01 -2.78686199e+01
 -2.73554901e+01 -2.68139846e+01 -2.62417385e+01 -2.56434812e+01
 -2.50286714e+01 -2.43973090e+01 -2.37564880e+01 -2.31156670e+01
 -2.24795753e+01 -2.18529422e+01 -2.12404971e+01 -2.06493338e+01
 -2.00818170e+01 -1.95403114e+01 -1.90248170e+01 -1.85400631e+01
 -1.80860497e+01 -1.76604122e+01 -1.72655151e+01 -1.69013585e+01
 -1.65703071e+01 -1.62699961e+01 -1.60004256e+01 -1.57592310e+01
 -1.55440476e+01 -1.53548753e+01 -1.51846203e+01 -1.50309178e+01
 -1.48890387e+01 -1.47566181e+01 -1.46289268e+01 -1.45012355e+01
 -1.43711796e+01 -1.42387590e+01 -1.40992445e+01 -1.39526360e+01
 -1.37965689e+01 -1.36286785e+01 -1.34466002e+01 -1.32526987e+01
 -1.30422445e+01 -1.28128732e+01 -1.25645846e+01 -1.22926495e+01
 -1.19994325e+01 -1.16778397e+01 -1.13349649e+01 -1.09660791e+01
 -1.05759113e+01 -1.01715556e+01 -9.75774128e+00 -9.34629163e+00
 -8.94666525e+00 -8.57305005e+00 -8.23963395e+00 -7.95587557e+00
 -7.73359817e+00 -7.57989572e+00 -7.49713286e+00 -7.49003890e+00
 -7.55151988e+00 -7.67211719e+00 -7.84237222e+00 -8.04809705e+00
 -8.27273910e+00 -8.50211045e+00 -8.72202320e+00 -8.91828941e+00
 -9.08381513e+00 -9.21387106e+00 -9.30609253e+00 -9.36284420e+00
 -9.38885539e+00 -9.38885539e+00 -9.37466747e+00 -9.34629163e+00
 -9.31555114e+00 -9.28008134e+00 -9.24697620e+00 -9.21387106e+00
 -9.17840126e+00 -9.14056681e+00 -9.10273236e+00 -9.05780395e+00
 -9.00814623e+00 -8.95139455e+00 -8.88754892e+00 -8.81188002e+00
 -8.72202320e+00 -8.61324915e+00 -8.47609927e+00 -8.30820889e+00
 -8.10011941e+00 -7.84473687e+00 -7.54442592e+00 -7.19918656e+00
 -6.81611275e+00 -6.39993379e+00 -5.96720226e+00 -5.53447073e+00
 -5.11829177e+00 -4.73521796e+00 -4.41126048e+00 -4.15587794e+00
 -3.99035222e+00 -3.92414193e+00 -3.95724707e+00 -4.09203230e+00
 -4.31430970e+00 -4.60752669e+00 -4.95040140e+00 -5.31455799e+00]","[ -1.91344675  -1.44800526  -1.00143301  -0.58421294  -0.21311769
   0.1013698    0.34667005   0.52068646   0.62132246   0.65277121
   0.62341905   0.54794205   0.43891971   0.31731788   0.2020058
   0.11185272   0.06782447   0.08459714   0.17475022   0.34876663
   0.60874296   0.95048604   1.36351295   1.83105103   2.32794127
   2.83112126   3.31333542   3.74732817   4.11003708   4.38259291
   4.55451274   4.61950682   4.57967174   4.43710407   4.20647991
   3.89828216   3.52509034   3.09948393   2.63613902   2.14553852
   1.63187561   1.1056332    0.57100446   0.03008597  -0.51502569
  -1.06013735  -1.60524901  -2.14826408  -2.68708599  -3.22381132
  -3.75844006  -4.29097222  -4.81931121  -5.34555362  -5.86760286
  -6.38126577  -6.88654235  -7.37504626  -7.8467775   -8.29334974
  -8.71476299  -9.10682406  -9.47372614  -9.81966239 -10.14882597
 -10.47169979 -10.79457362 -11.13002695 -11.48015636 -11.84915502
 -12.23911952 -12.64795326 -13.07146309 -13.50545583 -13.94573833
 -14.38182765 -14.81372381 -15.23094389 -15.62719814 -15.9961968
 -16.32955354 -16.61888204 -16.85160279 -17.02352262 -17.1262552
 -17.1514142  -17.10319278 -16.97739778 -16.78241554 -16.52453579
 -16.21424146 -15.86620863 -15.49092022 -15.10514889 -14.71728098
 -14.33989599 -13.98138024 -13.6480235  -13.3461155  -13.07355967
 -12.83035601 -12.61021476 -12.40894277 -12.22025027 -12.03155777
 -11.83867211 -11.63320694 -11.41096911 -11.16566887 -10.89520962
 -10.59959138 -10.27252438  -9.91610522  -9.53033389  -9.11101723
  -8.66444499  -8.19271374  -7.70211325  -7.20312643  -6.70833277
  -6.23031177  -5.78583611  -5.39377503  -5.06461146  -4.80882829
  -4.62852213  -4.52369296  -4.48385788  -4.4943408   -4.54256221
  -4.6075563   -4.67255038  -4.72286838  -4.74593079  -4.73125471
  -4.67464696  -4.57401096  -4.42305697  -4.22597813  -3.98067789]",1.4704903961160197e-14,1.345063018052597,4.228949999999999,0.47780999999999985
022,2,1,csm,43b.png,1,1,156,207,157,1,1,477,neu_feedback_onset,1,"[ 3.01565366  2.77015422  2.43463833  2.02956427  1.57539032  1.10075808
  0.62408002  0.17195189 -0.24130548 -0.60137132 -0.89801647 -1.1291951
 -1.29490722 -1.39924448 -1.45039019 -1.45652768 -1.42379442 -1.36241956
 -1.28058642 -1.18443247 -1.07600356 -0.96143715 -0.84277909 -0.72002938
 -0.59727966 -0.47248412 -0.34768857 -0.22289303 -0.09809748  0.02669806
  0.15149361  0.27628915  0.4010847   0.52588024  0.65067579  0.77547133
  0.90026688  1.02710825  1.1519038   1.27669934  1.40149489  1.52629043
  1.65108598  1.77588152  1.90067707  2.02547261  2.15026816  2.27710953
  2.40190508  2.52670062  2.65149617  2.77629171  2.90108726  3.0258828
  3.15067835  3.27547389  3.40026944  3.52711081  3.65190635  3.7767019
  3.90149744  4.02629299  4.15108853  4.27588408  4.40067962  4.52547517
  4.65027071  4.77711209  4.90190763  5.02670318  5.15149872  5.27629427
  5.40108981  5.52588536  5.6506809   5.77547645  5.90027199  6.02711337
  6.15190891  6.27670446  6.4015      6.52629555  6.65109109  6.77588664
  6.90068218  7.02547773  7.15027327  7.27711465  7.40191019  7.52670574
  7.65150128  7.77629683  7.90109237  8.02588792  8.15068346  8.27547901
  8.40027455  8.52711592  8.65191147  8.77670701  8.90150256  9.0262981
  9.15313948  9.27793502  9.4047764   9.5336636   9.66459663  9.80166715
  9.94282932 10.09217481 10.25379527 10.4276907  10.61999859 10.82867311
 11.05576008 11.29716786 11.54880478 11.80453335 12.05617027 12.29144056
 12.50216091 12.67810217 12.81108103 12.90109748 12.94610571 12.94815154
 12.9092808  12.8376768  12.7374312  12.61672731 12.48170262 12.33644879
 12.18301164 12.02752867 11.8720457  11.71656272 11.56721723 11.42400923
 11.28898454 11.164189   11.05371425 10.95756031 10.87777299 10.81435231
 10.76934408 10.74070248 10.72638168 10.72638168 10.73865665 10.76116076
 10.78775653 10.82253562 10.85936054 10.89618545 10.93505619 10.96778945
 10.99643105 11.01484351 11.020981   11.0066602  10.96574362 10.89413962
 10.78161905 10.62204442 10.41132407 10.14332052  9.81598795  9.43137217
  8.99151902  8.50256598  7.97269637  7.41213933  6.83112401  6.24192537
  5.66091005  5.09830718  4.56843757  4.08357619  3.65599801  3.29593218
  3.011562    2.8110708   2.70059605  2.68422942  2.76197091  2.92972886
  3.18136577  3.50665252  3.88922247  4.31475482  4.75869963  5.20264444
  5.61999347  5.98619679  6.28079611  6.48537897  6.58153292  6.56516629
  6.4301416   6.18464217  5.84298879  5.42359393  4.95714501  4.47228363
  4.00174305  3.58234818  3.24274063  3.00542451  2.88676646  2.89290394
  3.02179114  3.26319892  3.5905315   3.98333059  4.40681711  4.83030363
  5.22310272  5.56066444  5.81639302  5.97801348  6.03325085  5.97801348
  5.81025553  5.53816033  5.16991118  4.72392054  4.21655505  3.66827298
  3.10567012  2.54920474  2.02547261  1.55084038  1.14372048  0.81434208
  0.56270516  0.3867639   0.27833498  0.21900595  0.19241018  0.18218104
  0.17195189  0.14535612  0.09625624  0.02056058 -0.08173085 -0.21061806
 -0.35996354 -0.52772149 -0.71184606 -0.91847475 -1.14760756 -1.40947362
 -1.71225625 -2.0661846  -2.47944198 -2.95816587 -3.50440211 -4.11815069
 -4.79327413 -5.51954329]","[-1.93006741e+00 -2.06838594e+00 -2.16898123e+00 -2.21718314e+00
 -2.19832153e+00 -2.10191770e+00 -1.92168447e+00 -1.65971756e+00
 -1.31601697e+00 -9.01061385e-01 -4.25329476e-01  9.23171392e-02
  6.37208313e-01  1.18838669e+00  1.72908640e+00  2.24044580e+00
  2.70779477e+00  3.11646315e+00  3.46225948e+00  3.73470506e+00
  3.93379991e+00  4.06583124e+00  4.13499050e+00  4.15385212e+00
  4.13289477e+00  4.08469285e+00  4.01972506e+00  3.94637433e+00
  3.86883212e+00  3.78290697e+00  3.69069462e+00  3.57962065e+00
  3.44758933e+00  3.28621771e+00  3.09131433e+00  2.86707065e+00
  2.61139095e+00  2.33475389e+00  2.04135095e+00  1.74585228e+00
  1.45035360e+00  1.16533360e+00  8.97079488e-01  6.49782725e-01
  4.23443314e-01  2.24348462e-01  5.24981689e-02 -8.16288893e-02
 -1.78032712e-01 -2.24138889e-01 -2.15755947e-01 -1.46596683e-01
 -1.03738897e-02  1.86625227e-01  4.44400667e-01  7.46186548e-01
  1.07731272e+00  1.41263037e+00  1.72699066e+00  1.99314904e+00
  2.18805242e+00  2.28864772e+00  2.27816904e+00  2.14823345e+00
  1.89464948e+00  1.52160860e+00  1.03330228e+00  4.44400667e-01
 -2.30426094e-01 -9.74412120e-01 -1.76869579e+00 -2.59231976e+00
 -3.42642240e+00 -4.25423784e+00 -5.05900019e+00 -5.82603930e+00
 -6.54906797e+00 -7.21760753e+00 -7.83584944e+00 -8.40588944e+00
 -8.93401473e+00 -9.43279972e+00 -9.91062737e+00 -1.03821678e+01
 -1.08558040e+01 -1.13399188e+01 -1.18428953e+01 -1.23605419e+01
 -1.28928587e+01 -1.34314626e+01 -1.39679709e+01 -1.44940004e+01
 -1.49927854e+01 -1.54559429e+01 -1.58708985e+01 -1.62292692e+01
 -1.65226722e+01 -1.67448201e+01 -1.68936173e+01 -1.69711595e+01
 -1.69774467e+01 -1.69208619e+01 -1.68118837e+01 -1.66630865e+01
 -1.64870447e+01 -1.62963328e+01 -1.61014294e+01 -1.59170047e+01
 -1.57451544e+01 -1.55921657e+01 -1.54538472e+01 -1.53281031e+01
 -1.52086462e+01 -1.50849978e+01 -1.49550622e+01 -1.48125522e+01
 -1.46532763e+01 -1.44751388e+01 -1.42844269e+01 -1.40790448e+01
 -1.38610884e+01 -1.36347490e+01 -1.33937394e+01 -1.31359640e+01
 -1.28509440e+01 -1.25323922e+01 -1.21677343e+01 -1.17464915e+01
 -1.12623766e+01 -1.07111982e+01 -1.00971478e+01 -9.42441678e+00
 -8.70557958e+00 -7.95740208e+00 -7.19874591e+00 -6.44637695e+00
 -5.72125254e+00 -5.04013857e+00 -4.41351372e+00 -3.85185666e+00]",11.541030627077173,1.9624989128373105,4.887994999999999,0.7971899999999987
022,2,1,csp,39a.png,1,1,72,89,73,1,1,464,pos_feedback_onset,2,"[nan nan nan nan nan nan nan nan nan nan nan nan nan nan nan nan nan nan
 nan nan nan nan nan nan nan nan nan nan nan nan nan nan nan nan nan nan
 nan nan nan nan nan nan nan nan nan nan nan nan nan nan nan nan nan nan
 nan nan nan nan nan nan nan nan nan nan nan nan nan nan nan nan nan nan
 nan nan nan nan nan nan nan nan nan nan nan nan nan nan nan nan nan nan
 nan nan nan nan nan nan nan nan nan nan nan nan nan nan nan nan nan nan
 nan nan nan nan nan nan nan nan nan nan nan nan nan nan nan nan nan nan
 nan nan nan nan nan nan nan nan nan nan nan nan nan nan nan nan nan nan
 nan nan nan nan nan nan nan nan nan nan nan nan nan nan nan nan nan nan
 nan nan nan nan nan nan nan nan nan nan nan nan nan nan nan nan nan nan
 nan nan nan nan nan nan nan nan nan nan nan nan nan nan nan nan nan nan
 nan nan nan nan nan nan nan nan nan nan nan nan nan nan nan nan nan nan
 nan nan nan nan nan nan nan nan nan nan nan nan nan nan nan nan nan nan
 nan nan nan nan nan nan nan nan nan nan nan nan nan nan nan nan nan nan
 nan nan nan nan nan nan nan nan]","[-3.82649718 -3.58275455 -3.32590748 -3.05857686 -2.77290001 -2.46625606
 -2.13340322 -1.76909972 -1.36024112 -0.90420653 -0.39313327  0.16773686
  0.78102477  1.43886778  2.12816145  2.83580134  3.54606212  4.24321845
  4.91154501  5.54055825  6.12501638  6.65443585  7.13143756  7.56126327
  7.94653387  8.29511204  8.61486044  8.90839995  9.18621413  9.44830297
  9.69466649  9.92792557 10.14545931 10.34726772 10.53335081 10.70370856
 10.8530992  10.9893854  11.10732538 11.21216092 11.30389202 11.38513956
 11.45852444 11.52928843 11.59743153 11.66557463 11.74420128 11.83331149
 11.93814703 12.06919146 12.23168654 12.43349495 12.67985847 12.97601887
 13.32721793 13.72821386 14.17638579 14.66387105 15.18018608 15.70698467
 16.23116236 16.73699384 17.2008911  17.61499148 17.96094876 18.22827939
 18.41698336 18.52443979 18.55589045 18.5218189  18.42746691 18.29118071
 18.11820207 17.91639366 17.69099725 17.43415018 17.14061067 16.80251605
 16.40676189 15.94548552 15.41082427 14.80277814 14.12396803 13.38487747
 12.59861093 11.7861355  10.96841829 10.17690997  9.43781942  8.7825973
  8.24007338  7.84431922  7.61892281  7.5769886   7.73162102  8.07495741
  8.59651422  9.27008256 10.05896999 10.92648408 11.8306906  12.72965535
 13.584065   14.36246888 15.03865811 15.59428646 16.0188704  16.3150308
 16.48276766 16.53256454 16.48014677 16.33861879 16.12632682 15.8589962
 15.54973136 15.21163674 14.8578168  14.49089241 14.12658891 13.7649063
 13.42156991 13.09657974 12.80304023 12.54881405 12.34438475 12.18975233
 12.09277945 12.05346613 12.06132879 12.10588389 12.16878522 12.23168654
 12.26837898 12.25527454 12.17140611 12.00104836 11.72847595 11.34582624
 10.85572009 10.25815752]",,15.413248591272438,4.288575,-0.3266000000000009
022,2,1,csp,1a.png,1,1,232,99,233,1,1,367,pos_feedback_onset,3,"[ 3.29453193e+00  2.83020307e+00  2.38282051e+00  1.95916278e+00
  1.55584063e+00  1.17963257e+00  8.23760081e-01  4.95001686e-01
  1.86578862e-01 -1.01508391e-01 -3.72649335e-01 -6.30233232e-01
 -8.77649344e-01 -1.11828693e+00 -1.35553526e+00 -1.58939432e+00
 -1.82325339e+00 -2.05372319e+00 -2.28080373e+00 -2.50449501e+00
 -2.71801850e+00 -2.92476347e+00 -3.11795139e+00 -3.29419301e+00
 -3.46026684e+00 -3.60600509e+00 -3.73479704e+00 -3.83986416e+00
 -3.92798497e+00 -3.98899168e+00 -4.02966282e+00 -4.04321987e+00
 -4.03305208e+00 -3.99577020e+00 -3.93815275e+00 -3.86019973e+00
 -3.76191114e+00 -3.64667624e+00 -3.52127355e+00 -3.38231382e+00
 -3.23318630e+00 -3.07728025e+00 -2.91798495e+00 -2.75191112e+00
 -2.58244803e+00 -2.40620642e+00 -2.22657554e+00 -2.04016614e+00
 -1.85036748e+00 -1.65379030e+00 -1.45043459e+00 -1.24707888e+00
 -1.04033391e+00 -8.30199678e-01 -6.23454708e-01 -4.16709739e-01
 -2.16743292e-01 -1.67768459e-02  1.73021815e-01  3.56041952e-01
  5.35672828e-01  7.05135918e-01  8.67820484e-01  1.02711579e+00
  1.17963257e+00  1.32876009e+00  1.47788761e+00  1.62362587e+00
  1.77275339e+00  1.92527017e+00  2.08456547e+00  2.24725004e+00
  2.42010239e+00  2.60312253e+00  2.79969971e+00  3.00983394e+00
  3.23352522e+00  3.47755207e+00  3.73513597e+00  4.00966617e+00
  4.30453195e+00  4.61634404e+00  4.94510243e+00  5.29080714e+00
  5.65006889e+00  6.01949842e+00  6.39909574e+00  6.77869307e+00
  7.16167965e+00  7.53788771e+00  7.91070651e+00  8.27674678e+00
  8.63261927e+00  8.97493471e+00  9.31047163e+00  9.63584077e+00
  9.94765285e+00  1.02526864e+01  1.05441629e+01  1.08254717e+01
  1.10932233e+01  1.13508072e+01  1.15948341e+01  1.18354717e+01
  1.20659415e+01  1.22998005e+01  1.25336596e+01  1.27776865e+01
  1.30318811e+01  1.32962435e+01  1.35673845e+01  1.38351361e+01
  1.40994986e+01  1.43401361e+01  1.45468811e+01  1.47061764e+01
  1.48078543e+01  1.48417469e+01  1.48112435e+01  1.47095657e+01
  1.45434919e+01  1.43265791e+01  1.40656059e+01  1.37775187e+01
  1.34758744e+01  1.31708408e+01  1.28759750e+01  1.26014448e+01
  1.23540287e+01  1.21337267e+01  1.19473173e+01  1.17948005e+01
  1.16761764e+01  1.15948341e+01  1.15439952e+01  1.15236596e+01
  1.15338274e+01  1.15744985e+01  1.16388945e+01  1.17304046e+01
  1.18388609e+01  1.19710421e+01  1.21201697e+01  1.22896328e+01
  1.24726529e+01  1.26726193e+01  1.28929214e+01  1.31301697e+01
  1.33945321e+01  1.36826194e+01  1.39978207e+01  1.43435254e+01
  1.47197335e+01  1.51264449e+01  1.55602704e+01  1.60178207e+01
  1.64957067e+01  1.69939281e+01  1.75090959e+01  1.80344315e+01
  1.85699349e+01  1.91122168e+01  1.96578879e+01  2.02103376e+01
  2.07593980e+01  2.12982906e+01  2.18236262e+01  2.23218477e+01
  2.27793980e+01  2.31928880e+01  2.35453712e+01  2.38334585e+01
  2.40571497e+01  2.42164450e+01  2.43181229e+01  2.43757403e+01
  2.44028544e+01  2.44130222e+01  2.44231900e+01  2.44401363e+01
  2.44740289e+01  2.45248679e+01  2.45926531e+01  2.46604383e+01
  2.47248343e+01  2.47655054e+01  2.47756732e+01  2.47383914e+01
  2.46468813e+01  2.45011430e+01  2.43011766e+01  2.40537605e+01
  2.37656732e+01  2.34470826e+01  2.31115457e+01  2.27692302e+01
  2.24303041e+01  2.21049349e+01  2.17999014e+01  2.15185926e+01
  2.12677873e+01  2.10474853e+01  2.08610759e+01  2.07153376e+01
  2.06136597e+01  2.05526530e+01  2.05323175e+01  2.05560423e+01
  2.06204383e+01  2.07153376e+01  2.08441295e+01  2.09932571e+01
  2.11661094e+01  2.13491296e+01  2.15457067e+01  2.17490624e+01
  2.19591967e+01  2.21761094e+01  2.23964114e+01  2.26234920e+01
  2.28641296e+01  2.31251027e+01  2.34131900e+01  2.37419484e+01
  2.41283242e+01  2.45892638e+01  2.51484920e+01  2.58195659e+01
  2.66194317e+01  2.75514787e+01  2.86123176e+01  2.97816129e+01
  3.10322505e+01  3.23100022e+01  3.35640291e+01  3.47299351e+01
  3.57501029e+01  3.65669150e+01  3.71430895e+01  3.74515124e+01
  3.74786265e+01  3.72312104e+01  3.67363781e+01  3.60144654e+01
  3.51129217e+01  3.40656398e+01  3.29132908e+01  3.16931566e+01
  3.04391297e+01  2.91783243e+01  2.79276867e+01  2.67007739e+01
  2.55145323e+01  2.43723511e+01  2.32810088e+01  2.22405054e+01
  2.12576195e+01  2.03357403e+01  1.94748678e+01  1.86750020e+01]","[ -1.60397339  -1.45452762  -1.30741695  -1.16030627  -1.01319559
  -0.86141474  -0.70963388  -0.55084775  -0.38505636  -0.21459478
  -0.03479284   0.15434946   0.35283211   0.56065513   0.7801536
   1.00665734   1.24250144   1.48535081   1.73287036   1.98038991
   2.22790946   2.47075883   2.70660293   2.93310667   3.14326478
   3.33941235   3.51220902   3.66398988   3.79008474   3.88815852
   3.95821123   3.99557267   4.00257794   3.97689195   3.92318488
   3.84379181   3.73871276   3.61728807   3.48185285   3.33941235
   3.19697186   3.05920154   2.93544176   2.82569253   2.73695911
   2.67157658   2.62487478   2.59918879   2.59218352   2.59451861
   2.60385897   2.61319933   2.61553442   2.60152388   2.56883262
   2.50578519   2.41004649   2.27694636   2.09947951   1.87998104
   1.61144568   1.29620851   0.93426955   0.52796387   0.07495639
  -0.41541253  -0.94314289  -1.50589961  -2.09434231  -2.70847101
  -3.33894533  -3.98576529  -4.64192561  -5.3050912   -5.96825679
  -6.62908728  -7.28291251  -7.92506229  -8.55086644  -9.15565477
  -9.73475712 -10.2811682  -10.79255293 -11.26190604 -11.68689244
 -12.06284194 -12.38741947 -12.6629601  -12.89413402 -13.08327632
 -13.23972735 -13.3704924  -13.48724691 -13.59933123 -13.70908046
 -13.82583497 -13.95192984 -14.08269488 -14.21345993 -14.33955479
 -14.45163912 -14.54037254 -14.59407961 -14.61042524 -14.58707434
 -14.51935673 -14.41661277 -14.28117754 -14.1247265  -13.95660002
 -13.78847353 -13.63202249 -13.49425218 -13.38216785 -13.30277479
 -13.25840808 -13.24673263 -13.26541335 -13.31211515 -13.38216785
 -13.46623109 -13.55729961 -13.6530383  -13.74644191 -13.82817006
 -13.89822276 -13.94725966 -13.97528074 -13.97761583 -13.95426493
 -13.90522803 -13.83050515 -13.73243137 -13.61567686 -13.48724691
 -13.34947659 -13.21170627 -13.07860614 -12.96185163 -12.87078312]",28.864648135312926,2.793701794983778,2.950494999999999,0.3632999999999993
022,2,1,csp,46a.png,1,1,252,270,251,1,1,577,neg_feedback_onset,4,"[ 0.4981616   0.30743428  0.12276179 -0.04677361 -0.19208966 -0.30410412
 -0.37676215 -0.40703632 -0.39492665 -0.34648797 -0.27080252 -0.17392515
 -0.06796553  0.03496668  0.13184405  0.21358433  0.27413268  0.31348911
  0.33770846  0.34679071  0.34981813  0.34981813  0.35890038  0.38311972
  0.42550357  0.49210676  0.57990188  0.69797118  0.84025981  1.00676779
  1.19749511  1.40941436  1.6364707   1.87866412  2.13599464  2.39937998
  2.66579275  2.93220552  3.19559087  3.44989396  3.68905997  3.91308889
  4.11592588  4.30059837  4.46105151  4.59728531  4.70929977  4.79406747
  4.85764325  4.9000271   4.91516418  4.91213677  4.89094484  4.85461583
  4.80617714  4.74562879  4.6790256   4.6124224   4.54581921  4.48527086
  4.43683217  4.39747574  4.37628381  4.37022898  4.38839349  4.42774992
  4.49132569  4.58214823  4.6971901   4.83645132  5.0029593   5.19671404
  5.41771554  5.66899122  5.95054108  6.26539253  6.61354558  6.99500022
  7.40975646  7.85175946  8.31495438  8.78723156  9.25950874  9.71664883
 10.15259699 10.55524356 10.9185337  11.24246741 11.52401726 11.7692381
 11.98418477 12.16885726 12.3293104  12.4655442  12.58058608 12.66838119
 12.72892955 12.75617631 12.75012148 12.70471021 12.62902476 12.5170103
 12.37774908 12.21426852 12.03262345 11.83886871 11.63905914 11.43622215
 11.23943999 11.04871267 10.87614985 10.72477896 10.60670967 10.53102422
 10.50680488 10.54010647 10.63698384 10.80046441 11.02752074 11.31512543
 11.64814139 12.02051378 12.41710552 12.82580692 13.23148091 13.62807264
 14.00044503 14.34557066 14.66042211 14.93894455 15.18113798 15.39305722
 15.57470229 15.73212802 15.86836182 15.99551337 16.11661008 16.23770679
 16.36183092 16.50109214 16.65246303 16.81897101 17.00061608 17.20042565
 17.4123449  17.6333464  17.86343016 18.09654133 18.3296525  18.55368142
 18.76862808 18.97146507 19.15311014 19.32264554 19.47098901 19.60722281
 19.73740178 19.86455333 20.00078713 20.1491306  20.32169342 20.52453041
 20.75764158 21.02405435 21.31771388 21.63862016 21.97769096 22.33189884
 22.70124381 23.07967104 23.47323536 23.8879916  24.3299946  24.80832661
 25.32904247 25.89819702 26.50973542 27.16063025 27.83877184 28.52296826
 29.18900018 29.81567567 30.36969313 30.83288805 31.18406852 31.41112485
 31.51102964 31.47772804 31.32635715 31.06599922 30.71784617 30.29400768
 29.81567567 29.2949598  28.74396976 28.17481521 27.59052358 26.99714969
 26.40074838 25.80131965 25.20189093 24.61154445 24.03330765 23.47323536
 22.94040982 22.43483105 21.96558129 21.52963312 21.12395914 20.74855933
 20.39737886 20.05830807 19.72529211 19.38622131 19.04109568 18.67477813
 18.28726865 17.87856724 17.4456465  16.99456124 16.5283389  16.05606172
 15.58681196 15.12361704 14.68161404 14.26080296 13.87026606 13.51605818
 13.19212448 12.9075472  12.65324411 12.42921519 12.22940561 12.05381538
 11.89638965 11.75410102 11.62392205 11.50888017 11.40594797 11.31512543
 11.23943999 11.17586421 11.13045295 11.10017877 11.08504168 11.08504168
 11.10017877 11.12742553 11.16375454 11.21522065 11.27879642 11.35145445
 11.43319473 11.52401726 11.62089463 11.71474458 11.79951228 11.86914289
 11.91455416 11.92666383]","[-0.42348218 -0.31272357 -0.22004799 -0.14771583 -0.09798747 -0.06634215
 -0.05277987 -0.05277987 -0.05956101 -0.07086291 -0.07538367 -0.07086291
 -0.05051949 -0.01435341  0.04215609  0.11674862  0.21168458  0.32018282
  0.44450372  0.58012651  0.72253045  0.87171553  1.0209006   1.17008568
  1.31701038  1.45941431  1.59503711  1.72387877  1.84593928  1.9566979
  2.05615462  2.13978868  2.20986046  2.25958881  2.28897375  2.29575489
  2.27993223  2.24150577  2.18047552  2.10136222  2.00642626  1.90470916
  1.79847131  1.69901459  1.61538053  1.55887103  1.53852761  1.56791255
  1.65832775  1.81429396  2.04259234  2.34096249  2.70714404  3.13209547
  3.59773374  4.09275695  4.59682168  5.08958451  5.55748316  5.98469497
  6.35765766  6.67411085  6.92501303  7.11036418  7.23694546  7.30701724
  7.33188142  7.31831914  7.28215306  7.22790394  7.16913406  7.11262456
  7.06063582  7.0176886   6.98830366  6.96796024  6.95665834  6.95439796
  6.95891872  6.96796024  6.9837829   7.0063867   7.03577164  7.07645848
  7.12618684  7.19173786  7.27311154  7.37482863  7.49914953  7.64381385
  7.81108196  7.9986935   8.19760694  8.40556189  8.61577723  8.81921142
  9.00908334  9.17635145  9.31875539  9.42951401  9.50636693  9.54931414
  9.55609528  9.52897072  9.47472161  9.39560831  9.29389121  9.17861183
  9.05429094  8.9231889   8.79208686  8.66776596  8.55022621  8.44172797
  8.34679201  8.26541833  8.19534656  8.14109744  8.09815022  8.0665049
  8.0439011   8.03033882  8.0212973   8.01903692  8.01903692  8.02355768
  8.02807844  8.03485958  8.0439011   8.05068224  8.05972376  8.06876528
  8.0778068   8.08684832  8.09588984  8.10493136  8.11397288  8.1230144
  8.13205592  8.14109744]",27.063979934274766,8.45257779380134,3.3031449999999998,0.23330000000000073
022,2,1,csp,54a.png,1,1,148,99,147,1,1,556,neg_feedback_onset,5,"[ 1.01452072e-01  1.20124232e-01  1.32572339e-01  1.36721708e-01
  1.32572339e-01  1.20124232e-01  9.93773872e-02  7.24064888e-02
  4.12862214e-02  3.94190054e-03 -3.13277358e-02 -6.86720567e-02
 -9.97923241e-02 -1.24688538e-01 -1.39211329e-01 -1.43360698e-01
 -1.37136645e-01 -1.14315116e-01 -7.69707947e-02 -2.51036824e-02
  4.54355904e-02  1.30497655e-01  2.32157195e-01  3.48339526e-01
  4.81119334e-01  6.28421933e-01  7.88172639e-01  9.60371452e-01
  1.13879432e+00  1.32344124e+00  1.51223753e+00  1.69895913e+00
  1.88153137e+00  2.05787955e+00  2.22177962e+00  2.37323159e+00
  2.50808608e+00  2.62219373e+00  2.71762922e+00  2.79024317e+00
  2.83796092e+00  2.86285713e+00  2.86493182e+00  2.84418497e+00
  2.79854191e+00  2.73422669e+00  2.65123931e+00  2.54957977e+00
  2.43547213e+00  2.30684169e+00  2.16991251e+00  2.02468460e+00
  1.87323263e+00  1.71555661e+00  1.55373122e+00  1.38983114e+00
  1.22178170e+00  1.05373225e+00  8.83608125e-01  7.15558681e-01
  5.47509238e-01  3.81534478e-01  2.21783772e-01  6.61824353e-02
 -8.11201637e-02 -2.20124025e-01 -3.48754463e-01 -4.69086164e-01
 -5.79044442e-01 -6.78629297e-01 -7.65766046e-01 -8.40454688e-01
 -9.04769907e-01 -9.52487650e-01 -9.87757287e-01 -1.00435476e+00
 -1.00642945e+00 -9.89831971e-01 -9.54562335e-01 -9.02695223e-01
 -8.36305319e-01 -7.59541993e-01 -6.74479928e-01 -5.87343180e-01
 -5.04355800e-01 -4.31741843e-01 -3.71575993e-01 -3.30082303e-01
 -3.07260773e-01 -3.07260773e-01 -3.30082303e-01 -3.75725362e-01
 -4.42115265e-01 -5.29252014e-01 -6.37135608e-01 -7.65766046e-01
 -9.15143330e-01 -1.08941683e+00 -1.28651185e+00 -1.50850309e+00
 -1.75331586e+00 -2.02302485e+00 -2.30933131e+00 -2.61223524e+00
 -2.92551260e+00 -3.23878996e+00 -3.55206732e+00 -3.85497126e+00
 -4.14750177e+00 -4.42550949e+00 -4.68691974e+00 -4.93380719e+00
 -5.16824654e+00 -5.38816310e+00 -5.60185560e+00 -5.80724936e+00
 -6.00849376e+00 -6.20766347e+00 -6.40683318e+00 -6.60600289e+00
 -6.80932197e+00 -7.01471574e+00 -7.22425887e+00 -7.43587669e+00
 -7.64956919e+00 -7.86326169e+00 -8.07695420e+00 -8.28649733e+00
 -8.48774173e+00 -8.67653802e+00 -8.85288620e+00 -9.00848753e+00
 -9.14541671e+00 -9.26159904e+00 -9.35288516e+00 -9.42342443e+00
 -9.47114218e+00 -9.50018776e+00 -9.51263587e+00 -9.50848650e+00
 -9.49188902e+00 -9.46699281e+00 -9.43379786e+00 -9.39645353e+00
 -9.35703453e+00 -9.31761552e+00 -9.28234589e+00 -9.25122562e+00
 -9.22632941e+00 -9.20973193e+00 -9.20350788e+00 -9.20558256e+00
 -9.21388130e+00 -9.23255346e+00 -9.25537499e+00 -9.28234589e+00
 -9.30724210e+00 -9.33213832e+00 -9.34873579e+00 -9.35703453e+00
 -9.35288516e+00 -9.33628768e+00 -9.30309273e+00 -9.25537499e+00
 -9.18898509e+00 -9.10392302e+00 -9.00641285e+00 -8.89230520e+00
 -8.76574945e+00 -8.62882027e+00 -8.48566704e+00 -8.33836444e+00
 -8.19106184e+00 -8.04583393e+00 -7.90475538e+00 -7.77197558e+00
 -7.64749451e+00 -7.53753623e+00 -7.43795137e+00 -7.35703868e+00
 -7.29064877e+00 -7.24085635e+00 -7.20973608e+00 -7.19936266e+00
 -7.20973608e+00 -7.23878166e+00 -7.29272346e+00 -7.36741210e+00
 -7.46492227e+00 -7.58525397e+00 -7.72840720e+00 -7.89438196e+00
 -8.07902888e+00 -8.28442265e+00 -8.50641389e+00 -8.74292792e+00
 -8.99189006e+00 -9.24915094e+00 -9.51263587e+00 -9.77612080e+00
 -1.00375310e+01 -1.02968666e+01 -1.05458287e+01 -1.07844175e+01
 -1.10105581e+01 -1.12221759e+01 -1.14213456e+01 -1.16059925e+01
 -1.17781913e+01 -1.19420914e+01 -1.21039168e+01 -1.22636675e+01
 -1.24296423e+01 -1.26059904e+01 -1.27968614e+01 -1.30064046e+01
 -1.32366945e+01 -1.34898060e+01 -1.37595150e+01 -1.40478962e+01
 -1.43487254e+01 -1.46578534e+01 -1.49711308e+01 -1.52802588e+01
 -1.55831627e+01 -1.58715438e+01 -1.61474769e+01 -1.64068124e+01
 -1.66495505e+01 -1.68777658e+01 -1.70893836e+01 -1.72864787e+01
 -1.74752749e+01 -1.76536978e+01 -1.78258966e+01 -1.79939461e+01
 -1.81578461e+01 -1.83196715e+01 -1.84814969e+01 -1.86412476e+01
 -1.87989237e+01 -1.89565997e+01 -1.91142757e+01 -1.92698770e+01
 -1.94254784e+01 -1.95769303e+01 -1.97242329e+01 -1.98653115e+01
 -1.99980913e+01 -2.01184230e+01 -2.02242319e+01 -2.03113686e+01
 -2.03736092e+01 -2.04068041e+01 -2.04088788e+01 -2.03715345e+01
 -2.02947712e+01 -2.01744395e+01 -2.00084647e+01 -1.97989216e+01]","[ -0.55436063  -0.54369164  -0.52448746  -0.49888189  -0.46260733
  -0.41779758  -0.36231884  -0.29830491  -0.22575579  -0.14467148
  -0.05505198   0.03883512   0.13698981   0.2372783    0.34183438
   0.44852427   0.55734795   0.66617163   0.77499531   0.88595278
   0.99477646   1.10146635   1.20602243   1.30417712   1.39806422
   1.48128233   1.55383145   1.60931019   1.64771854   1.66478892
   1.66052133   1.63064816   1.57516942   1.49835271   1.39806422
   1.27857155   1.1441423    0.99904406   0.84541063   0.6896434
   0.53174237   0.37384135   0.21807412   0.06444069  -0.08492515
  -0.23429098  -0.37938922  -0.52448746  -0.6695857   -0.81255014
  -0.95551459  -1.09847903  -1.24144347  -1.38440791  -1.52737236
  -1.6703368   -1.81116744  -1.95413189  -2.09709633  -2.23792697
  -2.38089142  -2.52172206  -2.6625527   -2.79911575  -2.93354501
  -3.06157286  -3.17893174  -3.28348782  -3.36670593  -3.42431847
  -3.44565644  -3.42218467  -3.34536795  -3.2088049   -3.00396033
  -2.73083423  -2.38942661  -1.98613885  -1.52523856  -1.01952852
  -0.47754391   0.08791246   0.66190403   1.2337618    1.79495058
   2.33053379   2.82770864   3.28007374   3.67055871   3.98849456
   4.2253461    4.36831054   4.4109865    4.34483877   4.16133217
   3.85833291   3.43157338   2.88105358   2.20890732   1.4172684
   0.51467199  -0.4882129   -1.5807173   -2.74363702  -3.95990167
  -5.2081733   -6.46924771  -7.71965313  -8.94018538 -10.12017548
 -11.24468684 -12.30945187 -13.31233676 -14.25547532 -15.14740274
 -15.99452041 -16.79896212 -17.57353067 -18.31822605 -19.03518206
 -19.73080009 -20.39867875 -21.04095184 -21.64908417 -22.22520954
 -22.76506034 -23.26436899 -23.72100169 -24.13282464 -24.49983783
 -24.81990748 -25.09516738 -25.31921613 -25.49632133 -25.62221539
