sub,run,cat_cond,trial_type,picture,old,response_old,target_pos,response_pos,dot_resp_loc,cat_corr,TN_corr,TN_rt,feedback_type,trial,SP_timeseries,FB_timeseries,SP_peak_response,FB_peak_response,preStim_bl,anticipation
020,1,1,csm,2b.png,1,1,232,NaN,NaN,0,1,451,neu_feedback_onset,1,"[ 0.08930405  0.03671276 -0.0583561  -0.18174334 -0.32131252 -0.45885895
 -0.58224619 -0.67731505 -0.7278836  -0.72990634 -0.67529231 -0.56404152
 -0.39615396 -0.17769786  0.08525856  0.38462433  0.71433123  1.06022005
  1.41419985  1.7661569   2.10597751  2.42152521  2.70470904  2.94946079
  3.14768947  3.29737236  3.39244122  3.43289605  3.41873686  3.3479409
  3.22253092  3.04250691  2.81393709  2.53884423  2.22329652  1.87336221
  1.499155    1.10674311  0.708263    0.31382837 -0.06442432 -0.41435863
 -0.72383811 -0.97668082 -1.16277306 -1.27200111 -1.29425127 -1.22952353
 -1.07781791 -0.84722535 -0.54988233 -0.19994802  0.1843729   0.58487576
  0.9894241   1.38385872  1.76008868  2.11406847  2.44579811  2.76134581
  3.06273432  3.35805461  3.65539764  3.96083163  4.27840207  4.60204074
  4.92770216  5.24729534  5.54059289  5.79141285  5.98155057  6.09077862
  6.10493782  6.01391444  5.8177085   5.51834273  5.13199907  4.67890493
  4.1873787   3.68978424  3.21443995  2.79370968  2.45186633  2.20913733
  2.07563638  2.05136348  2.13227315  2.30420619  2.55098068  2.85236919
  3.19016705  3.55021507  3.91835405  4.28649304  4.65463203  5.02277101
  5.39293274  5.77320818  6.16359732  6.5701684   6.99292142  7.42983362
  7.87685953  8.32590819  8.76888861  9.19568711  9.59416722  9.95016976
 10.25560375 10.49226453 10.65003838 10.7188116  10.68644773 10.5489013
 10.30414955  9.95623798  9.51730304  8.99948117  8.42906801  7.82629099
  7.22351397  6.64500985  6.11909701  5.66802561  5.30797759  5.05311214
  4.90949748  4.87308813  4.94388409  5.10974891  5.35854613  5.67611658
  6.05436927  6.47509954  6.93021642  7.4096062   7.90315517  8.40479511
  8.90643505  9.40200676  9.88544202 10.34662713 10.77949385 11.17392848
 11.52386279 11.82120582 12.05988934 12.23991335 12.35925511 12.41993736
 12.4219601  12.37139156 12.27025447 12.11854884 11.91627468 11.66343197
 11.36002071 11.00604092 10.59946984 10.1463757   9.64675851  9.11073196
  8.54436429  7.95979194  7.36510589  6.77648806  6.20202942  5.65588916
  5.14615826  4.68295041  4.27637933  3.93251325  3.65944312  3.46323718
  3.34389542  3.30748607  3.35198638  3.47537363  3.66753409  3.9203768
  4.22176531  4.55754043  4.91354296  5.27561373  5.63161626  5.97345961
  6.29709828  6.60455501  6.89582981  7.17901365  7.46219749  7.75144955
  8.05081532  8.36231754  8.68393346  9.00959488  9.33525629  9.64878125
  9.94005605 10.20503521 10.43158228 10.61565177 10.75522095 10.84624432
 10.89681287 10.90490383 10.88265368 10.83410787 10.7673574  10.69251596
 10.61767451 10.54687856 10.48821905 10.44978695 10.43562776 10.45383244
 10.51046921 10.60756081 10.74915272 10.93524496 11.15976929 11.41058925
 11.6796139  11.94863854 12.19743577 12.41184639 12.57366572 12.67278007
 12.69907571 12.65052991 12.52714266 12.33295946 12.07809401 11.76861453
 11.41665748 11.03031382 10.61565177 10.18278505  9.7337364   9.27255129
  8.80125248  8.32590819  7.84449566  7.36915137  6.90594352  6.46700858
  6.06448298  5.71657141  5.43541032  5.23515889  5.1239081   5.10368068
  5.17447664  5.32618227  5.54666111  5.81973124  6.12314249  6.44071294
  6.75221515  7.0455127 ]","[-4.09341941 -3.76997589 -3.41679044 -3.03758079 -2.63234695 -2.20108893
 -1.74194784 -1.2605003  -0.75488744 -0.23068587  0.30281006  0.84002372
  1.36608416  1.86797928  2.33269698  2.7453663   3.09483401  3.36808802
  3.55955171  3.66178961  3.67851945  3.60788236  3.45545495  3.23053158
  2.94054773  2.59479776  2.20257602  1.771318    1.30660029  0.81957614
  0.31210441 -0.20280281 -0.71771002 -1.22146401 -1.70291155 -2.15089941
 -2.55613325 -2.91117758 -3.21231465 -3.45768559 -3.64729042 -3.7885646
 -3.88336701 -3.93727426 -3.95586297 -3.94285088 -3.90195572 -3.82945976
 -3.7309396  -3.60639526 -3.45954447 -3.29410496 -3.11565337 -2.9353429
 -2.76246791 -2.60818163 -2.48363729 -2.39812923 -2.35723407 -2.37024617
 -2.43344778 -2.5468389  -2.70856066 -2.91117758 -3.14911304 -3.41121382
 -3.69190332 -3.98188716 -4.27372988 -4.56185486 -4.83882661 -5.09906852
 -5.33886285 -5.55077413 -5.73480234 -5.883512   -5.99690312 -6.0749757
 -6.11587085 -6.12330634 -6.10099989 -6.05638699 -5.99504425 -5.92440716
 -5.85005233 -5.77569749 -5.70320153 -5.63070557 -5.55449187 -5.46712494
 -5.36302817 -5.23290722 -5.0749032  -4.88343951 -4.66223388 -4.42058067
 -4.16591537 -3.9093912  -3.66959687 -3.45582672 -3.279234   -3.14725417
 -3.06360498 -3.02828644 -3.03758079 -3.08405256 -3.16584288 -3.27737513
 -3.41493157 -3.57479446 -3.75882267 -3.96515733 -4.19193956 -4.44288712
 -4.71428226 -5.00612498 -5.31469753 -5.63628218 -5.96716119 -6.29989906
 -6.62706033 -6.94678611 -7.25164092 -7.53604815 -7.79814894 -8.03422553
 -8.24241906 -8.4245884  -8.57887468 -8.70527789 -8.80193917 -8.87257626
 -8.91161255 -8.92090691 -8.90045933 -8.84655207 -8.76662063 -8.66438273
 -8.54727387 -8.42644727]",10.427789638910266,0.1946702456126253,4.943785,
020,1,1,csm,36b.png,1,1,0,NaN,187,1,1,808,neu_feedback_onset,2,"[-0.52778941 -0.40367791 -0.30060226 -0.21435528 -0.14072982 -0.07972586
 -0.02503266  0.02755696  0.07804299  0.12432186  0.16218638  0.19163657
  0.20636166  0.20215449  0.18111864  0.14956487  0.11170035  0.08225016
  0.07383582  0.10118242  0.17270431  0.30312656  0.49455277  0.74908652
  1.06041706  1.42013004  1.81981114  2.24263167  2.67176295  3.09458348
  3.49426458  3.85608115  4.1653081   4.4135311   4.59023221  4.6891007
  4.71013654  4.65333976  4.5229175   4.32938771  4.07906113  3.78455927
  3.46271081  3.12613725  2.7895637   2.46350806  2.15848828  1.88502227
  1.64942078  1.45589098  1.30653647  1.20346082  1.15297478  1.14876761
  1.19504648  1.28970779  1.4264408   1.60314191  1.80929322  2.04068754
  2.28680695  2.53713353  2.78535653  3.01885443  3.23342007  3.42484628
  3.5868223   3.72355531  3.83294172  3.92129227  3.99071057  4.04750736
  4.09799339  4.14637584  4.19896546  4.25786583  4.32938771  4.41563468
  4.51450316  4.63020032  4.76062258  4.90576992  5.06564236  5.23813631
  5.42114818  5.61467797  5.82082928  6.03539492  6.26047848  6.49607997
  6.7400958   6.99252596  7.24705971  7.50369705  7.75612722  8.00014304
  8.22733019  8.43768867  8.62701129  8.7910909   8.93413466  9.05403899
  9.15501105  9.24125803  9.31909066  9.39061254  9.46423801  9.54417423
  9.63673195  9.74611836  9.8786442  10.03851664 10.22994285 10.45292283
 10.70745658 10.99564768 11.31539256 11.66038045 12.03061136 12.41977454
 12.8236628  13.23806899 13.65878594 14.08371005 14.50442699 14.91883318
 15.31851428 15.7013667  16.05687252 16.38082456 16.66691208 16.90882433
 17.10656129 17.25591581 17.35899146 17.41578824 17.42840975 17.39895957
 17.32954127 17.22436204 17.08131827 16.90882433 16.70688019 16.48390021
 16.24619514 16.00217931 15.76237066 15.53307992 15.32482503 15.13760599
 14.97983714 14.8473113  14.74002848 14.65167792 14.57594887 14.50442699
 14.43290511 14.35086531 14.25410041 14.13840325 14.00167025 13.84179781
 13.65878594 13.45894539 13.24227616 13.01508901 12.78159111 12.54809321
 12.32300964 12.11054758 11.91701779 11.7508346  11.61620518 11.51733669
 11.46264349 11.45212557 11.49419726 11.58675499 11.73400592 11.93595005
 12.18838022 12.48288208 12.81524846 13.17285787 13.54519236 13.91752686
 14.2835506  14.63064208 14.95459412 15.25540674 15.53307992 15.79602801
 16.05056176 16.30509551 16.56594002 16.84150962 17.13180431 17.43472051
 17.74184388 18.04265649 18.32453684 18.57486342 18.77470397 18.91564415
 18.9913732  18.99347678 18.92616207 18.79363624 18.60010644 18.3581942
 18.07631385 17.76708689 17.43472051 17.08973261 16.73633038 16.38292815
 16.02952592 15.68453802 15.35006805 15.03032317 14.72951056 14.44973379
 14.19309646 13.96170214 13.75344725 13.57253896 13.41056294 13.27172635
 13.14761485 13.04033203 12.94567072 12.86363091 12.79210903 12.73741583
 12.69744772 12.68061904 12.68903338 12.72689791 12.79841979 12.90990978
 13.06136788 13.25279409 13.48418841 13.74924008 14.04163836 14.35296889
 14.67271377 14.99035506 15.29747843 15.58566954 15.84861763 16.08001195
 16.27774891 16.44182852 16.57856153 16.68794793 16.77629849 16.84992396
 16.91513508 16.97824262]","[-7.02932927e-01 -7.95931794e-01 -8.31548382e-01 -8.17697487e-01
 -7.60315207e-01 -6.71273738e-01 -5.60466577e-01 -4.39765920e-01
 -3.13129165e-01 -1.88471109e-01 -6.18343532e-02  6.28237028e-02
  1.91439157e-01  3.25990710e-01  4.72414458e-01  6.32689102e-01
  8.08793340e-01  1.00270587e+00  1.21046930e+00  1.43604102e+00
  1.67744233e+00  1.93467324e+00  2.20377635e+00  2.48870905e+00
  2.78551394e+00  3.09023363e+00  3.40286812e+00  3.71946001e+00
  4.03209450e+00  4.33681420e+00  4.62966169e+00  4.90470089e+00
  5.15797441e+00  5.38750352e+00  5.59130955e+00  5.76741379e+00
  5.91383754e+00  6.02464470e+00  6.09785657e+00  6.12753706e+00
  6.10577137e+00  6.02662340e+00  5.88613575e+00  5.68430842e+00
  5.42312011e+00  5.10850692e+00  4.75036235e+00  4.36253729e+00
  3.96086133e+00  3.55720667e+00  3.16542421e+00  2.79540744e+00
  2.45111376e+00  2.13452187e+00  1.84563177e+00  1.58246477e+00
  1.33908475e+00  1.11549173e+00  9.03770906e-01  7.01943577e-01
  5.11988444e-01  3.29948109e-01  1.57801269e-01 -2.47337413e-03
 -1.48897122e-01 -2.75533878e-01 -3.84362339e-01 -4.69446409e-01
 -5.32764787e-01 -5.70360074e-01 -5.86189668e-01 -5.84210969e-01
 -5.66402675e-01 -5.42658284e-01 -5.16935193e-01 -4.97148200e-01
 -4.91212102e-01 -5.07041696e-01 -5.46615682e-01 -6.17848857e-01
 -7.18762521e-01 -8.53314074e-01 -1.01556742e+00 -1.20156515e+00
 -1.40339248e+00 -1.61511331e+00 -1.82881283e+00 -2.04053366e+00
 -2.24433968e+00 -2.44418831e+00 -2.64601564e+00 -2.85575777e+00
 -3.08528689e+00 -3.34647519e+00 -3.64921619e+00 -4.00538206e+00
 -4.41893022e+00 -4.88788195e+00 -5.40432247e+00 -5.95835827e+00
 -6.53020237e+00 -7.09808907e+00 -7.64025268e+00 -8.13294881e+00
 -8.56232655e+00 -8.90859893e+00 -9.16780854e+00 -9.33401928e+00
 -9.41316725e+00 -9.40920986e+00 -9.33204058e+00 -9.18957423e+00
 -8.99170430e+00 -8.74238819e+00 -8.44954069e+00 -8.11118311e+00
 -7.73127285e+00 -7.30783120e+00 -6.84481556e+00 -6.34420464e+00
 -5.81787062e+00 -5.27768571e+00 -4.73750080e+00 -4.21908159e+00
 -3.73825766e+00 -3.31283731e+00 -2.95073533e+00 -2.65986654e+00
 -2.43627352e+00 -2.26808407e+00 -2.13748992e+00 -2.02470406e+00
 -1.90796080e+00 -1.76945185e+00 -1.59532631e+00 -1.37371199e+00
 -1.10856628e+00 -8.05825291e-01 -4.79339906e-01 -1.48897122e-01]",16.610167887096388,3.872710273901417,4.75379,-0.07218500000000017
020,1,1,csp,48a.png,1,0,256,NaN,NaN,0,1,427,neg_feedback_onset,3,"[ 1.15232644  0.67933351  0.29102491 -0.01466485 -0.23980122 -0.3926461
 -0.47939589 -0.51244343 -0.50418155 -0.46493759 -0.40090798 -0.3203546
 -0.22947386 -0.13033124 -0.02705767  0.08241231  0.19601323  0.31374509
  0.4356079   0.56573259  0.7020537   0.84870216  1.00774345  1.17917757
  1.36506999  1.56335523  1.77816425  2.00123515  2.23050247  2.46183525
  2.68490616  2.89351876  3.08560759  3.25084529  3.3871664   3.49043997
  3.56479693  3.60610636  3.62056466  3.6102373   3.57925523  3.53588033
  3.48630902  3.43673771  3.39336281  3.36031527  3.3437915   3.34585697
  3.36651169  3.40782111  3.46771978  3.54207675  3.6246956   3.7114454
  3.79612972  3.86842122  3.920058    3.9489746   3.94690913  3.90973064
  3.83743915  3.73003464  3.59371353  3.43467224  3.26736906  3.10006589
  2.94722101  2.82329273  2.73860841  2.70142993  2.71175728  2.76959048
  2.87079857  3.00711968  3.16822644  3.34585697  3.52968392  3.71764181
  3.9055997   4.09562306  4.29390831  4.50458638  4.73591917  4.99410308
  5.28533453  5.60754806  5.96074365  6.33459396  6.71670615  7.09055646
  7.44168658  7.74944181  8.00349478  8.19351814  8.31538095  8.37321414
  8.37527961  8.33397019  8.26374416  8.18319078  8.10676834  8.04686967
  8.01175666  8.00142931  8.01588761  8.04893515  8.09231004  8.14188136
  8.19145267  8.23482756  8.27613699  8.31744642  8.36288679  8.42071998
  8.49714242  8.59628504  8.72021332  8.86686178  9.02796855  9.19940267
  9.36464037  9.51541978  9.64141353  9.73435973  9.78806199  9.80045482
  9.77566916  9.71783596  9.63728258  9.53813996  9.43280092  9.33159283
  9.23658115  9.15809324  9.09406363  9.04862326  9.01970666  9.00524836
  9.00318289  9.01144478  9.02590308  9.04655779  9.06927797  9.09406363
  9.11884928  9.14156947  9.16222418  9.1828789   9.19940267  9.21592644
  9.23038474  9.24690851  9.26549775  9.28821793  9.3192      9.35637849
  9.4059498   9.46584846  9.53813996  9.61869334  9.70957408  9.80252029
  9.89340103  9.97808535 10.04831137 10.10201363 10.13093023 10.13506117
 10.11027551 10.0607042   9.98841271  9.8954665   9.79219293  9.68478842
  9.57531844  9.47204488  9.37909867  9.29441435  9.21592644  9.14570041
  9.07547439  9.00111742  8.91849857  8.82348689  8.71195144  8.58389222
  8.44550564  8.29472623  8.14394683  7.99936383  7.86923914  7.76596558
  7.69160861  7.6564956   7.66269201  7.70813238  7.78868576  7.90022121
  8.0303459   8.17286342  8.31538095  8.44757111  8.56117203  8.6499873
  8.70988597  8.73673709  8.73467162  8.70368955  8.64585635  8.57149939
  8.48268412  8.38973791  8.29472623  8.21004191  8.13568494  8.08198269
  8.04686967  8.03447685  8.04686967  8.07785174  8.12742306  8.1893872
  8.26167869  8.33603566  8.4124581   8.48474959  8.55084467  8.61074334
  8.6644456   8.71195144  8.75739181  8.80283217  8.84827254  8.89784385
  8.94534969  8.99492101  9.04036137  9.07960533  9.10852193  9.1250457
  9.1250457   9.1105874   9.07960533  9.03623043  8.98665912  8.93502234
  8.8875165   8.85033801  8.8296833   8.8296833   8.84620707  8.87925461
  8.92676045  8.98252818  9.03623043  9.08373627  9.11884928  9.13743853
  9.13537306  9.11265287]","[ 0.5197247   0.31319867  0.0852407  -0.15051071 -0.3823654  -0.59863323
 -0.78177895 -0.92400914 -1.01168528 -1.03311723 -0.9824599  -0.85191986
 -0.64539384 -0.36093346 -0.00828052  0.40282317  0.86068748  1.34777717
  1.85045372  2.35118192  2.83242653  3.28054905  3.67801423  4.01313194
  4.27616037  4.45930609  4.56062075  4.58010433  4.52165357  4.39111354
  4.20017438  3.95662953  3.67216916  3.35653504  3.01946897  2.67071276
  2.31805982  1.96540689  1.61859903  1.27958461  0.95226034  0.63467786
  0.32683718  0.03068665 -0.25572209 -0.53433739 -0.80126254 -1.05649753
 -1.29809402 -1.52410363 -1.73257802 -1.9176721  -2.07548916 -2.20797755
 -2.30929221 -2.37943313 -2.42034866 -2.43398717 -2.42034866 -2.3852782
 -2.3287758  -2.25278981 -2.1631653  -2.05600557 -1.93520733 -1.79882222
 -1.64490188 -1.47539466 -1.28835222 -1.08377456 -0.86750673 -0.6376004
 -0.40184899 -0.16220087  0.07160218  0.29566344  0.50413783  0.68923191
  0.84510061  0.96395049  1.03798812  1.06136843  1.02824633  0.93472511
  0.77885641  0.56258859  0.28787001 -0.03555755 -0.39405556 -0.77398551
 -1.15976055 -1.53189707 -1.87480821 -2.17485546 -2.4184003  -2.60154602
 -2.71649919 -2.76520816 -2.75156965 -2.68337709 -2.56647557 -2.40865851
 -2.22161607 -2.01119332 -1.78323535 -1.54553558 -1.29809402 -1.04675574
 -0.79736582 -0.54992426 -0.31222449 -0.09400831  0.09693085  0.25085119
  0.3541142   0.39892645  0.37359779  0.27617985  0.10277592 -0.14466564
 -0.46029975 -0.83633299 -1.2610752  -1.72478458 -2.21577099 -2.72624098
 -3.24450441 -3.7647162  -4.27323783 -4.76422424 -5.22793362 -5.65267583
 -6.03065742 -6.35213662 -6.61321669 -6.80805257 -6.94054096 -7.00873352
 -7.02432039 -6.99509501]",9.45768985295911,1.7499671214460846,4.8415099999999995,
020,1,1,csp,27a.png,1,1,268,NaN,268,1,1,494,pos_feedback_onset,4,"[-1.17215716e+00 -1.17859700e+00 -1.14210460e+00 -1.06697320e+00
 -9.61789244e-01 -8.32992559e-01 -6.84876371e-01 -5.26027127e-01
 -3.54298214e-01 -1.78276078e-01  4.18589226e-03  1.88794474e-01
  3.75549667e-01  5.64451471e-01  7.51206664e-01  9.31522023e-01
  1.10110432e+00  1.25995357e+00  1.39948331e+00  1.52184016e+00
  1.62702412e+00  1.71503519e+00  1.79445981e+00  1.87173782e+00
  1.95760228e+00  2.06278624e+00  2.20016937e+00  2.37619150e+00
  2.59943909e+00  2.86776552e+00  3.18117078e+00  3.52462861e+00
  3.88525933e+00  4.23945021e+00  4.56573514e+00  4.84050141e+00
  5.04442949e+00  5.16249312e+00  5.18395923e+00  5.11097444e+00
  4.95212520e+00  4.72029117e+00  4.43479185e+00  4.12138658e+00
  3.80583470e+00  3.50745572e+00  3.24986235e+00  3.04593426e+00
  2.90855113e+00  2.83985957e+00  2.83985957e+00  2.90855113e+00
  3.03520121e+00  3.21336995e+00  3.43876415e+00  3.70065075e+00
  3.99688312e+00  4.32316805e+00  4.67521233e+00  5.05086932e+00
  5.45013905e+00  5.86872827e+00  6.30663700e+00  6.76171862e+00
  7.23182652e+00  7.71481409e+00  8.21068132e+00  8.71298839e+00
  9.22602852e+00  9.74121526e+00  1.02628418e+01  1.07844684e+01
  1.13082416e+01  1.18320148e+01  1.23579346e+01  1.28817078e+01
  1.34054809e+01  1.39271075e+01  1.44465875e+01  1.49596276e+01
  1.54640813e+01  1.59535087e+01  1.64236166e+01  1.68679652e+01
  1.72822612e+01  1.76622114e+01  1.80035226e+01  1.83083414e+01
  1.85766678e+01  1.88085019e+01  1.90059901e+01  1.91755724e+01
  1.93193954e+01  1.94374590e+01  1.95319099e+01  1.96006015e+01
  1.96435337e+01  1.96542668e+01  1.96328007e+01  1.95748421e+01
  1.94803912e+01  1.93494479e+01  1.91863055e+01  1.89974037e+01
  1.87848891e+01  1.85573483e+01  1.83169279e+01  1.80722142e+01
  1.78167674e+01  1.75570274e+01  1.72822612e+01  1.69924686e+01
  1.66833566e+01  1.63527784e+01  1.59985875e+01  1.56250771e+01
  1.52408337e+01  1.48522970e+01  1.44744934e+01  1.41224492e+01
  1.38133371e+01  1.35578904e+01  1.33732818e+01  1.32680978e+01
  1.32466317e+01  1.33131767e+01  1.34634395e+01  1.36866870e+01
  1.39700397e+01  1.42984713e+01  1.46526622e+01  1.50111463e+01
  1.53588973e+01  1.56808890e+01  1.59642417e+01  1.62089554e+01
  1.64107369e+01  1.65760260e+01  1.67134091e+01  1.68336194e+01
  1.69430966e+01  1.70547203e+01  1.71727840e+01  1.73037273e+01
  1.74496968e+01  1.76128393e+01  1.77888614e+01  1.79799099e+01
  1.81816913e+01  1.83920593e+01  1.86024272e+01  1.88106485e+01
  1.90059901e+01  1.91820123e+01  1.93258352e+01  1.94267260e+01
  1.94782446e+01  1.94675116e+01  1.93902336e+01  1.92442640e+01
  1.90338961e+01  1.87634230e+01  1.84435779e+01  1.80872404e+01
  1.77137300e+01  1.73380731e+01  1.69752957e+01  1.66404243e+01
  1.63441920e+01  1.60951850e+01  1.58998434e+01  1.57538738e+01
  1.56551297e+01  1.55928780e+01  1.55563856e+01  1.55327729e+01
  1.55070135e+01  1.54662279e+01  1.53953897e+01  1.52902058e+01
  1.51442362e+01  1.49574810e+01  1.47342334e+01  1.44852265e+01
  1.42233399e+01  1.39614533e+01  1.37167396e+01  1.34999318e+01
  1.33239097e+01  1.31929664e+01  1.31156884e+01  1.30856358e+01
  1.31028087e+01  1.31564740e+01  1.32401919e+01  1.33410826e+01
  1.34505598e+01  1.35557437e+01  1.36480480e+01  1.37167396e+01
  1.37532320e+01  1.37510854e+01  1.37017133e+01  1.36008226e+01
  1.34484132e+01  1.32444851e+01  1.29933316e+01  1.27035390e+01
  1.23858405e+01  1.20531158e+01  1.17225376e+01  1.14112789e+01
  1.11343661e+01  1.09089719e+01  1.07458294e+01  1.06535251e+01
  1.06363522e+01  1.06921641e+01  1.08166676e+01  1.09969829e+01
  1.12223771e+01  1.14735307e+01  1.17332707e+01  1.19801310e+01
  1.21969387e+01  1.23622278e+01  1.24631185e+01  1.24910245e+01
  1.24395058e+01  1.23085625e+01  1.21024878e+01  1.18298682e+01
  1.15100231e+01  1.11536856e+01  1.07801752e+01  1.04088114e+01
  1.00567671e+01  9.73906865e+00  9.47074222e+00  9.25822769e+00
  9.11011151e+00  9.03068688e+00  9.01780721e+00  9.06932589e+00
  9.18094968e+00  9.34194554e+00  9.54587362e+00  9.77985427e+00
  1.00374476e+01  1.03057741e+01  1.05762471e+01  1.08381337e+01
  1.10849940e+01  1.13103882e+01  1.15057298e+01  1.16645791e+01
  1.17826427e+01  1.18556275e+01  1.18856801e+01  1.18706538e+01]","[-3.12558618 -2.95133319 -2.76067991 -2.55157632 -2.32197238 -2.06161791
 -1.77051291 -1.44045724 -1.06735083 -0.65119368 -0.19403583  0.30002265
  0.82278163  1.35989086  1.89905012  2.42590916  2.91996765  3.36482529
  3.74818188  4.05568716  4.27709096  4.40214311  4.4308436   4.3611424
  4.20123966  3.96138554  3.65798033  3.30947434  2.9343179   2.55301135
  2.18605505  1.8457492   1.54029395  1.27788945  1.05648565  0.87198248
  0.71412977  0.57882744  0.45172526  0.32872315  0.19957093  0.06631864
 -0.07308376 -0.21453618 -0.35598861 -0.4892409  -0.61019298 -0.71474478
 -0.79879622 -0.86234731 -0.90334802 -0.92384837 -0.9197483  -0.8910478
 -0.83569685 -0.75164541 -0.63069333 -0.47079059 -0.26578706 -0.0115827
  0.28977248  0.6403285   1.02778515  1.44804237  1.88264983  2.32135737
  2.74571466  3.14547152  3.50832776  3.83223332  4.11513818  4.3611424
  4.5763961   4.76909941  4.94745247  5.12170547  5.29185839  5.46201131
  5.62806416  5.78386684  5.91916916  6.02577099  6.08932208  6.1016223
  6.05652152  5.94581962  5.7756667   5.54811279  5.27955818  4.98435311
  4.68299793  4.39394297  4.14178864  3.94498526  3.81583304  3.77073226
  3.80968293  3.93063501  4.12948842  4.38779286  4.68914804  5.01100356
  5.33285909  5.6301142   5.8863686   6.08932208  6.22667444  6.29842568
  6.30662582  6.25947501  6.16722342  6.04422131  5.89866881  5.7469662
  5.59321356  5.44766106  5.31235874  5.19550673  5.09505501  5.0130536
  4.95770265  4.92490209  4.92490209  4.95770265  5.02740385  5.13605571
  5.27955818  5.4558612   5.65881469  5.87406839  6.08932208  6.29022553
  6.46037846  6.58338057  6.6489817   6.64488163  6.56698029  6.40912758
  6.17337353  5.86381821]",17.78886144803966,5.676318836929857,4.658505,-0.10756500000000013
020,1,1,csm,22b.png,1,1,16,28,16,1,1,475,neu_feedback_onset,5,"[ 1.45273624  1.46655115  1.44878912  1.40142372  1.32445495  1.21985636
  1.0856544   0.91987551  0.72251968  0.49161336  0.225183   -0.07085074
 -0.39056718 -0.72409853 -1.05960343 -1.38129343 -1.67930073 -1.94375754
 -2.16676962 -2.34241631 -2.47661827 -2.56937551 -2.62858225 -2.66213275
 -2.6739741  -2.67002698 -2.6502914  -2.61082023 -2.54963992 -2.45490913
 -2.32070717 -2.14111336 -1.9121806  -1.63390889 -1.31419245 -0.96092552
 -0.59384368 -0.2287354   0.10874306  0.39490901  0.61200042  0.73633459
  0.75607017  0.66331293  0.45806287  0.15018778 -0.24649743 -0.71225718
 -1.21946165 -1.74245459 -2.25163263 -2.72331305 -3.13183961 -3.46537096
 -3.71206574 -3.87192396 -3.94494562 -3.94494562 -3.88573887 -3.78311384
 -3.652859   -3.51273636 -3.37656084 -3.24827955 -3.13776029 -3.04105593
 -2.95421937 -2.86935636 -2.77265201 -2.65423851 -2.50030097 -2.3049187
 -2.05822392 -1.76416373 -1.4207646  -1.04184141 -0.63528841 -0.22084117
  0.18571183  0.56463502  0.90211348  1.18235876  1.39550305  1.5395728
  1.61456802  1.62838293  1.59088532  1.51786366  1.42707998  1.33432274
  1.25735397  1.20604146  1.19420011  1.22182992  1.29287802  1.40339728
  1.54351992  1.70929881  1.88691906  2.07045998  2.25005378  2.42372691
  2.58753224  2.74344335  2.89540733  3.04539776  3.20722954  3.38484978
  3.59009984  3.83482107  4.12690769  4.47425395  4.88080695  5.34261958
  5.85179762  6.3964997   6.95699024  7.507613    8.02468527  8.48255078
  8.85752686  9.13382501  9.29368323  9.33512796  9.25421207  9.05290912
  8.74306048  8.3305868   7.83127656  7.2569711   6.62148534  5.94060774
  5.2281532   4.49793664  3.7716672   3.06118623  2.38820286  1.77245268
  1.23367127  0.78962066  0.45806287  0.25873349  0.19952674  0.29228398
  0.5370052   0.93369042  1.47247182  2.13953452  2.91711647  3.78153499
  4.70910738  5.6682567   6.63727381  7.58852889  8.49833925  9.35288998
 10.13639261 10.83897935 11.45867665 11.99351094 12.4494029  12.82832609
 13.13620118 13.3809224  13.56643688 13.70063884 13.78352829 13.81707878
 13.80326387 13.74208356 13.62959074 13.46973252 13.25856179 13.00002566
 12.69609768 12.34875143 11.96785468 11.55735456 11.1251453  10.68109469
 10.23112341  9.78509924  9.34894286  8.93252207  8.54175753  8.18454349
  7.86285349  7.58260822  7.34380766  7.1484254   6.99054074  6.87015368
  6.77937     6.71621614  6.67279785  6.64516804  6.62937957  6.62148534
  6.61951178  6.61951178  6.62148534  6.62543246  6.62937957  6.63332669
  6.63924736  6.64319448  6.64911516  6.65306227  6.65700939  6.66293006
  6.66687718  6.67279785  6.67674497  6.68069209  6.68661276  6.69055988
  6.694507    6.70042767  6.70437479  6.71029546  6.71424258  6.71818969
  6.72411037  6.72805749  6.73397816  6.73792528  6.74187239  6.74779307
  6.75174019  6.7556873   6.76160798  6.76752865  6.77147577  6.77739644
  6.78529068  6.79318491  6.8030527   6.81686761  6.83265607  6.85633877
  6.88791571  6.92738687  6.97869939  7.04185325  7.12079558  7.21355282
  7.32209852  7.44445914  7.58260822  7.73062509  7.8904833   8.05823576
  8.23190888  8.40755557  8.58517581  8.75884894  8.92857495  9.08843317
  9.24237072  9.38249335]","[-1.01847598e+00 -9.49776081e-01 -8.91810543e-01 -8.53166851e-01
 -8.29551261e-01 -8.23110645e-01 -8.27404389e-01 -8.31698133e-01
 -8.20963774e-01 -7.84466953e-01 -7.05032697e-01 -5.63339159e-01
 -3.50798851e-01 -5.45305435e-02  3.29759507e-01  7.99924430e-01
  1.34737674e+00  1.95494145e+00  2.60329674e+00  3.26882699e+00
  3.92576976e+00  4.55265632e+00  5.13445858e+00  5.65829530e+00
  6.12201961e+00  6.52992525e+00  6.89274658e+00  7.22551171e+00
  7.54324873e+00  7.86098576e+00  8.19375089e+00  8.54369099e+00
  8.91295294e+00  9.29724299e+00  9.68153304e+00  1.00507950e+01
  1.03857070e+01  1.06690941e+01  1.08880750e+01  1.10297685e+01
  1.10877341e+01  1.10662653e+01  1.09696561e+01  1.08086407e+01
  1.05939536e+01  1.03406227e+01  1.00572356e+01  9.75882042e+00
  9.45181776e+00  9.14481509e+00  8.84639991e+00  8.56301283e+00
  8.29894760e+00  8.06493858e+00  7.86527950e+00  7.70426412e+00
  7.58833304e+00  7.51748627e+00  7.49172381e+00  7.50675191e+00
  7.55183622e+00  7.61838925e+00  7.69352976e+00  7.76222966e+00
  7.81160771e+00  7.82878268e+00  7.80731396e+00  7.74505468e+00
  7.63771109e+00  7.48957694e+00  7.31138658e+00  7.11387437e+00
  6.90348094e+00  6.69738125e+00  6.49986904e+00  6.32167868e+00
  6.16281017e+00  6.02326350e+00  5.89445120e+00  5.76778576e+00
  5.63253284e+00  5.48225181e+00  5.30406145e+00  5.09581489e+00
  4.85751212e+00  4.59344689e+00  4.31435356e+00  4.03311335e+00
  3.76260750e+00  3.51357038e+00  3.29673633e+00  3.11639909e+00
  2.97470556e+00  2.86521510e+00  2.77504648e+00  2.69561222e+00
  2.60973735e+00  2.50668751e+00  2.37572833e+00  2.21471294e+00
  2.02149448e+00  1.80466043e+00  1.57279828e+00  1.33664238e+00
  1.11551458e+00  9.18002379e-01  7.52693251e-01  6.26027815e-01
  5.42299815e-01  4.92921764e-01  4.75746789e-01  4.80040533e-01
  4.95068635e-01  5.14390482e-01  5.29418584e-01  5.31565456e-01
  5.16537353e-01  4.86481148e-01  4.37103097e-01  3.72696943e-01
  2.95409559e-01  2.05240943e-01  1.06484841e-01 -8.58748717e-04
 -1.12496082e-01 -2.28427159e-01 -3.48651979e-01 -4.71023671e-01
 -5.93395364e-01 -7.13620184e-01 -8.27404389e-01 -9.32601107e-01
 -1.02706347e+00 -1.10435085e+00 -1.16231639e+00 -1.20096008e+00
 -1.22242880e+00 -1.22886941e+00 -1.22672254e+00 -1.22028193e+00]",10.41372688716574,8.545623172475409,5.0669900000000005,0.1066400000000014
020,1,1,csp,42a.png,1,1,328,269,329,1,1,376,pos_feedback_onset,6,"[ 5.92807153e-01  4.30887142e-01  3.27438246e-01  2.68967130e-01
  2.41980462e-01  2.37482684e-01  2.35233795e-01  2.30736016e-01
  2.14993793e-01  1.76762679e-01  1.18291564e-01  3.73315582e-02
 -5.93706709e-02 -1.67317345e-01 -2.77512909e-01 -3.83210694e-01
 -4.75415145e-01 -5.47379594e-01 -5.92357375e-01 -6.10348488e-01
 -5.94606265e-01 -5.45130705e-01 -4.61921811e-01 -3.44979580e-01
 -1.92055125e-01 -5.39733372e-03  2.12744904e-01  4.62371588e-01
  7.36736052e-01  1.02684274e+00  1.32594498e+00  1.62504723e+00
  1.91290502e+00  2.18052282e+00  2.42115395e+00  2.63030063e+00
  2.81021176e+00  2.96088732e+00  3.08457622e+00  3.19252289e+00
  3.28922512e+00  3.37918068e+00  3.47138514e+00  3.56583848e+00
  3.66703848e+00  3.77498516e+00  3.88518072e+00  3.99537628e+00
  4.10107407e+00  4.19552741e+00  4.27423853e+00  4.33270964e+00
  4.36419409e+00  4.36869187e+00  4.34395409e+00  4.29672742e+00
  4.22701186e+00  4.14380296e+00  4.05609629e+00  3.97288739e+00
  3.90542072e+00  3.86269183e+00  3.84919850e+00  3.87393628e+00
  3.93690517e+00  4.03810518e+00  4.16854074e+00  4.32821186e+00
  4.50812299e+00  4.70152745e+00  4.89942968e+00  5.09958081e+00
  5.29748304e+00  5.48863861e+00  5.67529640e+00  5.85295864e+00
  6.02612310e+00  6.19703866e+00  6.37020312e+00  6.54786535e+00
  6.73902092e+00  6.94816761e+00  7.18654984e+00  7.46316320e+00
  7.78475433e+00  8.16031880e+00  8.59660328e+00  9.09585665e+00
  9.65583002e+00  1.02720256e+01  1.09331990e+01  1.16258568e+01
  1.23365058e+01  1.30471547e+01  1.37398125e+01  1.44054837e+01
  1.50284260e+01  1.56041416e+01  1.61236349e+01  1.65891550e+01
  1.69984528e+01  1.73537772e+01  1.76641239e+01  1.79294928e+01
  1.81588795e+01  1.83590306e+01  1.85344440e+01  1.86941151e+01
  1.88357951e+01  1.89662307e+01  1.90786751e+01  1.91731285e+01
  1.92428440e+01  1.92833240e+01  1.92855729e+01  1.92473418e+01
  1.91663818e+01  1.90404440e+01  1.88740262e+01  1.86716262e+01
  1.84399906e+01  1.81858662e+01  1.79204973e+01  1.76461328e+01
  1.73740172e+01  1.71019017e+01  1.68365328e+01  1.65779105e+01
  1.63282838e+01  1.60899016e+01  1.58717594e+01  1.56738571e+01
  1.55029415e+01  1.53680082e+01  1.52713060e+01  1.52128349e+01
  1.51970926e+01  1.52128349e+01  1.52555638e+01  1.53140349e+01
  1.53770038e+01  1.54287282e+01  1.54647104e+01  1.54759549e+01
  1.54624615e+01  1.54332260e+01  1.53927460e+01  1.53567638e+01
  1.53410215e+01  1.53545149e+01  1.54084882e+01  1.55096882e+01
  1.56536171e+01  1.58357771e+01  1.60426749e+01  1.62585683e+01
  1.64632172e+01  1.66408794e+01  1.67690661e+01  1.68387816e+01
  1.68387816e+01  1.67645683e+01  1.66228883e+01  1.64182394e+01
  1.61663638e+01  1.58852527e+01  1.55928971e+01  1.53095371e+01
  1.50554126e+01  1.48485148e+01  1.47023370e+01  1.46281237e+01
  1.46303726e+01  1.47113326e+01  1.48687548e+01  1.51026393e+01
  1.54017415e+01  1.57615638e+01  1.61686127e+01  1.66183905e+01
  1.70951550e+01  1.75876617e+01  1.80846662e+01  1.85681773e+01
  1.90291996e+01  1.94519907e+01  1.98320530e+01  2.01626397e+01
  2.04392530e+01  2.06663908e+01  2.08485508e+01  2.09924797e+01
  2.11071731e+01  2.11993775e+01  2.12758397e+01  2.13455553e+01
  2.14107731e+01  2.14714931e+01  2.15344620e+01  2.15974309e+01
  2.16626487e+01  2.17278664e+01  2.17930842e+01  2.18583020e+01
  2.19257687e+01  2.19909865e+01  2.20584531e+01  2.21236709e+01
  2.21911376e+01  2.22586042e+01  2.23260709e+01  2.23912887e+01
  2.24587554e+01  2.25239732e+01  2.25914398e+01  2.26566576e+01
  2.27196265e+01  2.27825954e+01  2.28388176e+01  2.28905421e+01
  2.29310221e+01  2.29580087e+01  2.29670043e+01  2.29490132e+01
  2.28995376e+01  2.28095821e+01  2.26746487e+01  2.24902398e+01
  2.22518576e+01  2.19639998e+01  2.16289153e+01  2.12555997e+01
  2.08530486e+01  2.04347552e+01  2.00142130e+01  1.96049152e+01
  1.92226040e+01  1.88762751e+01  1.85771729e+01  1.83275462e+01
  1.81296440e+01  1.79857151e+01  1.78912617e+01  1.78350395e+01
  1.78103017e+01  1.78035550e+01  1.78035550e+01  1.77968084e+01
  1.77743195e+01  1.77225950e+01  1.76348884e+01  1.75111995e+01
  1.73515283e+01  1.71581239e+01  1.69422305e+01  1.67105950e+01
  1.64767105e+01  1.62518216e+01  1.60471727e+01  1.58762571e+01]","[nan nan nan nan nan nan nan nan nan nan nan nan nan nan nan nan nan nan
 nan nan nan nan nan nan nan nan nan nan nan nan nan nan nan nan nan nan
 nan nan nan nan nan nan nan nan nan nan nan nan nan nan nan nan nan nan
 nan nan nan nan nan nan nan nan nan nan nan nan nan nan nan nan nan nan
 nan nan nan nan nan nan nan nan nan nan nan nan nan nan nan nan nan nan
 nan nan nan nan nan nan nan nan nan nan nan nan nan nan nan nan nan nan
 nan nan nan nan nan nan nan nan nan nan nan nan nan nan nan nan nan nan
 nan nan nan nan nan nan nan nan nan nan nan nan nan nan]",21.604627314106818,,4.44664,-0.70634
020,1,1,csp,54a.png,1,1,340,326,341,1,1,362,pos_feedback_onset,7,"[ 1.94509228  2.3624101   2.62540727  2.71886907  2.6493161   2.42326895
  2.06028938  1.59080684  1.04525073  0.4627446  -0.13062917 -0.70009411
 -1.22608845 -1.69122394 -2.08897998 -2.412836   -2.66931258 -2.86493031
 -3.00403625 -3.09532452 -3.14531572 -3.16053043 -3.13879513 -3.08445687
 -2.99099506 -2.86058325 -2.68887435 -2.47369485 -2.21287121 -1.90640344
 -1.55863859 -1.17392372 -0.75225884 -0.30016454  0.17801213  0.67357704
  1.18218314  1.69730982  2.21243651  2.71886907  3.21226045  3.68391653
  4.12949024  4.54898159  4.93586999  5.29232896  5.61835851  5.91830569
  6.18999698  6.43343237  6.64426481  6.81162665  6.92682375  6.97681495
  6.95073259  6.83770901  6.63122363  6.33344998  5.95308217  5.50533493
  5.01194355  4.50551099  4.01646667  3.57306648  3.2013928   2.92752798
  2.75799261  2.6993073   2.74712496  2.88405737  3.09271628  3.35353992
  3.63827239  3.92735192  4.20121674  4.4489992   4.66200517  4.83371406
  4.96847294  5.06845534  5.14018184  5.1945201   5.23364364  5.26842013
  5.30319661  5.3379731   5.37927017  5.42708784  5.47925257  5.53793788
  5.59879673  5.66182911  5.72920855  5.79658799  5.86614096  5.94004099
  6.02046161  6.10740283  6.20738522  6.32475586  6.46168827  6.62687657
  6.82032077  7.03984733  7.2811092   7.53541224  7.78971529  8.02228303
  8.21572723  8.34613905  8.39613025  8.35048611  8.19833899  7.93751535
  7.57453579  7.12461501  6.60296774  6.03567633  5.44882314  4.86849055
  4.31641385  3.81215482  3.37310169  3.00577507  2.71452201  2.50151604
  2.36023657  2.28851007  2.27764242  2.32328655  2.41457482  2.54498664
  2.71017495  2.90144562  3.11445159  3.34701933  3.59914885  3.87301366
  4.17078732  4.4989904   4.86631702  5.27711425  5.73572914  6.24433524
  6.79858547  7.39413277  8.01576244  8.64608623  9.26119531  9.83283378
 10.33926635 10.75006358 11.04783723 11.21519906 11.24345496 11.13260491
 10.88916952 10.52836348 10.07409565  9.54375425  8.97211578  8.38091553
  7.79840941  7.24850624  6.75294133  6.32692939  5.98133807  5.72920855
  5.57054084  5.50750846  5.54228495  5.6683497   5.88135567  6.17043521
  6.52906771  6.93986494  7.38978571  7.86361532  8.34179199  8.80692748
  9.24163354  9.63069546  9.9632456  10.2284163  10.4218605  10.54575173
 10.60661058 10.61965176 10.60008998 10.57183409 10.55661938 10.58052821
 10.66529589 10.82613714 11.07609312 11.41516385 11.83682873 12.32369952
 12.85621445 13.39959703 13.92559136 14.40376803 14.80587114 15.11451244
 15.31665076 15.41445963 15.41445963 15.33621254 15.19928013 15.02974476
 14.85151528 14.68415344 14.54287397 14.43854452 14.37116508 14.34508271
 14.3516033  14.38855332 14.44941217 14.52765926 14.616774   14.71458287
 14.81673879 14.92324178 15.02974476 15.13842128 15.24927132 15.35794784
 15.46879789 15.5774744  15.68832445 15.79700096 15.90785101 16.01652752
 16.12737757 16.23605409 16.34690413 16.45558065 16.56643069 16.67728074
 16.78595726 16.8968073  17.00548382 17.11633386 17.22501038 17.33586042
 17.44453694 17.55538699 17.6640635  17.77274002 17.88141653 17.98574599
 18.08790191 18.18353725 18.26830493 18.3378579  18.38350204 18.39436969
 18.3595932  18.25961081]","[-3.99544688e+00 -3.69654585e+00 -3.37921942e+00 -3.04551485e+00
 -2.68929034e+00 -2.30849862e+00 -1.90109242e+00 -1.46707175e+00
 -1.00438934e+00 -5.15092455e-01 -1.22836038e-03  5.33108407e-01
  1.08177605e+00  1.63658549e+00  2.18934766e+00  2.73187350e+00
  3.25392666e+00  3.74731808e+00  4.20590596e+00  4.62354849e+00
  4.99615114e+00  5.32780844e+00  5.61442586e+00  5.85600341e+00
  6.05254107e+00  6.20199158e+00  6.30230768e+00  6.34734756e+00
  6.33301669e+00  6.25931507e+00  6.12419542e+00  5.92970503e+00
  5.68403295e+00  5.39127373e+00  5.06780549e+00  4.72386459e+00
  4.36968734e+00  4.01551010e+00  3.66952192e+00  3.33581735e+00
  3.01849092e+00  2.71754262e+00  2.43297247e+00  2.16068592e+00
  1.90068297e+00  1.65296362e+00  1.41343335e+00  1.18823395e+00
  9.75318145e-01  7.78780484e-01  6.02715495e-01  4.51217715e-01
  3.28381676e-01  2.38301915e-01  1.85072965e-01  1.70742093e-01
  1.91214767e-01  2.46490984e-01  3.26334409e-01  4.22555972e-01
  5.22872070e-01  6.14999099e-01  6.86653455e-01  7.23504267e-01
  7.19409732e-01  6.64133515e-01  5.59722882e-01  4.06177834e-01
  2.05545638e-01 -2.98901027e-02 -2.98082120e-01 -5.90841345e-01
 -8.99978708e-01 -1.22139968e+00 -1.55715151e+00 -1.90109242e+00
 -2.25526967e+00 -2.61968325e+00 -2.99023863e+00 -3.36693581e+00
 -3.74158573e+00 -4.10804658e+00 -4.45812929e+00 -4.78159752e+00
 -5.07435675e+00 -5.32617063e+00 -5.53499189e+00 -5.69467874e+00
 -5.80932571e+00 -5.87688553e+00 -5.90759454e+00 -5.90145274e+00
 -5.86869646e+00 -5.81342025e+00 -5.74176589e+00 -5.65782793e+00
 -5.56365364e+00 -5.46129027e+00 -5.34869057e+00 -5.22585453e+00
 -5.09073489e+00 -4.93718984e+00 -4.76317212e+00 -4.56049265e+00
 -4.32915145e+00 -4.06505397e+00 -3.77024747e+00 -3.45087377e+00
 -3.11716920e+00 -2.78551190e+00 -2.47228000e+00 -2.20204072e+00
 -1.98912492e+00 -1.85400527e+00 -1.80691813e+00 -1.85400527e+00
 -1.99117218e+00 -2.21022979e+00 -2.49684721e+00 -2.83055178e+00
 -3.19496536e+00 -3.57166254e+00 -3.94835973e+00 -4.31277331e+00
 -4.66080875e+00 -4.99246606e+00 -5.30569795e+00 -5.60459898e+00
 -5.89326367e+00 -6.17578656e+00 -6.45421491e+00 -6.73059600e+00
 -7.00492982e+00 -7.27926364e+00 -7.55155019e+00 -7.81974221e+00
 -8.08588696e+00 -8.34179537e+00 -8.58951472e+00 -8.82085592e+00]",17.593187513389676,3.597867566372397,4.600809999999999,-0.4052750000000005
020,1,1,csp,21a.png,1,1,180,176,NaN,0,1,528,neg_feedback_onset,8,"[ 4.15942615e+00  3.73386103e+00  3.24682540e+00  2.71723326e+00
  2.16163436e+00  1.59894271e+00  1.04334381e+00  5.13751664e-01
  1.96232803e-02 -4.27220090e-01 -8.26778448e-01 -1.17432329e+00
 -1.47458312e+00 -1.72519369e+00 -1.93797625e+00 -2.11056655e+00
 -2.25005733e+00 -2.35881286e+00 -2.43446888e+00 -2.47466114e+00
 -2.48175390e+00 -2.45101864e+00 -2.37772687e+00 -2.26424284e+00
 -2.11056655e+00 -1.91669799e+00 -1.69209418e+00 -1.44148361e+00
 -1.17195904e+00 -8.95341717e-01 -6.21088643e-01 -3.58656822e-01
 -1.15139006e-01  1.00007802e-01  2.84419352e-01  4.35731393e-01
  5.53943925e-01  6.46149700e-01  7.14712968e-01  7.71454983e-01
  8.23468498e-01  8.82574764e-01  9.55866533e-01  1.05043656e+00
  1.17101334e+00  1.32468963e+00  1.51146543e+00  1.73134074e+00
  1.98431556e+00  2.26566139e+00  2.57301397e+00  2.90164481e+00
  3.24918965e+00  3.61092000e+00  3.98683585e+00  4.37457296e+00
  4.77413132e+00  5.18551093e+00  5.60871179e+00  6.04846241e+00
  6.50712703e+00  6.98470566e+00  7.48829105e+00  8.01551894e+00
  8.56875359e+00  9.14563075e+00  9.74851466e+00  1.03679483e+01
  1.09992032e+01  1.16375509e+01  1.22735343e+01  1.28953323e+01
  1.34911234e+01  1.40490866e+01  1.45597647e+01  1.50137008e+01
  1.54038022e+01  1.57253403e+01  1.59830436e+01  1.61840049e+01
  1.63376812e+01  1.64629865e+01  1.65741063e+01  1.66899545e+01
  1.68247168e+01  1.69902144e+01  1.71911757e+01  1.74276007e+01
  1.76947611e+01  1.79808354e+01  1.82692740e+01  1.85435270e+01
  1.87846806e+01  1.89761849e+01  1.90991259e+01  1.91440467e+01
  1.90967617e+01  1.89572709e+01  1.87208458e+01  1.83945792e+01
  1.79831996e+01  1.75032568e+01  1.69665719e+01  1.63920590e+01
  1.58009963e+01  1.52122979e+01  1.46472420e+01  1.41271068e+01
  1.36708065e+01  1.32925264e+01  1.30064520e+01  1.28173120e+01
  1.27345632e+01  1.27558415e+01  1.28787825e+01  1.30939293e+01
  1.33941891e+01  1.37653765e+01  1.41885774e+01  1.46448777e+01
  1.51200921e+01  1.55882137e+01  1.60350571e+01  1.64440725e+01
  1.68058028e+01  1.71107911e+01  1.73566732e+01  1.75434490e+01
  1.76758471e+01  1.77609601e+01  1.78035166e+01  1.78129736e+01
  1.77916953e+01  1.77491388e+01  1.76853041e+01  1.76025553e+01
  1.75056210e+01  1.73897727e+01  1.72644674e+01  1.71297052e+01
  1.69902144e+01  1.68530878e+01  1.67206898e+01  1.65977488e+01
  1.64913575e+01  1.64015160e+01  1.63258599e+01  1.62643894e+01
  1.62171044e+01  1.61745479e+01  1.61390841e+01  1.61036204e+01
  1.60657924e+01  1.60256001e+01  1.59806793e+01  1.59333943e+01
  1.58861093e+01  1.58388243e+01  1.57962678e+01  1.57584398e+01
  1.57277045e+01  1.57064263e+01  1.56946050e+01  1.56922408e+01
  1.56969693e+01  1.57064263e+01  1.57182475e+01  1.57324330e+01
  1.57442543e+01  1.57513470e+01  1.57537113e+01  1.57489828e+01
  1.57418900e+01  1.57324330e+01  1.57229760e+01  1.57182475e+01
  1.57229760e+01  1.57418900e+01  1.57749895e+01  1.58317316e+01
  1.59097518e+01  1.60137789e+01  1.61438126e+01  1.62998532e+01
  1.64771720e+01  1.66734048e+01  1.68838231e+01  1.70989699e+01
  1.73164810e+01  1.75292635e+01  1.77325891e+01  1.79193649e+01
  1.80872267e+01  1.82361745e+01  1.83662082e+01  1.84773280e+01
  1.85742623e+01  1.86593753e+01  1.87397598e+01  1.88225086e+01
  1.89076216e+01  1.90045559e+01  1.91133114e+01  1.92362525e+01
  1.93733790e+01  1.95246911e+01  1.96878243e+01  1.98580504e+01
  2.00282764e+01  2.01866812e+01  2.03261720e+01  2.04325633e+01
  2.04940338e+01  2.05011266e+01  2.04467488e+01  2.03261720e+01
  2.01393962e+01  1.98864214e+01  1.95767046e+01  1.92197027e+01
  1.88272371e+01  1.84087647e+01  1.79761069e+01  1.75363563e+01
  1.70989699e+01  1.66639478e+01  1.62383827e+01  1.58222746e+01
  1.54156234e+01  1.50184293e+01  1.46330565e+01  1.42642334e+01
  1.39166885e+01  1.35975147e+01  1.33161689e+01  1.30844723e+01
  1.29142463e+01  1.28196762e+01  1.28054907e+01  1.28858753e+01
  1.30584656e+01  1.33232616e+01  1.36731707e+01  1.40963716e+01
  1.45739502e+01  1.50869926e+01  1.56094920e+01  1.61130774e+01
  1.65717420e+01  1.69594791e+01  1.72479177e+01  1.74181437e+01
  1.74512432e+01  1.73424877e+01  1.70847844e+01  1.66875903e+01
  1.61650909e+01  1.55362002e+01  1.48245608e+01  1.40609078e+01]","[-3.34447877e+00 -3.15990020e+00 -2.93076819e+00 -2.65708273e+00
 -2.34520859e+00 -1.99938898e+00 -1.62811025e+00 -1.23561560e+00
 -8.26148206e-01 -4.01829662e-01  3.52184392e-02  4.82874504e-01
  9.39016939e-01  1.39940256e+00  1.86190977e+00  2.32017380e+00
  2.76782987e+00  3.19214841e+00  3.58676466e+00  3.94319223e+00
  4.25294477e+00  4.51602227e+00  4.72818154e+00  4.89578737e+00
  5.02944771e+00  5.13764894e+00  5.23736379e+00  5.34344343e+00
  5.46649581e+00  5.62137208e+00  5.81231542e+00  6.03720425e+00
  6.29179538e+00  6.56335925e+00  6.83704471e+00  7.08951424e+00
  7.30379511e+00  7.46715774e+00  7.56475101e+00  7.59657490e+00
  7.56687260e+00  7.48837367e+00  7.37805085e+00  7.26348484e+00
  7.17013476e+00  7.12345972e+00  7.14255406e+00  7.24863369e+00
  7.44594182e+00  7.73660002e+00  8.11212193e+00  8.55977800e+00
  9.05410910e+00  9.57602091e+00  1.00958111e+01  1.05837775e+01
  1.10144608e+01  1.13581588e+01  1.15894124e+01  1.16912489e+01
  1.16509386e+01  1.14599952e+01  1.11247836e+01  1.06601548e+01
  1.00894463e+01  9.44023898e+00  8.75072134e+00  8.05483893e+00
  7.38653722e+00  6.77339692e+00  6.23663397e+00  5.78473472e+00
  5.41769918e+00  5.12279779e+00  4.88305781e+00  4.68150650e+00
  4.49056316e+00  4.29537663e+00  4.08109576e+00  3.83499100e+00
  3.55494077e+00  3.24094504e+00  2.89936861e+00  2.53445467e+00
  2.15893275e+00  1.77916766e+00  1.39940256e+00  1.02812383e+00
  6.65331478e-01  3.19511864e-01 -1.14566007e-02 -3.23330731e-01
 -6.09745748e-01 -8.66458468e-01 -1.08710411e+00 -1.26319631e+00
 -1.38837028e+00 -1.45838284e+00 -1.46262602e+00 -1.40322143e+00
 -1.28016905e+00 -1.09983367e+00 -8.70701653e-01 -6.03380970e-01
 -3.16965953e-01 -2.41861570e-02  2.55864082e-01  5.06212023e-01
  7.12006518e-01  8.60518008e-01  9.39016939e-01  9.43260124e-01
  8.69004379e-01  7.12006518e-01  4.78631318e-01  1.73121966e-01
 -1.96035168e-01 -6.18232119e-01 -1.07649615e+00 -1.55597610e+00
 -2.04606402e+00 -2.52978716e+00 -2.99229438e+00 -3.42297770e+00
 -3.81122917e+00 -4.14856241e+00 -4.42861265e+00 -4.64925829e+00
 -4.80625615e+00 -4.89960623e+00 -4.92930853e+00 -4.89960623e+00
 -4.81474252e+00 -4.67683900e+00 -4.49438202e+00 -4.27585797e+00
 -4.03187481e+00 -3.77091890e+00 -3.50996300e+00 -3.25749347e+00]",18.449134329628567,8.079502444074828,4.22967,
020,1,1,csm,7b.png,1,1,8,13,9,1,1,535,neu_feedback_onset,9,"[-0.78698534 -0.81287657 -0.82797978 -0.83013739 -0.81287657 -0.77403973
 -0.71146927 -0.62516519 -0.51728509 -0.38567136 -0.23679682 -0.06850386
  0.11704991  0.3177069   0.5334671   0.76648813  1.01245476  1.2735246
  1.54538246  1.82371313  2.09988619  2.36742884  2.61555307  2.83347088
  3.01686705  3.15926879  3.25636088  3.31461614  3.33619216  3.33619216
  3.32540415  3.31461614  3.31461614  3.32971935  3.36208338  3.40307782
  3.43975705  3.45701787  3.43544185  3.36208338  3.22615445  3.02549746
  2.76442762  2.46020573  2.13440782  1.81508272  1.53027925  1.30804624
  1.1656445   1.11170445  1.14838369  1.2648942   1.44181756  1.65542017
  1.88412598  2.09988619  2.28975517  2.44294491  2.55298262  2.63065629
  2.68028114  2.72127557  2.76227001  2.82268287  2.90682935  3.02118226
  3.1678992   3.33834976  3.52821874  3.72456052  3.9122719   4.07840726
  4.20786338  4.29200986  4.31790108  4.27906425  4.17334175  4.00289119
  3.77202777  3.4915395   3.17868721  2.84857409  2.52061858  2.2185543
  1.95532685  1.75035466  1.61011052  1.54106726  1.54106726  1.60148012
  1.71367542  1.86254996  2.03084292  2.20992389  2.38900486  2.55729782
  2.71696037  2.86367731  3.00607904  3.14632318  3.29304012  3.45054506
  3.62099563  3.8065494   4.00720639  4.21649379  4.4365692   4.65664461
  4.87456241  5.08816501  5.29313721  5.48947899  5.67719037  5.85627134
  6.0288795   6.19717246  6.36330782  6.52944318  6.69342093  6.85955629
  7.02784925  7.19829981  7.37090797  7.54135853  7.7118091   7.87362925
  8.02466139  8.15843272  8.26847042  8.3504593   8.40224175  8.41734496
  8.39792654  8.34398649  8.25984001  8.15195991  8.02466139  7.88657486
  7.74633073  7.614717    7.49604889  7.403272    7.34285915  7.31481032
  7.32775593  7.37738078  7.45721205  7.56293455  7.68376027  7.80674359
  7.91893889  8.00740058  8.06997103  8.09801986  8.09370466  8.06134063
  8.01171578  7.95561813  7.90383568  7.87147165  7.86715644  7.90167807
  7.97719415  8.09586226  8.25552481  8.4518666   8.67841481  8.92869665
  9.1940817   9.47025476  9.75074302 10.02907369 10.30308915 10.5684742
 10.82738644 11.07551068 11.31716211 11.55234073 11.77888894 11.99896435
 12.21256695 12.41969675 12.61388093 12.7908043  12.94615165 13.07129257
 13.16191185 13.2093791  13.2115367  13.16406945 13.06913496 12.93104843
 12.75628267 12.55562568 12.33770787 12.11547486 11.90187226 11.70121527
 11.5264495  11.37757496 11.26106445 11.17476037 11.11434751 11.07766828
 11.05824986 11.04961945 11.04961945 11.05177705 11.05177705 11.04746185
 11.03667384 11.01509782 10.98489139 10.94605455 10.89858731 10.84464726
 10.7820768  10.71734874 10.65046308 10.58141981 10.51237654 10.44764848
 10.38723563 10.33113797 10.28367073 10.24051869 10.20815466 10.18442103
 10.17147542 10.16931782 10.18010583 10.19952425 10.22757308 10.26640991
 10.31171955 10.363502   10.42175726 10.48217012 10.54474058 10.60946864
 10.6741967  10.74108236 10.80796802 10.87485369 10.94389695 11.01078262
 11.07766828 11.14671154 11.21359721 11.28048287 11.34952614 11.4164118
 11.48329746 11.54802552 11.61275359 11.67532404 11.7357369  11.79183456
 11.8414594  11.88461144]","[-3.61118681 -3.3234832  -3.01349269 -2.68324137 -2.33880747 -1.97816492
 -1.60739196 -1.22243642 -0.8253244  -0.41605589  0.00942128  0.44908102
  0.90494941  1.37500038  1.85518175  2.34346746  2.82972708  3.30585629
  3.76172468  4.18517577  4.56405305  4.8922783   5.15769501  5.35625102
  5.48794633  5.5467027   5.54062446  5.4697116   5.34409453  5.17187758
  4.96926941  4.74842649  4.52353142  4.31281892  4.13047156  3.98459367
  3.88734175  3.83668971  3.83668971  3.87518526  3.9481242   4.04132396
  4.14668021  4.25203647  4.34928839  4.43235774  4.49719236  4.54379224
  4.57215738  4.58228779  4.57823563  4.56405305  4.54176616  4.51340101
  4.48300978  4.45464464  4.42830558  4.41007084  4.4039926   4.41412301
  4.44248815  4.49314019  4.57215738  4.67751363  4.80718287  4.95711291
  5.11919945  5.28128599  5.43121604  5.54872879  5.61761557  5.62369381
  5.55480703  5.40082482  5.15769501  4.8254176   4.41209692  3.92988947
  3.39095172  2.81351842  2.21379822  1.60394762  0.99409701  0.39437681
 -0.19521298 -0.77264628 -1.34197525 -1.90319989 -2.45632021 -3.00336228
 -3.54027395 -4.05895087 -4.54926266 -5.00310497 -5.40832132 -5.75275522
 -6.03438058 -6.24711917 -6.39097097 -6.46998816 -6.49227506 -6.46390991
 -6.39502313 -6.29574513 -6.17418022 -6.03438058 -5.88039837 -5.72033791
 -5.55419921 -5.38198226 -5.20976531 -5.03552228 -4.86330533 -4.69716663
 -4.54115833 -4.40541085 -4.29397636 -4.21901133 -4.18862011 -4.20888092
 -4.28587203 -4.42364559 -4.61814944 -4.86330533 -5.15303502 -5.47518202
 -5.81556375 -6.16202373 -6.50037938 -6.82657855 -7.12643864 -7.39995968
 -7.64308949 -7.85380199 -8.03209719 -8.17797507 -8.29143565 -8.37247892
 -8.42110488 -8.43933962]",11.694418822920218,3.2065782822271194,4.634774999999999,-0.40878000000000014
020,1,1,csm,17b.png,1,1,32,36,33,1,1,301,neu_feedback_onset,10,"[ 0.4102678   0.27434252  0.1452135   0.0274116  -0.08132862 -0.17647632
 -0.25350064 -0.31466702 -0.3554446  -0.37130255 -0.36450629 -0.33279039
 -0.27388943 -0.19233427 -0.08585947  0.04100413  0.19052193  0.36495937
  0.56205102  0.78632773  1.04458576  1.3368251   1.66757661  2.03684028
  2.44461611  2.879577    3.33266126  3.78574552  4.21617556  4.59903176
  4.91392532  5.13820203  5.26053478  5.2741273   5.18577587  5.00454217
  4.75534583  4.4653719   4.16860171  3.89448574  3.67473987  3.52748749
  3.46632111  3.49124075  3.59091929  3.74949878  3.93526332  4.11876245
  4.26601483  4.34983542  4.34983542  4.24789146  4.04173812  3.74043709
  3.35758089  2.92035458  2.45141238  1.98247017  1.5384476   1.13973345
  0.79765484  0.52127344  0.30832384  0.15200977  0.0387387  -0.04055104
 -0.09718657 -0.14476042 -0.18780342 -0.22858101 -0.27162401 -0.31466702
 -0.35091376 -0.37809881 -0.39395676 -0.38942592 -0.36677171 -0.31919786
 -0.2489698  -0.15155668 -0.02922393  0.12029387  0.30152757  0.51221175
  0.75914267  1.04458576  1.368541    1.73100841  2.13198798  2.56921428
  3.04042191  3.54108002  4.06665776  4.61262429  5.17444877  5.74760035
  6.33207905  6.91882316  7.51009812  8.10137307  8.68811719  9.26579961
  9.82309325 10.35093641 10.83120573 11.24804324 11.57879475 11.80307146
 11.90274999 11.85744157 11.66261534 11.31600588 10.82214404 10.20141861
  9.47648379  8.6790555   7.84084962  6.99358206  6.16670329  5.38513295
  4.66472898  4.01455307  3.43687064  2.92941627  2.4853937   2.09347581
  1.74913178  1.4432999   1.17144935  0.93131469  0.72742678  0.55752018
  0.43065659  0.35136684  0.32191637  0.346836    0.43065659  0.56884729
  0.76367352  1.00607359  1.29151668  1.61547192  1.96887764  2.34493758
  2.73685546  3.13783503  3.54108002  3.94205959  4.33397747  4.70550656
  5.05438144  5.369275    5.64339097  5.86766768  6.03757428  6.1463145
  6.19388835  6.18256124  6.12366029  6.02398175  5.90391442  5.77931625
  5.67057603  5.59581713  5.56636665  5.5935517   5.68190314  5.8268901
  6.02171633  6.25052388  6.50425106  6.76477451  7.02303254  7.26996346
  7.50103643  7.7207823   7.92920105  8.13308897  8.34603857  8.56804986
  8.80591909  9.05964628  9.32470057  9.58522402  9.82988952 10.0405737
 10.19915319 10.28523919 10.28977004 10.20368403 10.03151201  9.78231567
  9.46968753  9.11628181  8.7424873   8.37322363  8.02887959  7.72757856
  7.47838222  7.28582141  7.14989613  7.06607554  7.02076712  7.00264375
  7.00037833  7.00264375  7.00037833  6.9867858   6.95960074  6.92108858
  6.87351473  6.82820631  6.79422499  6.77836704  6.79195957  6.84406426
  6.94147737  7.08419891  7.27675972  7.51009812  7.78421409  8.08778054
  8.41400121  8.7538144   9.1049547   9.46289127  9.81856241 10.17649897
 10.53217012 10.88557584 11.23671614 11.58559101 11.92766963 12.26295198
 12.58237638 12.88367741 13.15779339 13.39792805 13.59275428 13.74000666
 13.82835809 13.85554315 13.81703098 13.71508703 13.55197669 13.33676167
 13.07623822 12.78173346 12.4668399  12.14061923 11.81439856 11.49044332
 11.17554976 10.86745247 10.56162059 10.2535233   9.93636432  9.61014365
  9.27259588  8.93051726]","[-2.64605223e+00 -2.04740237e+00 -1.47452220e+00 -9.37323143e-01
 -4.43734346e-01 -3.66722600e-03  3.74949080e-01  6.84185435e-01
  9.16112701e-01  1.06874859e+00  1.14209311e+00  1.13614626e+00
  1.05685489e+00  9.12148132e-01  7.11937415e-01  4.70098728e-01
  1.98525775e-01 -8.89054520e-02 -3.76336679e-01 -6.53856485e-01
 -9.05606594e-01 -1.12167559e+00 -1.28818747e+00 -1.40117768e+00
 -1.45073478e+00 -1.43487651e+00 -1.34963828e+00 -1.20096696e+00
 -9.96791673e-01 -7.49006132e-01 -4.75450895e-01 -1.97931090e-01
  5.97658724e-02  2.71870295e-01  4.14594767e-01  4.68116443e-01
  4.16577051e-01  2.56012021e-01 -1.55609320e-02 -3.90212669e-01
 -8.46138064e-01 -1.36549656e+00 -1.92251845e+00 -2.48945177e+00
 -3.04449138e+00 -3.56583216e+00 -4.03761583e+00 -4.45389554e+00
 -4.80872443e+00 -5.10408479e+00 -5.34394120e+00 -5.53820506e+00
 -5.69480552e+00 -5.81968944e+00 -5.92078594e+00 -6.00602416e+00
 -6.07738640e+00 -6.13685493e+00 -6.18442975e+00 -6.22011087e+00
 -6.24191600e+00 -6.24389828e+00 -6.22407544e+00 -6.18046518e+00
 -6.10712066e+00 -6.00205959e+00 -5.86924654e+00 -5.71066380e+00
 -5.53027592e+00 -5.33402978e+00 -5.13183677e+00 -4.92964377e+00
 -4.73141534e+00 -4.54309833e+00 -4.36667503e+00 -4.20016314e+00
 -4.04158040e+00 -3.88894450e+00 -3.74027318e+00 -3.59556642e+00
 -3.45482424e+00 -3.32399347e+00 -3.20703870e+00 -3.11188905e+00
 -3.05043823e+00 -3.03061539e+00 -3.06034966e+00 -3.14955245e+00
 -3.30020606e+00 -3.52222190e+00 -3.81361770e+00 -4.17835801e+00
 -4.61247828e+00 -5.11201393e+00 -5.66705354e+00 -6.27165026e+00
 -6.90598125e+00 -7.55617050e+00 -8.20041291e+00 -8.81888562e+00
 -9.39374807e+00 -9.91112428e+00 -1.03571383e+01 -1.07317900e+01
 -1.10390441e+01 -1.12888119e+01 -1.14989340e+01 -1.16872510e+01
 -1.18735858e+01 -1.20757788e+01 -1.23057237e+01 -1.25713498e+01
 -1.28706748e+01 -1.31977517e+01 -1.35387046e+01 -1.38796575e+01
 -1.42047521e+01 -1.44981302e+01 -1.47459158e+01 -1.49401796e+01
 -1.50749749e+01 -1.51503018e+01 -1.51701246e+01 -1.51364258e+01
 -1.50571344e+01 -1.49381973e+01 -1.47875437e+01 -1.46091381e+01
 -1.44128920e+01 -1.41988053e+01 -1.39728249e+01 -1.37369330e+01
 -1.34911298e+01 -1.32393797e+01 -1.29816827e+01 -1.27180389e+01
 -1.24464659e+01 -1.21709284e+01 -1.18874618e+01 -1.15980482e+01]",11.489397741235573,-0.3966220553579217,4.41419,-0.39541000000000004
020,1,1,csm,42b.png,1,1,332,320,NaN,0,1,454,neu_feedback_onset,11,"[-2.95917232e-01 -1.60195795e-01 -4.89487151e-02  2.66992991e-02
  5.78484815e-02  4.67237735e-02  2.22494160e-03 -6.67482479e-02
 -1.42396262e-01 -2.11369452e-01 -2.60318167e-01 -2.80342641e-01
 -2.60318167e-01 -2.02469685e-01 -1.04572255e-01  2.66992991e-02
  1.86895094e-01  3.67115363e-01  5.60685282e-01  7.58705084e-01
  9.56724886e-01  1.14361998e+00  1.31271554e+00  1.45956169e+00
  1.57748359e+00  1.66425631e+00  1.71542997e+00  1.73322950e+00
  1.72432974e+00  1.69318055e+00  1.65090666e+00  1.60863277e+00
  1.58193347e+00  1.57970853e+00  1.61308266e+00  1.68873067e+00
  1.80665258e+00  1.96239849e+00  2.15151852e+00  2.36066303e+00
  2.57425743e+00  2.77450217e+00  2.94804761e+00  3.08376905e+00
  3.16831683e+00  3.19946601e+00  3.17054177e+00  3.08599399e+00
  2.94804761e+00  2.75892758e+00  2.52975859e+00  2.26499054e+00
  1.98019802e+00  1.67983090e+00  1.38391367e+00  1.10134609e+00
  8.49927689e-01  6.45233063e-01  4.96161976e-01  4.09389254e-01
  3.91589721e-01  4.33863611e-01  5.29536100e-01  6.65257537e-01
  8.23228390e-01  9.85649127e-01  1.13917010e+00  1.27044165e+00
  1.37056402e+00  1.43508733e+00  1.46401157e+00  1.46178663e+00
  1.43286239e+00  1.38391367e+00  1.32161531e+00  1.25709200e+00
  1.19479364e+00  1.14139504e+00  1.10357103e+00  1.08799644e+00
  1.09912115e+00  1.14361998e+00  1.21926799e+00  1.33274002e+00
  1.48403604e+00  1.67093114e+00  1.89120036e+00  2.14261876e+00
  2.42073646e+00  2.72332851e+00  3.04594504e+00  3.38191122e+00
  3.72900211e+00  4.08499277e+00  4.44765825e+00  4.81032373e+00
  5.17298921e+00  5.53120481e+00  5.88274558e+00  6.21871176e+00
  6.53687841e+00  6.83057070e+00  7.09311381e+00  7.31783291e+00
  7.50695294e+00  7.65379909e+00  7.76504617e+00  7.84514406e+00
  7.90076760e+00  7.94526644e+00  7.98976527e+00  8.03871398e+00
  8.10101235e+00  8.18111025e+00  8.27233285e+00  8.37245522e+00
  8.46812771e+00  8.54822561e+00  8.60162421e+00  8.61274892e+00
  8.57269997e+00  8.47035265e+00  8.29903215e+00  8.05873846e+00
  7.74502169e+00  7.36233174e+00  6.91734342e+00  6.41450662e+00
  5.86272110e+00  5.27311158e+00  4.65680276e+00  4.02714429e+00
  3.39748582e+00  2.78340194e+00  2.19824230e+00  1.65758149e+00
  1.17699410e+00  7.69829792e-01  4.47213261e-01  2.15819335e-01
  8.00978974e-02  4.22738903e-02  9.56724886e-02  2.33618868e-01
  4.44988319e-01  7.11981310e-01  1.02124819e+00  1.35276449e+00
  1.69318055e+00  2.02469685e+00  2.34063856e+00  2.62765602e+00
  2.89019913e+00  3.12381800e+00  3.34186228e+00  3.55323173e+00
  3.77350095e+00  4.01379464e+00  4.28968740e+00  4.60785404e+00
  4.97719435e+00  5.39325843e+00  5.84937145e+00  6.32773390e+00
  6.81277116e+00  7.28223384e+00  7.71164757e+00  8.08321282e+00
  8.38135499e+00  8.59939927e+00  8.73067082e+00  8.78184448e+00
  8.76182000e+00  8.68839693e+00  8.57269997e+00  8.43252865e+00
  8.28123262e+00  8.12771165e+00  7.97641562e+00  7.82734453e+00
  7.68272333e+00  7.53587718e+00  7.38680610e+00  7.23106018e+00
  7.06863945e+00  6.90399377e+00  6.74157303e+00  6.58360218e+00
  6.43675604e+00  6.30548448e+00  6.19201246e+00  6.09856491e+00
  6.02069196e+00  5.95394371e+00  5.89832017e+00  5.84714651e+00
  5.79597286e+00  5.74702414e+00  5.69585048e+00  5.65135165e+00
  5.61130270e+00  5.58682835e+00  5.58237846e+00  5.60017800e+00
  5.64912671e+00  5.72922461e+00  5.84714651e+00  6.00511737e+00
  6.20981199e+00  6.46345533e+00  6.77494716e+00  7.14873735e+00
  7.59372566e+00  8.11213706e+00  8.70619646e+00  9.37367894e+00
  1.01101346e+01  1.09088886e+01  1.17588163e+01  1.26443431e+01
  1.35587941e+01  1.44865947e+01  1.54143954e+01  1.63288464e+01
  1.72165981e+01  1.80665258e+01  1.88608299e+01  1.95906107e+01
  2.02425186e+01  2.08076538e+01  2.12815664e+01  2.16575815e+01
  2.19401491e+01  2.21359439e+01  2.22516409e+01  2.23028146e+01
  2.23005896e+01  2.22583157e+01  2.21893425e+01  2.21047947e+01
  2.20113472e+01  2.19178997e+01  2.18244521e+01  2.17354544e+01
  2.16531316e+01  2.15730337e+01  2.14951608e+01  2.14217377e+01
  2.13483146e+01  2.12771165e+01  2.12081433e+01  2.11391701e+01
  2.10679720e+01  2.09989988e+01  2.09300256e+01  2.08610524e+01
  2.07920792e+01  2.07231060e+01  2.06519079e+01  2.05807098e+01]","[nan nan nan nan nan nan nan nan nan nan nan nan nan nan nan nan nan nan
 nan nan nan nan nan nan nan nan nan nan nan nan nan nan nan nan nan nan
 nan nan nan nan nan nan nan nan nan nan nan nan nan nan nan nan nan nan
 nan nan nan nan nan nan nan nan nan nan nan nan nan nan nan nan nan nan
 nan nan nan nan nan nan nan nan nan nan nan nan nan nan nan nan nan nan
 nan nan nan nan nan nan nan nan nan nan nan nan nan nan nan nan nan nan
 nan nan nan nan nan nan nan nan nan nan nan nan nan nan nan nan nan nan
 nan nan nan nan nan nan nan nan nan nan nan nan nan nan]",19.284848147736135,,4.4944999999999995,
020,1,1,csm,16b.png,1,1,324,3,324,1,1,516,neu_feedback_onset,12,"[ 0.0210797  -0.12226227 -0.2550644  -0.37732667 -0.47850924 -0.55861211
 -0.6092034  -0.62817513 -0.6092034  -0.5522882  -0.45742954 -0.32462742
 -0.16231371  0.02740361  0.23820064  0.46586142  0.70617003  0.95912646
  1.22262274  1.4945509   1.77912688  2.07002677  2.3651426   2.65393453
  2.93007863  3.17671114  3.38118426  3.53085014  3.61095301  3.61095301
  3.52031029  3.33691688  3.06077278  2.69609393  2.25342018  1.7496153
  1.19943506  0.62606716  0.04848332 -0.51434474 -1.0413373  -1.51984654
 -1.93511668 -2.28293177 -2.55907587 -2.75933304 -2.89002719 -2.95537427
 -2.96169818 -2.91953878 -2.83943591 -2.7340374  -2.61809903 -2.50216067
 -2.39676216 -2.31455132 -2.25974409 -2.23866439 -2.24920424 -2.29136365
 -2.35460275 -2.43470562 -2.5211324  -2.60123527 -2.66869032 -2.71717363
 -2.73825334 -2.72982145 -2.69187799 -2.62653091 -2.52956428 -2.40730201
 -2.25763612 -2.08056662 -1.8697696  -1.62313708 -1.33223719 -0.99285398
 -0.59444761 -0.13701807  0.38365058  0.96123443  1.58519362  2.24077236
  2.90267501  3.54771391  4.14637745  4.67758595  5.11815173  5.453319
  5.67887181  5.79481018  5.807458    5.73157107  5.57979721  5.36689222
  5.10971985  4.82092793  4.5110563   4.19486077  3.87866523  3.57300955
  3.2863256   3.02915323  2.81414026  2.64971859  2.54642804  2.51270052
  2.55485993  2.67079829  2.86051561  3.11347204  3.41491178  3.75218702
  4.10843399  4.4688969   4.81671199  5.14555534  5.44699509  5.71470731
  5.95079997  6.14894918  6.31126288  6.43563313  6.51995194  6.56000337
  6.55157149  6.49044035  6.37660996  6.20586437  5.98031156  5.69995152
  5.37110816  5.0001054   4.59537511  4.16745716  3.73110732  3.29475748
  2.87948734  2.50426864  2.1880731   1.95408841  1.82339425  1.80653049
  1.91403697  2.14380573  2.48108097  2.90478298  3.37907629  3.86812538
  4.32977086  4.7239613   5.01907713  5.19193069  5.22776618  5.13079955
  4.91578659  4.60380699  4.22437235  3.8175341   3.41280381  3.04180105
  2.73614537  2.51059255  2.38200637  2.35671072  2.43470562  2.60966715
  2.8752714   3.21676258  3.61516895  4.04941082  4.49630051  4.93265035
  5.32894876  5.66622399  5.92128839  6.08571007  6.14894918  6.11311368
  5.99295938  5.80113409  5.56293345  5.30576108  5.05702059  4.8441156
  4.69023377  4.61223888  4.62699467  4.73660912  4.9431902   5.24041401
  5.61984865  6.06463037  6.5578954   7.08488796  7.62242037  8.15573684
  8.66586564  9.14226691  9.57018487  9.94540357 10.26159911 10.51877147
 10.72113662 10.86869453 10.97409305 11.04154809 11.08159953 11.10267923
 11.11532705 11.1258669  11.14062269 11.16381037 11.19753789 11.24391324
 11.30504437 11.37882333 11.46946605 11.57697253 11.70345075 11.84890069
 12.01753831 12.20725563 12.41805266 12.64992938 12.89866987 13.16427412
 13.44252619 13.73131811 14.02643395 14.32787369 14.63352937 14.94129303
 15.24905668 15.55892831 15.8709079  16.18077953 16.49065115 16.80263075
 17.1103944  17.41815806 17.72381374 18.02314551 18.31404541 18.59018951
 18.84736188 19.07080672 19.24998419 19.37013849 19.40808196 19.34695082
 19.16566538 18.84314593 18.36885263 17.73435359 16.93964881 15.99527815
 14.92442927 13.75661376]","[nan nan nan nan nan nan nan nan nan nan nan nan nan nan nan nan nan nan
 nan nan nan nan nan nan nan nan nan nan nan nan nan nan nan nan nan nan
 nan nan nan nan nan nan nan nan nan nan nan nan nan nan nan nan nan nan
 nan nan nan nan nan nan nan nan nan nan nan nan nan nan nan nan nan nan
 nan nan nan nan nan nan nan nan nan nan nan nan nan nan nan nan nan nan
 nan nan nan nan nan nan nan nan nan nan nan nan nan nan nan nan nan nan
 nan nan nan nan nan nan nan nan nan nan nan nan nan nan nan nan nan nan
 nan nan nan nan nan nan nan nan nan nan nan nan nan nan]",17.076104752067547,,4.743900000000001,-0.29936500000000077
020,1,1,csp,25a.png,1,1,92,120,92,1,1,329,pos_feedback_onset,13,"[-0.45578657 -0.20999311  0.02511368  0.24098446  0.43120722  0.58936997
  0.70692336  0.77959273  0.80096608  0.77104339  0.68341268  0.54448594
  0.35212585  0.11701906 -0.15228508 -0.44723723 -0.75287605 -1.05851487
 -1.34919235 -1.61635916 -1.85146594 -2.05023805 -2.20626346 -2.31740485
 -2.38793688 -2.41144756 -2.38793688 -2.31313018 -2.18489011 -1.99894202
 -1.75314856 -1.44964707 -1.09698689 -0.71012936 -0.31258516  0.06786037
  0.3991472   0.64921533  0.7902794   0.80524074  0.68127535  0.42265788
  0.04434969 -0.42586388 -0.95592282 -1.5073551  -2.03955137 -2.51617695
 -2.91372115 -3.21294797 -3.40530807 -3.49721345 -3.50148812 -3.43309342
 -3.31554002 -3.17233862 -3.02058787 -2.8795238  -2.75769574 -2.65937836
 -2.58457165 -2.52472629 -2.47129293 -2.4135849  -2.34091553 -2.24046081
 -2.10794608 -1.93909666 -1.73177522 -1.49025643 -1.21454029 -0.9110388
 -0.58616397 -0.24205312  0.11701906  0.48677791  0.86722344  1.25621831
  1.65376251  2.05771872  2.46594959  2.87418047  3.28027401  3.67568087
  4.05185173  4.40237458  4.71870007  4.98800421  5.20601232  5.36417507
  5.45394311  5.47317912  5.4154711   5.28081903  5.06494825  4.7699961
  4.39596258  3.94712235  3.42561275  2.83998312  2.19664545  1.5041491
  0.77531806  0.01870168 -0.75287605 -1.52872845 -2.29816884 -3.04837322
 -3.77292959 -4.46115128 -5.10662627 -5.70080524 -6.24155085 -6.72031376
 -7.13495664 -7.48120482 -7.76333296 -7.97920374 -8.13095448 -8.22713453
 -8.27201855 -8.27201855 -8.23354653 -8.16515183 -8.07324645 -7.9642424
 -7.840277   -7.70562493 -7.56669819 -7.42349679 -7.28243271 -7.14350598
 -7.01099124 -6.88702585 -6.77588446 -6.6732924  -6.58566169 -6.50871765
 -6.44032295 -6.38047759 -6.32490689 -6.26719886 -6.20307883 -6.13040946
 -6.04277875 -5.93591203 -5.8098093  -5.66019589 -5.48920913 -5.29257437
 -5.07670359 -4.83945947 -4.58939134 -4.32649921 -4.05505773 -3.78361626
 -3.51431213 -3.25569466 -3.00776387 -2.77906908 -2.56747298 -2.37938755
 -2.2148128  -2.07161139 -1.94978333 -1.84932861 -1.7616979  -1.68902853
 -1.62063383 -1.55223912 -1.47743242 -1.38766437 -1.27011098 -1.11836024
 -0.92172547 -0.66952001 -0.35746918  0.02083901  0.46326724  0.96126616
  1.50628643  2.07909206  2.66044702  3.22470331  3.74621291  4.20146514
  4.56694933  4.82984146  4.98372954  5.0243389   4.96449353  4.81915479
  4.60969602  4.35535322  4.08391175  3.81033294  3.55171548  3.31660869
  3.11356192  2.9383005   2.79296176  2.67540836  2.57922832  2.50014694
  2.44030158  2.39541755  2.36976954  2.3612202   2.37190688  2.40824156
  2.47022426  2.56212964  2.67968303  2.82502177  2.99387119  3.17981929
  3.37217939  3.56240215  3.73980091  3.89155165  4.00910504  4.08818642
  4.12238377  4.1116971   4.06253841  3.9813197   3.87445298  3.75476225
  3.62652218  3.50041945  3.38072872  3.26745     3.16485795  3.07295257
  2.98745919  2.90837782  2.83570845  2.77158841  2.71388038  2.66685903
  2.63693634  2.62411234  2.63907368  2.68182037  2.75876441  2.8699058
  3.01524454  3.19478063  3.40210207  3.63079685  3.87017831  4.1116971
  4.34466655  4.55839999  4.74648542  4.9003735   5.00937755  5.06922292
  5.07136025  5.01151489]","[-5.92947629 -5.37970384 -4.81082733 -4.22072409 -3.6093941  -2.97259204
 -2.30607254 -1.61408097 -0.89661731 -0.16429493  0.57439546  1.30459516
  2.00720011  2.66522891  3.25745483  3.77114183  4.19355386  4.51620024
  4.74120364  4.8728094   4.92587624  4.9131402   4.85582801  4.77092107
  4.67540076  4.58624847  4.51407757  4.46313341  4.439784    4.44190667
  4.46950143  4.51620024  4.57988045  4.65417403  4.73908097  4.83035593
  4.92587624  5.0256419   5.12540755  5.22517321  5.32493887  5.42258185
  5.52022483  5.61574514  5.70914278  5.80254042  5.89593805  5.99358104
  6.09759204  6.21646176  6.35019019  6.50302269  6.67495924  6.86387719
  7.06128583  7.25869447  7.43912172  7.58983154  7.69384255  7.73629602
  7.70445592  7.59195422  7.39454558  7.11223     6.74713015  6.30773672
  5.80466309  5.24639995  4.64568333  4.01312661  3.36358851  2.70768238
  2.05814427  1.42558756  0.82699361  0.26873047 -0.23646583 -0.68010461
 -1.05157248 -1.35086945 -1.57375017 -1.72233732 -1.79663089 -1.80299891
 -1.73931871 -1.61195829 -1.41454965 -1.14921546 -0.80958769 -0.39566635
  0.09254857  0.65081171  1.26426437  1.91804782  2.58032197  3.22136938
  3.79661391  4.27209279  4.60535253  4.7687984   4.73695829  4.50558688
  4.07468415  3.46759951  2.71617307  1.86073563  0.94586333  0.02462301
 -0.86053186 -1.6756385  -2.39310216 -2.99806412 -3.48627904 -3.8662376
 -4.15067586 -4.35657519 -4.50091699 -4.60280533 -4.67497623 -4.72379772
 -4.75776049 -4.77686456 -4.78323258 -4.77474188 -4.7492698  -4.70469366
 -4.64101345 -4.55398383 -4.44148214 -4.29714033 -4.11459041 -3.89170969
 -3.6178848  -3.29099307 -2.90891183 -2.47164108 -1.98342616 -1.45275778
 -0.89449463 -0.32137278]",1.882991626992397,5.1311387719059995,4.678725,0.07005000000000106
020,1,1,csp,29a.png,1,1,128,226,128,1,1,307,pos_feedback_onset,14,"[-3.42868476e-01 -2.15680547e-01 -1.05738439e-01 -1.73536072e-02
  4.94739486e-02  9.25885007e-02  1.16301504e-01  1.18457232e-01
  1.07678594e-01  8.18098627e-02  4.94739486e-02  1.28265793e-02
 -2.16650624e-02 -5.40009765e-02 -7.34025250e-02 -7.77139802e-02
 -5.61567042e-02 -1.07786380e-04  9.47442283e-02  2.41333706e-01
  4.43972101e-01  7.02659413e-01  1.01523992e+00  1.37093497e+00
  1.75249876e+00  2.13621827e+00  2.49406905e+00  2.80018237e+00
  3.02437805e+00  3.14725452e+00  3.15372170e+00  3.04162387e+00
  2.81096101e+00  2.47897896e+00  2.06292353e+00  1.59081919e+00
  1.08853465e+00  5.79782940e-01  9.04327731e-02 -3.60114297e-01
 -7.61079631e-01 -1.09737314e+00 -1.37115054e+00 -1.57594467e+00
 -1.72037842e+00 -1.80445179e+00 -1.83463198e+00 -1.81738616e+00
 -1.75918151e+00 -1.66864095e+00 -1.55223166e+00 -1.41857655e+00
 -1.27845426e+00 -1.13833196e+00 -1.00898831e+00 -8.96890471e-01
 -8.08505639e-01 -7.41678083e-01 -6.96407803e-01 -6.70539072e-01
 -6.53293251e-01 -6.38203158e-01 -6.12334427e-01 -5.71375602e-01
 -5.04548046e-01 -4.14007487e-01 -2.93286741e-01 -1.46697264e-01
  2.79166725e-02  2.21932157e-01  4.39660645e-01  6.72479227e-01
  9.24699357e-01  1.19416531e+00  1.48303281e+00  1.78914613e+00
  2.11681672e+00  2.46388887e+00  2.83036256e+00  3.20761489e+00
  3.59349013e+00  3.97720965e+00  4.35230625e+00  4.70584558e+00
  5.03136045e+00  5.32022795e+00  5.56813662e+00  5.77077502e+00
  5.92598740e+00  6.04024097e+00  6.11353571e+00  6.15018308e+00
  6.15233880e+00  6.12215862e+00  6.06179824e+00  5.96694623e+00
  5.83544684e+00  5.66730009e+00  5.46035024e+00  5.21675302e+00
  4.94297562e+00  4.64979666e+00  4.34799480e+00  4.05697157e+00
  3.79181707e+00  3.56330995e+00  3.38007310e+00  3.24426226e+00
  3.15372170e+00  3.09120560e+00  3.03946814e+00  2.97695204e+00
  2.87994430e+00  2.73119909e+00  2.51562633e+00  2.22675883e+00
  1.86244087e+00  1.43345107e+00  9.52723816e-01  4.39660645e-01
 -8.84926182e-02 -6.10178699e-01 -1.10815178e+00 -1.56947748e+00
 -1.98553291e+00 -2.34553942e+00 -2.64734129e+00 -2.89093851e+00
 -3.07417535e+00 -3.19705183e+00 -3.26172366e+00 -3.27034657e+00
 -3.22507629e+00 -3.13022427e+00 -2.99010198e+00 -2.81117659e+00
 -2.60638246e+00 -2.38434252e+00 -2.15367967e+00 -1.92732827e+00
 -1.71606696e+00 -1.52205148e+00 -1.35390472e+00 -1.21162670e+00
 -1.09306168e+00 -9.93898213e-01 -9.05513381e-01 -8.19284277e-01
 -7.28743717e-01 -6.23113065e-01 -4.98080863e-01 -3.47179931e-01
 -1.70410267e-01  2.79166725e-02  2.47800888e-01  4.78463742e-01
  7.15593779e-01  9.50568088e-01  1.17907521e+00  1.39464798e+00
  1.59297491e+00  1.77405603e+00  1.93789133e+00  2.08448081e+00
  2.21382447e+00  2.33238948e+00  2.43586441e+00  2.53287215e+00
  2.62125698e+00  2.70533036e+00  2.78940374e+00  2.87347711e+00
  2.96617340e+00  3.06964833e+00  3.18605762e+00  3.32186846e+00
  3.47708084e+00  3.65169478e+00  3.84571026e+00  4.05697157e+00
  4.28116724e+00  4.51614155e+00  4.75327159e+00  4.98824590e+00
  5.21675302e+00  5.42801433e+00  5.61987408e+00  5.78586511e+00
  5.91952022e+00  6.01437224e+00  6.07042115e+00  6.08335552e+00
  6.05317533e+00  5.98419205e+00  5.87424994e+00  5.73412765e+00
  5.56166944e+00  5.36765395e+00  5.15639265e+00  4.93219698e+00
  4.69937840e+00  4.46655981e+00  4.23589696e+00  4.01170129e+00
  3.80043998e+00  3.60858023e+00  3.44043347e+00  3.30246691e+00
  3.19468053e+00  3.12138579e+00  3.08473842e+00  3.08042696e+00
  3.10845142e+00  3.16234461e+00  3.23995081e+00  3.33480282e+00
  3.44043347e+00  3.55468704e+00  3.67109633e+00  3.78750562e+00
  3.89960345e+00  4.00738983e+00  4.11086476e+00  4.21002823e+00
  4.30919170e+00  4.41482235e+00  4.52907592e+00  4.66057530e+00
  4.81147623e+00  4.98609017e+00  5.18010565e+00  5.39136696e+00
  5.60909545e+00  5.82251248e+00  6.01437224e+00  6.17174035e+00
  6.28168246e+00  6.33126419e+00  6.31617410e+00  6.23210072e+00
  6.08335552e+00  5.87424994e+00  5.61340690e+00  5.31376076e+00
  4.97962298e+00  4.62392793e+00  4.25098705e+00  3.86080036e+00
  3.45767929e+00  3.03515668e+00  2.59538825e+00  2.13621827e+00
  1.65764674e+00  1.16182939e+00  6.59544861e-01  1.59416057e-01
 -3.25622655e-01 -7.78325452e-01 -1.18575797e+00 -1.53498584e+00]","[-4.73385149e+00 -4.35471562e+00 -3.93474975e+00 -3.47395385e+00
 -2.96649508e+00 -2.41626201e+00 -1.83103178e+00 -1.21469297e+00
 -5.80855583e-01  5.49260928e-02  6.80986337e-01  1.27982657e+00
  1.83394821e+00  2.32585269e+00  2.74387428e+00  3.07245870e+00
  3.29994021e+00  3.42437455e+00  3.43992884e+00  3.35049166e+00
  3.16189587e+00  2.88969577e+00  2.54555706e+00  2.15086691e+00
  1.72701246e+00  1.29149229e+00  8.65693551e-01  4.67114825e-01
  1.07421828e-01 -2.03664008e-01 -4.58365536e-01 -6.58627042e-01
 -8.06392814e-01 -9.05551424e-01 -9.61935732e-01 -9.85267169e-01
 -9.79434310e-01 -9.52214299e-01 -9.07495710e-01 -8.49167116e-01
 -7.77228517e-01 -6.91679912e-01 -5.90577016e-01 -4.73919827e-01
 -3.35875488e-01 -1.76443997e-01  2.43035809e-03  1.98803292e-01
  4.10730517e-01  6.24602029e-01  8.30696395e-01  1.01734790e+00
  1.16511367e+00  1.26427228e+00  1.29732515e+00  1.25649513e+00
  1.13206080e+00  9.20133572e-01  6.20713456e-01  2.33800448e-01
 -2.34772591e-01 -7.77228517e-01 -1.38579018e+00 -2.05073616e+00
 -2.75456786e+00 -3.48756386e+00 -4.23028129e+00 -4.96911015e+00
 -5.68655186e+00 -6.36705212e+00 -6.99700094e+00 -7.56667687e+00
 -8.06830278e+00 -8.49604581e+00 -8.85185023e+00 -9.13766034e+00
 -9.35930900e+00 -9.52262906e+00 -9.63539768e+00 -9.70539199e+00
 -9.74233344e+00 -9.75011058e+00 -9.73455629e+00 -9.70150342e+00
 -9.65095197e+00 -9.58290194e+00 -9.49735334e+00 -9.39041758e+00
 -9.25820610e+00 -9.09683033e+00 -8.90240168e+00 -8.67297588e+00
 -8.40855292e+00 -8.11302137e+00 -7.79610268e+00 -7.47140684e+00
 -7.15448814e+00 -6.86478946e+00 -6.62175365e+00 -6.44482358e+00
 -6.34566497e+00 -6.33399925e+00 -6.41177071e+00 -6.57120220e+00
 -6.80062800e+00 -7.07671668e+00 -7.37808109e+00 -7.67944549e+00
 -7.95164560e+00 -8.17329425e+00 -8.32883717e+00 -8.40660863e+00
 -8.40272006e+00 -8.31911574e+00 -8.16551711e+00 -7.94775702e+00
 -7.68333406e+00 -7.38391395e+00 -7.06116239e+00 -6.72480083e+00
 -6.38260641e+00 -6.04041199e+00 -5.70405043e+00 -5.37546602e+00
 -5.06049161e+00 -4.76496007e+00 -4.49275996e+00 -4.25361273e+00
 -4.05529551e+00 -3.90947402e+00 -3.82392542e+00 -3.81031541e+00
 -3.87447687e+00 -4.02029835e+00 -4.24777987e+00 -4.55108856e+00
 -4.92244727e+00 -5.34630172e+00 -5.80904190e+00 -6.28928066e+00]",4.2360047469121795,0.2182973218221329,4.6388050000000005,0.6257349999999988
020,2,1,csm,50b.png,1,0,44,NaN,NaN,0,1,470,neu_feedback_onset,1,"[-0.27686922 -0.17443665 -0.10012282 -0.05191926 -0.02781747 -0.02380051
 -0.03384292 -0.05392774 -0.080038   -0.10413978 -0.1242246  -0.13426701
 -0.13025005 -0.10614826 -0.0579447   0.01837761  0.12482715  0.26542087
  0.43614183  0.63498153  0.84988908  1.07483905  1.29175508  1.4885863
  1.65127333  1.77178224  1.8420791   1.85412999  1.81596884  1.72759564
  1.59704432  1.43636577  1.25761089  1.0688136   0.88604175  0.71331232
  0.56267618  0.43413335  0.32969229  0.24935302  0.1850816   0.12884411
  0.07662358  0.01436065 -0.06397015 -0.16238576 -0.28892011 -0.43754776
 -0.6102772  -0.79706601 -0.98988026 -1.17867756 -1.35140699 -1.4940092
 -1.59443329 -1.64263686 -1.626569   -1.54422125 -1.38555118 -1.15256729
 -0.84526957 -0.46767499 -0.02580899  0.4722945   1.01659307  1.59302735
  2.18552949  2.78004011  3.36049135  3.91282386  4.42900368  4.90099691
  5.32478657  5.70238116  6.04181458  6.34710382  6.62628279  6.88939391
  7.14045414  7.38147196  7.61043888  7.8293634   8.03021158  8.21298343
  8.37366197  8.5142557   8.63677309  8.74523111  8.84364672  8.93603688
  9.02641857  9.11479177  9.20115648  9.28149576  9.35179262  9.40803011
  9.44619127  9.46225912  9.45422519  9.42811493  9.38593681  9.33371628
  9.28551272  9.2433346   9.2212413   9.21722434  9.23530067  9.27145335
  9.31764843  9.36183503  9.39397074  9.40401315  9.38392833  9.3317078
  9.24534308  9.12885114  8.98825741  8.83360431  8.67292577  8.52028115
  8.3816959   8.26922092  8.18486468  8.13264416  8.11055086  8.11255934
  8.13264416  8.15473746  8.16879683  8.1607629   8.12260175  8.04627944
  7.92376205  7.75906654  7.55420139  7.31519206  7.05208094  6.77089348
  6.4816721   6.1944592   5.91528023  5.64815215  5.40110888  5.17013347
  4.95924288  4.76241166  4.5816483   4.41092735  4.24824032  4.08756177
  3.93090019  3.77423861  3.61757703  3.46091545  3.30827083  3.15964317
  3.01904945  2.89050661  2.77602315  2.67760754  2.59927675  2.53902229
  2.50086114  2.4827848   2.48881025  2.51291203  2.56111559  2.62739549
  2.71376021  2.81820126  2.93670169  3.06725301  3.20583825  3.35044895
  3.49706812  3.64368729  3.79030646  3.93290867  4.07751936  4.22213006
  4.37477467  4.5374617   4.7142081   4.90702236  5.11992143  5.35089684
  5.60195706  5.86908515  6.15228108  6.44551943  6.74880018  7.05810638
  7.36741258  7.6747103   7.97397409  8.26118699  8.52630659  8.76531593
  8.96817259  9.1328681   9.25538549  9.33572477  9.37790288  9.38995377
  9.38392833  9.3758944   9.37991137  9.41405556  9.4863609   9.60887829
  9.77959925  9.9945068  10.2375331  10.48859333 10.72157722 10.90434907
 11.00678164 11.00075619 10.86417943 10.58500046 10.15719383  9.59481892
  8.91394358  8.14469505  7.3212175   6.4816721   5.66221152  4.89296298
  4.20003676  3.60150917  3.1013972   2.70170932  2.39642008  2.17548708
  2.02886791  1.94451167  1.91438445  1.93246078  1.99271524  2.09113085
  2.22569913  2.39039464  2.58120041  2.79008252  3.01101552  3.23194852
  3.44484759  3.64569577  3.82846762  3.98914616  4.13174837  4.25828273
  4.36874923  4.47319028  4.57361437  4.67805543  4.79053041  4.91505628
  5.05765849  5.21632856]","[ -1.3228097   -1.28459754  -1.22345807  -1.14321252  -1.04959271
  -0.94068803  -0.82414092  -0.69613016  -0.55665575  -0.40762829
  -0.24331598  -0.05989757   0.14835874   0.38527418   0.65466996
   0.96418851   1.31000863   1.69021969   2.09335806   2.50604946
   2.903456     3.26265038   3.55497346   3.75367673   3.83392228
   3.78424646   3.59891745   3.27984585   2.84231654   2.3092568
   1.70932577   1.07309319   0.43303939  -0.18599772  -0.75918023
  -1.27313388  -1.71830563  -2.09469548  -2.40612465  -2.66214617
  -2.86849187  -3.03662541  -3.17609982  -3.29264693  -3.39390917
  -3.47988655  -3.55057906  -3.60789731  -3.64610948  -3.65948373
  -3.64802008  -3.6059867   -3.53338358  -3.42830012  -3.29837875
  -3.15126191  -2.99459202  -2.84556457  -2.71946442  -2.62966583
  -2.59336427  -2.62202339  -2.72137503  -2.897151    -3.14744069
  -3.46460168  -3.83717031  -4.2460405   -4.67210617  -5.09435062
  -5.48984655  -5.84139849  -6.13372157  -6.35917336  -6.51011142
  -6.59035697  -6.60564184  -6.56360845  -6.47572047  -6.35153092
  -6.20059286  -6.03245933  -5.85286214  -5.66944374  -5.48602533
  -5.30642815  -5.136384    -4.9758929   -4.83450788  -4.71413955
  -4.62051974  -4.56129088  -4.54027419  -4.56129088  -4.62625157
  -4.73515624  -4.88800491  -5.08288697  -5.31024936  -5.5700921
  -5.85286214  -6.15473826  -6.46998864  -6.79479206  -7.1234167
  -7.45013073  -7.76920233  -8.07489967  -8.35766971  -8.6079594
  -8.82003693  -8.98243864  -9.09325393  -9.15057218  -9.1543934
  -9.11236001  -9.03975689  -8.95186891  -8.86971275  -8.8123945
  -8.80284146  -8.85633849  -8.98434925  -9.19069496  -9.46773317
  -9.80782146 -10.18803252 -10.58543906 -10.97329256 -11.32675511
 -11.62289941 -11.84835119 -11.99355743 -12.0566075  -12.04705446
 -11.97254074 -11.8502618  -11.69359192 -11.51781595 -11.33630815]",7.95755475372498,0.4459837579182647,4.978885,
020,2,1,csp,57a.png,1,0,132,NaN,130,1,1,396,pos_feedback_onset,2,"[ 1.58725491  1.76789928  1.89603076  1.96954882  1.98845346  1.95274469
  1.85612096  1.69858226  1.47172653  1.17135274  0.79536038  0.34584996
 -0.17507801 -0.75482042 -1.37657316 -2.01933105 -2.66208894 -3.28174116
 -3.85728254 -4.37400948 -4.82141938 -5.1911102  -5.48518244 -5.70153558
 -5.84437067 -5.92208976 -5.93679337 -5.89058202 -5.79185777 -5.64272113
 -5.44527263 -5.20581381 -4.93064621 -4.62607139 -4.30469245 -3.97701195
 -3.65563301 -3.35105819 -3.07589059 -2.83853229 -2.64528481 -2.50034921
 -2.39742393 -2.33440845 -2.30080019 -2.28189555 -2.26719194 -2.24198574
 -2.19157336 -2.10755272 -1.98362228 -1.81768151 -1.60762991 -1.35976903
 -1.0804004  -0.7779261  -0.4628487  -0.13726872  0.18831126  0.51179072
  0.83106915  1.14194552  1.44862085  1.74689412  2.03466482  2.31403344
  2.58079897  2.83496141  3.07442023  3.29917544  3.51132756  3.70877606
  3.89362147  4.07216533  4.24440764  4.41454943  4.58889226  4.76953664
  4.96068359  5.16023261  5.37238473  5.58873787  5.8029905   6.00884107
  6.18948545  6.33442105  6.42894427  6.46465304  6.4331453   6.33442105
  6.17478184  5.9605292   5.70636677  5.42699814  5.13922745  4.85145676
  4.57628917  4.3179257   4.08056739  3.8579127   3.64996161  3.44831208
  3.25086357  3.04921404  2.84126296  2.62070878  2.39175253  2.14809268
  1.89603076  1.63766729  1.37510279  1.11463881  0.86047638  0.62101755
  0.40256389  0.20511539  0.03707411 -0.09945943 -0.20658575 -0.28010381
 -0.32421464 -0.34311929 -0.33681774 -0.30951103 -0.26119916 -0.19398265
 -0.10155995  0.01396843  0.16310507  0.34795047  0.57270569  0.84157173
  1.15664913  1.51163633  1.90233231  2.32033499  2.74884025  3.17734551
  3.59114717  3.97764211  4.32632776  4.63090258  4.89346708  5.11612178
  5.30516821  5.47531001  5.63494923  5.79668896  5.9731323   6.17268132
  6.39953705  6.6558      6.93726914  7.24184396  7.56112239  7.88250134
  8.19757874  8.48955046  8.74791393  8.96216656  9.12180577  9.21632899
  9.2436357   9.20162538  9.09239855  8.92645778  8.71430567  8.47064581
  8.2185839   7.97702456  7.76697296  7.61153477  7.52751413  7.52961465
  7.6283389   7.82158637  8.10725655  8.47064581  8.89915108  9.36966666
  9.85488585 10.3338035  10.78331392 11.18241196 11.51429349 11.76845592
 11.9364972  12.01421629 12.00791474 11.91759256 11.75795334 11.53739916
 11.27483466 10.98076242 10.67618761 10.37791433 10.10274674  9.86328792
  9.67424148  9.54611     9.48309452  9.48939607  9.5587131   9.68684457
  9.85698637 10.05653539 10.26238596 10.45773394 10.62367471 10.74340412
 10.8064196  10.80431908 10.73920309 10.61527264 10.44303033 10.23507925
 10.006123    9.77296573  9.55031103  9.34446047  9.16801712  9.02308152
  8.91385469  8.83823611  8.79622579  8.7836227   8.80252734  8.84873869
  8.92015624  9.01467946  9.13020784  9.26674138  9.42007904  9.59022084
  9.77926728  9.98511784 10.20567202 10.44513085 10.69929328 10.96185778
 11.23072383 11.48908729 11.7264456  11.9238941  12.05832713 12.11294054
 12.06882971 11.90919049 11.62982187 11.2265228  10.71189638 10.10064622
  9.41377749  8.68279793  7.93921527  7.21243674  6.53607059  5.93532301
  5.42699814  5.02579959]","[-2.62815472e+00 -2.53455729e+00 -2.40636951e+00 -2.23341774e+00
 -2.01570199e+00 -1.74508334e+00 -1.42359652e+00 -1.05734572e+00
 -6.54469837e-01 -2.25142507e-01  2.14358456e-01  6.49789965e-01
  1.06283948e+00  1.44536810e+00  1.77906327e+00  2.05985555e+00
  2.27757131e+00  2.42610636e+00  2.50342597e+00  2.50546070e+00
  2.43017581e+00  2.27350186e+00  2.03747356e+00  1.72005620e+00
  1.32735395e+00  8.65470993e-01  3.42546237e-01 -2.29211961e-01
 -8.39629965e-01 -1.46836051e+00 -2.09912578e+00 -2.71768269e+00
 -3.30164925e+00 -3.83881709e+00 -4.31494313e+00 -4.71985374e+00
 -5.04337529e+00 -5.28754249e+00 -5.45235535e+00 -5.54391805e+00
 -5.56833477e+00 -5.53577914e+00 -5.45439008e+00 -5.33637593e+00
 -5.18580615e+00 -5.01081966e+00 -4.81752062e+00 -4.61404796e+00
 -4.40040166e+00 -4.18675535e+00 -3.98124796e+00 -3.79201838e+00
 -3.62720552e+00 -3.50105246e+00 -3.41966340e+00 -3.39728140e+00
 -3.43390648e+00 -3.53767754e+00 -3.70249040e+00 -3.92427561e+00
 -4.19082481e+00 -4.48992963e+00 -4.80327754e+00 -5.11866017e+00
 -5.41776500e+00 -5.68838364e+00 -5.92034249e+00 -6.10957207e+00
 -6.25200293e+00 -6.34763509e+00 -6.40460744e+00 -6.42495470e+00
 -6.41274634e+00 -6.37408653e+00 -6.31304473e+00 -6.22962094e+00
 -6.12788461e+00 -6.00580101e+00 -5.86133541e+00 -5.69855728e+00
 -5.51339715e+00 -5.30992448e+00 -5.09017400e+00 -4.85007625e+00
 -4.59573542e+00 -4.32715149e+00 -4.04432449e+00 -3.74318494e+00
 -3.42373285e+00 -3.08189877e+00 -2.71564796e+00 -2.31887626e+00
 -1.88954893e+00 -1.42766598e+00 -9.33227392e-01 -4.12337362e-01
  1.22795755e-01  6.55894145e-01  1.16661054e+00  1.62849350e+00
  2.01509157e+00  2.29588385e+00  2.44441890e+00  2.44238417e+00
  2.27146713e+00  1.93166777e+00  1.42705556e+00  7.71873566e-01
 -3.35729902e-03 -8.70150865e-01 -1.78781260e+00 -2.71564796e+00
 -3.61499716e+00 -4.44923510e+00 -5.18987561e+00 -5.81860615e+00
 -6.32118364e+00 -6.69964280e+00 -6.96212255e+00 -7.12693541e+00
 -7.21442865e+00 -7.25105373e+00 -7.25919264e+00 -7.26529682e+00
 -7.28564409e+00 -7.33244280e+00 -7.41383187e+00 -7.52981129e+00
 -7.67631161e+00 -7.84722865e+00 -8.02831933e+00 -8.20941000e+00
 -8.38032704e+00 -8.53496627e+00 -8.66315405e+00 -8.76692511e+00
 -8.84017527e+00 -8.88900871e+00 -8.91546016e+00 -8.92359907e+00]",9.663258779519202,-0.7260504778647145,4.7607349999999995,-0.32948500000000003
020,2,1,csp,66a.png,1,1,296,272,297,1,1,394,pos_feedback_onset,3,"[ 1.68660845  1.64890835  1.60649573  1.54523306  1.45098279  1.31431991
  1.13524441  0.9137563   0.65692433  0.36946103  0.06550393 -0.25023445
 -0.56597283 -0.87228618 -1.16681825 -1.44485653 -1.69933224 -1.93260164
 -2.13995222 -2.32138397 -2.4768969  -2.60413476 -2.70309753 -2.77378523
 -2.81619785 -2.83033539 -2.81619785 -2.77142898 -2.70074128 -2.59942225
 -2.46747188 -2.30724643 -2.11874591 -1.9019703  -1.65691962 -1.38595011
 -1.09141804 -0.77567966 -0.44344749 -0.09943403  0.2516482   0.60744294
  0.96088143  1.30725114  1.64419583  1.96700298  2.27331634  2.55606713
  2.8176116   3.04852475  3.2464503   3.41138826  3.53862611  3.63287638
  3.69885156  3.73890792  3.767183    3.79545808  3.83551444  3.90384588
  4.01223368  4.17245913  4.39159099  4.67434178  5.01835524  5.42363137
  5.8831014   6.39205282  6.93870434  7.52069971  8.13097017  8.76715944
  9.42455502 10.10315691 10.80060886 11.5145546  12.24263788 12.97307741
 13.70116069 14.41510643 15.09606458 15.73225385 16.30246794 16.79021305
 17.18135164 17.45938992 17.61961536 17.65260296 17.56070895 17.35571463
 17.05175753 16.67004397 16.23649276 15.78173524 15.32933398 14.90992031
 14.54470054 14.2430997  14.01454282 13.85196111 13.74828582 13.67759813
 13.62104797 13.55507278 13.4513975  13.29824082 13.08146521 12.80107068
 12.46412599 12.0894812  11.70069887 11.32369781 10.99146564 10.73227742
 10.56733946 10.51314556 10.57440823 10.74877121 11.0150282  11.35197289
 11.72426143 12.09654997 12.4311384  12.69503914 12.86233335 12.91181474
 12.83877079 12.64555775 12.34395691 11.95517458 11.50512957 11.02209697
 10.53670812 10.07252558  9.65546816  9.29967342  9.0239914   8.83077837
  8.72710308  8.71767805  8.80014703  8.97451002  9.24076701  9.59420549
 10.03246922 10.5484894  11.13519729 11.77609908 12.45941348 13.16157794
 13.86845491 14.55648183 15.20680864 15.80765406 16.34488056 16.81377562
 17.21198298 17.53950264 17.80340338 18.0083977  18.16155438 18.27465469
 18.35476741 18.41131757 18.45373019 18.49614281 18.54326794 18.60924312
 18.69878087 18.82130621 18.97681915 19.16767593 19.38445153 19.61300842
 19.84156531 20.05127214 20.21856636 20.33166667 20.37407929 20.3410917
 20.23741641 20.06776594 19.85099033 19.61065216 19.37267025 19.16060716
 19.00273797 18.92026899 18.93205027 19.04750684 19.27370748 19.60593965
 20.0371346  20.55315479 21.14457519 21.794902   22.48764143 23.2110122
 23.95558928 24.70959138 25.46594974 26.21523932 26.95274763 27.66669337
 28.35236403 28.99562208 29.58939873 30.1172002  30.56960146 30.93482123
 31.20107822 31.35659116 31.39429126 31.30710977 31.09033416 30.73925194
 30.25386308 29.63888012 28.89901556 28.04605068 27.08941051 26.05030137
 24.94757329 23.8024326  22.64315437 21.49094491 20.37407929 19.31376384
 18.3335611  17.4546774  16.68889402 16.04799223 15.53668456 15.15025848
 14.87693272 14.70021348 14.59653819 14.53998803 14.49993167 14.45045028
 14.37033756 14.24545596 14.06873672 13.84017983 13.57156658 13.27467825
 12.9683649  12.66912032 12.39579455 12.15781264 11.96695586 11.82086795
 11.72426143 11.67242379 11.6606425  11.67949256 11.72661769 11.79494913
 11.88919939 12.00465596]","[-3.71430757 -3.15988366 -2.60989514 -2.0665597  -1.53653044 -1.02202504
 -0.52969661 -0.06619822  0.35738166  0.73660761  1.05817348  1.31764388
  1.50614801  1.61925049  1.65251592  1.6125974   1.50393031  1.33538544
  1.12248666  0.88297553  0.63237592  0.39286479  0.1821837   0.01585652
 -0.09059287 -0.13051139 -0.09502826  0.01807422  0.20436065  0.46383105
  0.78539692  1.16462288  1.58820275  2.04948344  2.53737649  3.04966419
  3.57304036  4.10750501  4.64418736  5.17865202  5.70646358  6.22540437
  6.72438589  7.20119046  7.64472959  8.0505679   8.4053992   8.70700581
  8.94873464  9.12615029  9.24147047  9.29913055  9.30134825  9.26142973
  9.18381038  9.07514329  8.94651694  8.79793133  8.62938646  8.44531772
  8.23907203  8.01286707  7.76004977  7.4850555   7.18566659  6.86853611
  6.53588176  6.19657433  5.85504919  5.51795945  5.19195819  4.8792631
  4.58209189  4.29822684  4.02988567  3.77485067  3.53090414  3.30026379
  3.08071192  2.87224853  2.67487362  2.48636949  2.30673614  2.13375588
  1.96521101  1.80331923  1.64364514  1.48618875  1.33095005  1.18014674
  1.03377883  0.89184631  0.75878457  0.63459361  0.51705574  0.40617096
  0.30193926  0.19770757  0.09125818 -0.01962661 -0.14381756 -0.279097
 -0.43433569 -0.60953365 -0.80025548 -1.00871887 -1.22827074 -1.45669339
 -1.68289835 -1.90245022 -2.11091361 -2.29720005 -2.46352722 -2.59880666
 -2.70525605 -2.7806577  -2.81835853 -2.82501162 -2.79618157 -2.73630379
 -2.64759596 -2.53005809 -2.38590787 -2.22401609 -2.04216505 -1.84479013
 -1.63854444 -1.42564565 -1.20831148 -0.9954127  -0.789167   -0.59622748
 -0.42324722 -0.27466161 -0.15712374 -0.0728513  -0.02627969 -0.01519122
 -0.04180356 -0.10168135]",25.522912238867868,6.834439039427292,4.24402,
020,2,1,csp,39a.png,1,0,156,NaN,158,1,1,406,pos_feedback_onset,4,"[ 0.27153268  0.17908594  0.07004619 -0.04373442 -0.1551446  -0.25470264
 -0.33529723 -0.38981711 -0.41115097 -0.40403969 -0.36374239 -0.29499993
 -0.20018276 -0.08403172  0.04634189  0.18619723  0.33316385  0.48013047
  0.6199858   0.75035942  0.86414003  0.9589572   1.02769965  1.07273781
  1.09407167  1.09170125  1.07273781  1.04429266  1.01347708  0.98977278
  0.97555021  0.98029107  1.00399536  1.05377438  1.12962812  1.22444529
  1.34059633  1.4757108   1.62504785  1.78386662  1.95453754  2.13231974
  2.31958366  2.5163293   2.72255665  2.93826572  3.16819737  3.40998117
  3.6707284   3.94806863  4.24200188  4.55963941  4.89624038  5.25180479
  5.62870306  6.02456476  6.43464904  6.85421504  7.2785219   7.70282875
  8.11765389  8.52062688  8.90463644  9.26731213  9.60154268  9.91206892
 10.19652045 10.45489725 10.69194018 10.91001969 11.11387661 11.30588139
 11.49314531 11.67329794 11.855821   12.04071449 12.23271927 12.43894663
 12.66413742 12.91540293 13.19748403 13.51512156 13.87779725 14.27839982
 14.71929968 15.1886447  15.66747143 16.13681644 16.57297545 16.94513286
 17.22721395 17.4002553  17.44292302 17.34810585 17.11580377 16.75075765
 16.26956049 15.68880529 15.02982593 14.31395626 13.56490058 12.79925189
 12.04071449 11.2987701  10.58764129  9.92155064  9.30760943  8.75292896
  8.26936137  7.85927709  7.52978741  7.28800361  7.1339257   7.06755368
  7.0770354   7.15288914  7.27378104  7.4160068   7.55586213  7.66727231
  7.72653305  7.72179219  7.64356802  7.4966014   7.29748533  7.07466497
  6.8589559   6.69065541  6.60531995  6.63850597  6.80917688  7.12681442
  7.58904814  8.17217377  8.84063485  9.54939323 10.25104032 10.89579711
 11.44573672 11.86767315 12.14975425 12.28723915 12.30146173 12.21612627
 12.07153008 11.90085916 11.74441082 11.63063021 11.5808512  11.60692592
 11.70648395 11.87004358 12.08575265 12.3393886  12.61672883 12.91066207
 13.21881789 13.54356671 13.88253811 14.24047295 14.61500079 14.99663992
 15.37353819 15.7219913  16.02303583 16.25059705 16.38097067 16.3999341
 16.29800564 16.07281485 15.73858431 15.31190702 14.81885771 14.28551111
 13.74268278 13.22592918 12.75421373 12.35835203 12.05256664 11.855821
 11.77759684 11.82500542 12.0004172  12.30383215 12.72576858 13.25437433
 13.86831554 14.54388791 15.25027586 15.95666381 16.62986575 17.2390661
 17.76056056 18.1753857  18.4740598  18.65421243 18.72058445 18.68739844
 18.56887697 18.38398348 18.1516814  17.88856374 17.60648265 17.3196607
 17.0375796  16.76498022 16.50423299 16.26481963 16.04911056 15.85710578
 15.69354615 15.55606125 15.4470215  15.36405647 15.29768445 15.245535
 15.19812641 15.15071783 15.09619795 15.02982593 14.95160176 14.85915501
 14.75722655 14.64581637 14.5272949  14.40877343 14.29262239 14.18358264
 14.08402461 13.99868915 13.93468756 13.89439026 13.8896494  13.9299467
 14.02239345 14.17647136 14.39929172 14.69322496 15.06064151 15.49205965
 15.97562725 16.49238085 17.0209866  17.53299934 18.00234435 18.40057649
 18.71110274 18.91495966 19.00029512 18.96947954 18.82014249 18.56887697
 18.22516472 17.81033958 17.34336499 16.84320439 16.32882122 15.81680848
 15.31664788 14.83545072]","[-1.40117047 -1.40939149 -1.39089419 -1.34773382 -1.27785514 -1.17920287
 -1.05177703 -0.89352235 -0.70443884 -0.48247124 -0.22761955  0.05600571
  0.3663493   0.69107968  1.01992056  1.34054043  1.63855248  1.89751468
  2.10509549  2.25101864  2.3311736   2.34350514  2.29212375  2.1831952
  2.02494053  1.82969125  1.60977891  1.37753503  1.14529115  0.9212683
  0.71574274  0.53488026  0.38279135  0.25947601  0.16698951  0.10533185
  0.06628199  0.0518952   0.05600571  0.07655827  0.11355287  0.162879
  0.22864718  0.3108574   0.40539916  0.51638296  0.63764303  0.76712413
  0.89660523  1.01786531  1.11651758  1.1802305   1.1987278   1.15967794
  1.06102568  0.90071574  0.68696917  0.43622799  0.17110002 -0.08580692
 -0.30571926 -0.45780817 -0.52768686 -0.49685803 -0.36532167 -0.14540933
  0.14643696  0.47938836  0.82467129  1.14734641  1.42686116  1.64060774
  1.78036512  1.84818855  1.8502438   1.79680716  1.70637592  1.58717109
  1.45769     1.32615364  1.20078305  1.08568874  0.98292596  0.89660523
  0.82056078  0.75273734  0.68902442  0.6253115   0.5513223   0.46089106
  0.35196251  0.22042616  0.06422674 -0.1145805  -0.30982977 -0.51741058
 -0.7291019  -0.94284848 -1.15042929 -1.35389959 -1.55120412 -1.74234289
 -1.9314264  -2.12050991 -2.31370393 -2.50895321 -2.70625774 -2.90150702
 -3.09470104 -3.28172929 -3.45642601 -3.61468069 -3.75854858 -3.88186391
 -3.98462669 -4.06683691 -4.13054983 -4.17782071 -4.20659429 -4.22098108
 -4.22098108 -4.20659429 -4.18193122 -4.14493662 -4.09766574 -4.04217384
 -3.98051618 -3.91063749 -3.83664829 -3.75649332 -3.67222785 -3.58590711
 -3.49342061 -3.3968236  -3.29406083 -3.18307703 -3.0638722  -2.93028059
 -2.78435745 -2.62199226]",16.265782615033988,0.5497294769888315,4.2186449999999995,0.16198000000000157
020,2,1,csp,36a.png,1,1,200,219,199,1,1,411,pos_feedback_onset,5,"[ -1.22583344  -1.02607107  -0.8117427   -0.58284832  -0.34771137
  -0.11257442   0.1142391    0.32024404   0.49711697   0.63029188
   0.7135262    0.74265821   0.7135262    0.63029188   0.49503611
   0.31608233   0.10383481  -0.133383    -0.38724767  -0.64943578
  -0.91370474  -1.17381199  -1.42351494  -1.6586519   -1.87089941
  -2.0498532   -2.18927068  -2.27666672  -2.29955615  -2.25169642
  -2.12476408  -1.91667828  -1.63160074  -1.27577403  -0.86584501
  -0.4205414    0.04140907   0.49295526   0.91745028   1.29408558
   1.61037599   1.85591723   2.0307093    2.12850963   2.15764164
   2.1201862    2.02030501   1.86632152   1.65823572   1.40229019
   1.10056579   0.7530625    0.36394206  -0.06679554  -0.53290773
  -1.03023279  -1.54420471  -2.06650006  -2.58255284  -3.07779704
  -3.53766665  -3.95175739  -4.30550325  -4.59682336  -4.81947517
  -4.97762037  -5.07333984  -5.11079528  -5.10455271  -5.06085469
  -4.99218638  -4.90895206  -4.81947517  -4.72999827  -4.64884481
  -4.57809564  -4.51983162  -4.47405274  -4.44075901  -4.41786958
  -4.40330357  -4.39914185  -4.39914185  -4.40330357  -4.40746529
  -4.411627    -4.411627    -4.40330357  -4.38249499  -4.34295869
  -4.28053295  -4.18273262  -4.04747686  -3.86436135  -3.63130526
  -3.34414686  -3.00288615  -2.61376571  -2.17886639  -1.70859249
  -1.20918657  -0.69105293  -0.16667672   0.35978034   0.87375227
   1.36483475   1.82886608   2.25128025   2.6299964    2.95877196
   3.23552607   3.46025873   3.6350508    3.764064     3.84937918
   3.88891548   3.88475376   3.82648974   3.71204255   3.52892705
   3.2688198    2.92963995   2.50514492   1.99949643   1.42309877
   0.79051795   0.1142391   -0.58076746  -1.27785489  -1.95829544
  -2.60128056  -3.19640594  -3.73742902  -4.22018807  -4.64260224
  -5.01299496  -5.3376088   -5.62268635  -5.87655102  -6.1054454
  -6.31561205  -6.50913185  -6.69016649  -6.85871599  -7.01269948
  -7.15211696  -7.27488758  -7.37684962  -7.46008394  -7.52042882
  -7.55788427  -7.57245027  -7.5662077   -7.53707569  -7.4871351
  -7.41846678  -7.33523246  -7.23535128  -7.12506581  -7.00437604
  -6.87328199  -6.73802622  -6.59652788  -6.45086782  -6.30312691
  -6.15330513  -6.0014025   -5.84949987  -5.69551638  -5.54153288
  -5.39171111  -5.24397019  -5.10455271  -4.9713778   -4.85276889
  -4.74872599  -4.6592491   -4.59058079  -4.54272105  -4.51775076
  -4.51150819  -4.52815505  -4.56144878  -4.61347023  -4.67589597
  -4.74664514  -4.82155602  -4.8923052   -4.95889265  -5.01299496
  -5.05253126  -5.0754207   -5.07958241  -5.06501641  -5.02964182
  -4.97970123  -4.91311378  -4.83404117  -4.7383217   -4.63011709
  -4.50526561  -4.36376727  -4.19729863  -4.00377884  -3.7728036
  -3.50021121  -3.17767822  -2.80312378  -2.3765479   -1.90419314
  -1.39646379  -0.87208758  -0.35395394   0.13504768   0.56162357
   0.90288428   1.13177865   1.23165984   1.19004268   1.00484632
   0.68231333   0.23700972  -0.31233678  -0.94283675  -1.62743903
  -2.34117331  -3.06115017  -3.76656103  -4.44492073  -5.08790585
  -5.6892738   -6.25110546  -6.77340081  -7.26448329  -7.72435291
  -8.16341394  -8.57750468  -8.97286769  -9.34534127  -9.69492541
 -10.01537754 -10.30669766 -10.56472405 -10.78529499 -10.97049135
 -11.12031313 -11.23476032 -11.31383292 -11.36377351 -11.38458209
 -11.37833952 -11.34920751 -11.29926691 -11.2305986  -11.14320257
 -11.04124052 -10.92471248 -10.79569928 -10.6562818  -10.50646002]","[-3.62508931 -3.08479403 -2.55075699 -2.02715036 -1.52231847 -1.04043349
 -0.59192582 -0.18096763  0.18409675  0.49909516  0.7640276   0.97889406
  1.1499528   1.28137598  1.38776617  1.47955379  1.56925532  1.6652151
  1.77160529  1.89259806  2.01776299  2.13875576  2.24305987  2.31190058
