sub,run,cat_cond,trial_type,picture,old,response_old,target_pos,response_pos,dot_resp_loc,cat_corr,TN_corr,TN_rt,feedback_type,trial,SP_timeseries,FB_timeseries,SP_peak_response,FB_peak_response,preStim_bl,anticipation
026,1,1,csm,63b.png,1,1,116,94,118,1,1,291,neu_feedback_onset,1,"[nan nan nan nan nan nan nan nan nan nan nan nan nan nan nan nan nan nan
 nan nan nan nan nan nan nan nan nan nan nan nan nan nan nan nan nan nan
 nan nan nan nan nan nan nan nan nan nan nan nan nan nan nan nan nan nan
 nan nan nan nan nan nan nan nan nan nan nan nan nan nan nan nan nan nan
 nan nan nan nan nan nan nan nan nan nan nan nan nan nan nan nan nan nan
 nan nan nan nan nan nan nan nan nan nan nan nan nan nan nan nan nan nan
 nan nan nan nan nan nan nan nan nan nan nan nan nan nan nan nan nan nan
 nan nan nan nan nan nan nan nan nan nan nan nan nan nan nan nan nan nan
 nan nan nan nan nan nan nan nan nan nan nan nan nan nan nan nan nan nan
 nan nan nan nan nan nan nan nan nan nan nan nan nan nan nan nan nan nan
 nan nan nan nan nan nan nan nan nan nan nan nan nan nan nan nan nan nan
 nan nan nan nan nan nan nan nan nan nan nan nan nan nan nan nan nan nan
 nan nan nan nan nan nan nan nan nan nan nan nan nan nan nan nan nan nan
 nan nan nan nan nan nan nan nan nan nan nan nan nan nan nan nan nan nan
 nan nan nan nan nan nan nan nan]","[ -4.32606619  -4.07104571  -3.80852462  -3.53287748  -3.23660369
  -2.90657718  -2.53529737  -2.10963818  -1.62397418  -1.07455505
  -0.4613808    0.21367341   0.94123184   1.71191874   2.50885774
   3.31704765   4.11961211   4.89967476   5.64223439   6.33228981
   6.96234041   7.53051104   8.03492656   8.48308755   8.88436978
   9.24627384   9.58380095   9.908202    10.22510245  10.5420029
  10.85702821  11.1683032   11.46645215  11.74209929  11.98586887
  12.18650998  12.33652203  12.43215471  12.47528317  12.46590742
  12.41152805  12.31589537  12.19026028  12.04212338  11.87523498
  11.69522052  11.50770546  11.3164401   11.12142444  10.92453363
  10.72764281  10.530752    10.33198604  10.13322007   9.93632926
   9.7375633    9.53879733   9.34003137   9.14314056   8.9443746
   8.74560863   8.54871782   8.34995186   8.15306104   7.95804538
   7.76302972   7.57176436   7.3842493    7.20235969   7.02797068
   6.86295743   6.70731993   6.56668364   6.43354794   6.31166316
   6.19352867   6.07164388   5.93850819   5.78099554   5.59348048
   5.3609618    5.08156436   4.74591241   4.35588108   3.91147039
   3.41830578   2.88576301   2.31946753   1.72879509   1.12312145
   0.51182236  -0.09385129  -0.68827403  -1.25831981  -1.79648803
  -2.29340294  -2.73593848  -3.1184692   -3.4372448   -3.68663983
  -3.87040459  -3.99041423  -4.05791965  -4.08604691  -4.08604691
  -4.07854631  -4.07854631  -4.10479842  -4.17230384  -4.29231348
  -4.47232793  -4.72172296  -5.03487311  -5.40990323  -5.83556242
  -6.30059977  -6.78813892  -7.28130353  -7.76509238  -8.22450428
  -8.64828832  -9.02331844  -9.34959464  -9.62336663  -9.84275925
 -10.01339795 -10.13903304 -10.22716512 -10.28341964 -10.31342205
 -10.3265481  -10.3265481  -10.3190475  -10.30779659 -10.29654569
 -10.28529479 -10.27591903 -10.26466813 -10.25154208 -10.23279057]",,10.454198977855423,4.6015,0.45676499999999987
026,1,1,csm,45b.png,1,1,248,240,248,1,1,512,neu_feedback_onset,2,"[-1.02278692 -1.0988888  -1.10560367 -1.04293153 -0.91982555 -0.74747717
 -0.54155443 -0.31772536 -0.091658    0.12097961  0.31123432  0.46567637
  0.58430578  0.66712253  0.71860322  0.74546271  0.76560732  0.78799023
  0.82604117  0.89542818  1.00510442  1.15954648  1.36323093  1.61839606
  1.9205653   2.26302377  2.63681831  3.03747234  3.45379441  3.87683134
  4.29986828  4.71619034  5.12132095  5.51302182  5.88457807  6.23822799
  6.57397159  6.89180886  7.19173981  7.47824102  7.75578906  8.02438394
  8.28402566  8.53471421  8.78092618  9.01818499  9.24649064  9.46584312
  9.67624245  9.87768861 10.07465819 10.26715118 10.45740589 10.65213718
 10.85358334 11.06622095 11.29228831 11.53626199 11.80038029 12.08688149
 12.39352731 12.71360288 13.03815502 13.36046888 13.66039983 13.92675641
 14.13939403 14.2893595  14.3609848  14.35426993 14.2669766  14.10358138
 13.87527573 13.59325111 13.26646067 12.91057245 12.53677791 12.15179192
 11.76232934 11.37510506 10.99459565 10.6230394  10.26938947  9.93588416
  9.63147663  9.36735834  9.15248243  9.00251696  8.92641508  8.93760653
  9.04504448  9.24872893  9.55537475  9.95379049 10.43278469 10.97892761
 11.56759806 12.17865141 12.78746647 13.36718375 13.89989693 14.36322309
 14.74373251 15.03023371 15.22048842 15.30778175 15.29882859 15.19586722
 15.0100891  14.74820909 14.42365694 14.04538582 13.62682547 13.18140562
 12.72255604 12.26370645 11.81828661 11.40196455 11.02593172 10.70137957
 10.43949956 10.24476828 10.12166229 10.06570502 10.07465819 10.14852178
 10.27834264 10.46412076 10.70137957 10.98564248 11.31914779 11.69741892
 12.11597927 12.57035227 13.05158477 13.54177042 14.02747949 14.49304395
 14.9138426  15.27420739 15.56294689 15.77110792 15.89421391 15.93897972
 15.91659681 15.84497151 15.74201014 15.63457219 15.53832569 15.47341526
 15.45774723 15.49803646 15.60099783 15.76663134 15.9926987  16.26800845
 16.58136914 16.91711274 17.25285634 17.57069361 17.84824165 18.06311756
 18.19070013 18.21084474 18.10564508 17.85719482 17.46101737 16.91039787
 16.21428947 15.38164535 14.43708669 13.40747298 12.32190201 11.21618642
 10.12613887  9.08309542  8.11391556  7.24769708  6.49563142  5.87114832
  5.37872438  5.013883    4.76767102  4.63337359  4.59532264  4.63561188
  4.73857325  4.88406214  5.05417223  5.23323548  5.40334557  5.55107276
  5.66746387  5.74132746  5.77266353  5.76371037  5.71446798  5.6361278
  5.53316643  5.4212519   5.30262249  5.19070796  5.08774659  4.99821496
  4.92211308  4.85944094  4.81467513  4.78110077  4.76319444  4.76319444
  4.77886248  4.81243684  4.8683941   4.9422577   5.0385042   5.15489531
  5.28471617  5.43020506  5.58464712  5.74580404  5.90472268  6.05692645
  6.20017705  6.32775962  6.43519757  6.51801432  6.57397159  6.60530766
  6.61202253  6.60306937  6.58292475  6.55830355  6.53592065  6.52472919
  6.52696749  6.54039723  6.56278014  6.58292475  6.59187791  6.57397159
  6.51801432  6.40833808  6.2359897   5.99873089  5.69432336  5.3250054
  4.90196846  4.4386423   3.95293322  3.4560327   2.97032362  2.50699746
  2.08172223  1.7056894   1.38113725  1.11254237  0.89766647  0.73650954
  0.62011843  0.54625484]","[-2.50167043 -2.27132919 -2.04098794 -1.8088186  -1.57116493 -1.32619885
 -1.07209224 -0.80336079 -0.52366071 -0.23116389  0.06864535  0.375767
  0.68288866  0.98635411  1.28250714  1.57317585  1.85836024  2.14354464
  2.43604146  2.74316312  3.07587824  3.43967116  3.84185428  4.28608382
  4.77053168  5.29154163  5.83997316  6.40668575  6.97705454  7.54193902
  8.08854244  8.6095524   9.09765646  9.55102653  9.9696626  10.35173656
 10.70090464 11.01899493 11.30417932 11.55462972 11.76851802 11.9403599
 12.06101484 12.12682662 12.13231094 12.07015536 11.942188   11.74840886
 11.49430225 11.18535249 10.83252821 10.44679803 10.03547438  9.611354
  9.17809309  8.74300407  8.30974316  7.88196657  7.4633305   7.05749116
  6.66627667  6.29517133  5.95148757  5.64070971  5.36832205  5.13980891
  4.95517029  4.81806241  4.71934473  4.65170485  4.60234601  4.55481527
  4.48900349  4.3866296   4.22941257  4.00455564  3.69926209  3.30804759
  2.83274027  2.27516821  1.65178437  0.97355737  0.26425259 -0.45967703
 -1.17263802 -1.85634933 -2.49252991 -3.06838301 -3.57659623 -4.01351335
 -4.37730627 -4.6752874  -4.91476917 -5.103064   -5.2493124  -5.36265492
 -5.45406018 -5.52535627 -5.58568374 -5.63869879 -5.68622952 -5.73010405
 -5.77215046 -5.81236878 -5.85075898 -5.88914919 -5.92388319 -5.95861718
 -5.98786687 -6.01346034 -6.03174139 -6.04453812 -6.04819433 -6.04453812
 -6.0353976  -6.02077276 -6.00797602 -6.00249171 -6.00980413 -6.0353976
 -6.08658454 -6.16884927 -6.28219179 -6.42661209 -6.60211018 -6.80502985
 -7.02988678 -7.26936855 -7.52347515 -7.78306608 -8.04631321 -8.30956035
 -8.56732317 -8.81777357 -9.05908344 -9.28576848 -9.49417246 -9.68429539
 -9.85065295 -9.99507326]",14.017966759145356,9.2414369271747,4.467695000000001,0.531955
026,1,1,csp,15a.png,1,1,272,270,274,1,1,512,neg_feedback_onset,3,"[ 0.1327885   0.07579773  0.02336622 -0.0222264  -0.06098013 -0.09061533
 -0.11341164 -0.12936906 -0.13848758 -0.14076721 -0.13620795 -0.12480979
 -0.10201348 -0.07009865 -0.02678566  0.02792548  0.09631441  0.17610149
  0.2650071   0.35847196  0.45421646  0.54996096  0.63886657  0.72321291
  0.7961611   0.8622704   0.91698154  0.96485379  1.00360752  1.03780198
  1.06515755  1.0833946   1.09479275  1.09251312  1.07427607  1.03552235
  0.97625194  0.89418523  0.78704258  0.66394251  0.52488502  0.37670901
  0.228533    0.08719588 -0.04046345 -0.14988573 -0.23879134 -0.30034137
 -0.3390951  -0.35277289 -0.34137473 -0.30718027 -0.25018949 -0.16812278
 -0.05642087  0.08263662  0.25360894  0.46333499  0.70953513  0.99904825
  1.33187437  1.70345421  2.11150815  2.55603618  3.03247904  3.53171821
  4.05147407  4.58718733  5.13201913  5.68824907  6.24903828  6.81438675
  7.38201485  7.95192258  8.52410995  9.09857694  9.67304393 10.24751093
 10.82197792 11.38960602 11.94583597 12.48154924 12.98534767 13.44355349
 13.83565001 14.15023908 14.36908365 14.47850593 14.46938741 14.33716881
 14.08640941 13.72166846 13.25434412 12.70267344 12.08489346 11.42152086
 10.73079268 10.03322562  9.34705671  8.68596374  8.05906524  7.47092046
  6.92380904  6.40861245  5.92533069  5.46028598  5.00663943  4.5552725
  4.10162595  3.64342013  3.18065505  2.7201696   2.26652305  1.82883391
  1.41622071  1.03552235  0.69585734  0.40178495  0.15330518 -0.04274308
 -0.19319872 -0.29806174 -0.35733215 -0.37784883 -0.35733215 -0.30490064
 -0.21599503 -0.09517459  0.05528105  0.23537189  0.44509794  0.67989992
  0.93977785  1.22701135  1.53932078  1.87442653  2.23460822  2.61986584
  3.02336052  3.44509224  3.87594248  4.31135199  4.73764298  5.14341728
  5.51271749  5.83414545  6.09630301  6.28779201  6.40405318  6.44052728
  6.40405318  6.29691053  6.13505673  5.92533069  5.68368981  5.41925262
  5.14569691  4.86758194  4.59402623  4.32958904  4.07655001  3.83946839
  3.61834419  3.41773667  3.24220509  3.09402908  2.98004753  2.90481971
  2.87062525  2.87518451  2.9184975   2.99372532  3.08946981  3.19661247
  3.30147549  3.39266073  3.45877003  3.49752375  3.50208301  3.47244781
  3.41773667  3.34478848  3.26728103  3.20117173  3.15785874  3.15557911
  3.20345136  3.31287365  3.4861256   3.72320721  4.0172796   4.35694461
  4.73080408  5.12062097  5.51043786  5.88429733  6.2285216   6.52943288
  6.78475155  6.9876387   7.1426536   7.24979626  7.32274445  7.3637778
  7.38657411  7.39569264  7.39797227  7.4002519   7.40709079  7.41848895
  7.44128526  7.47547972  7.52335197  7.5917409   7.67836687  7.79006879
  7.92456701  8.08186155  8.25967276  8.45344139  8.65404891  8.85465643
  9.04842506  9.22395664  9.37441228  9.49295309  9.5750198   9.61605316
  9.62061242  9.5818587   9.49979198  9.37669191  9.20799922  8.99371392
  8.73155636  8.41924692  8.05678561  7.6510113   7.2087629   6.73915893
  6.25587717  5.77487505  5.30755071  4.8721412   4.47548542  4.12670189
  3.8326295   3.59098862  3.39949962  3.25588287  3.15329948  3.08491055
  3.0438772   3.02336052  3.01880126  3.02791978  3.04843646  3.08263092
  3.1327828   3.20345136]","[ -2.88971338  -2.58819941  -2.2481197   -1.88174517  -1.5066057
  -1.13672519  -0.78437456  -0.46007175  -0.16556973   0.09913148
   0.33753788   0.5566614    0.76351401   0.97036661   1.18247818
   1.41036665   1.65929097   1.92925115   2.22024719   2.53227909
   2.85833489   3.19666161   3.54200028   3.88909194   4.23443062
   4.57100435   4.89881314   5.21259802   5.50710004   5.78231919
   6.03474948   6.26088496   6.45721964   6.6255065    6.76574556
   6.87618381   6.96208024   7.02343482   7.06550654   7.09004837
   7.09881331   7.09355435   7.07602447   7.04622367   7.00415195
   6.95156231   6.88845473   6.81482923   6.73419177   6.64829535
   6.55889295   6.46949056   6.37658218   6.2854268    6.1960244
   6.106622     6.0172196    5.92957019   5.84367377   5.75777735
   5.67188093   5.58598451   5.50008809   5.41419167   5.32829525
   5.24239882   5.1565024    5.07060598   4.98646255   4.90056613
   4.81466971   4.72877329   4.64462985   4.56048642   4.47634299
   4.39395254   4.31506807   4.23793659   4.16431109   4.09769754
   4.03458996   3.97849434   3.9259047    3.87682103   3.82598437
   3.76813576   3.69626324   3.59984889   3.47188075   3.3018409
   3.08096439   2.80749823   2.47618346   2.08877307   1.64526706
   1.15267738   0.61801599   0.04829482  -0.54772116  -1.16302001
  -1.7888368   -2.42166553  -3.05274128  -3.67855806  -4.29210393
  -4.8898729   -5.468359    -6.02405626  -6.55521168  -7.05831929
  -7.53337909  -7.98039107  -8.39760226  -8.78501265  -9.14262224
  -9.46867805  -9.76493305 -10.03138725 -10.26628767 -10.47314028
 -10.65369806 -10.80971401 -10.94294111 -11.06214431 -11.16557061
 -11.26023197 -11.34963437 -11.43553079 -11.51967422 -11.60557065
 -11.69146707 -11.77736349 -11.8650129  -11.95090932 -12.03680574
 -12.11919618 -12.19983364 -12.27521213 -12.34883764 -12.41720418]",10.034479417782254,6.043777374006173,4.386675,0.5900549999999996
026,1,1,csp,62a.png,1,1,204,336,206,1,1,367,pos_feedback_onset,4,"[  1.3119703    1.00664932   0.70335034   0.41016132   0.13719224
  -0.10544695  -0.30764627  -0.46333975  -0.57050539  -0.62307721
  -0.6271212   -0.58465934  -0.50377961  -0.39459198  -0.26316242
  -0.1196009    0.02800461   0.1776321    0.32321562   0.46475514
   0.60831666   0.75187818   0.90554966   1.07135311   1.2533325
   1.4615978    1.69412702   1.95698614   2.25017516   2.57773806
   2.93563086   3.32789754   3.75049412   4.20342061   4.68061101
   5.17802134   5.68756363   6.19912791   6.70058223   7.17777263
   7.61654516   7.99870188   8.31008884   8.54261806   8.68415758
   8.73066343   8.68617958   8.55272802   8.34041873   8.06542766
   7.73786475   7.37592797   6.99579324   6.60959254   6.23147981
   5.86752103   5.52580417   5.20430725   4.90707425   4.6239952
   4.3530481    4.09018899   3.82530787   3.55840477   3.29150166
   3.02257657   2.76173944   2.51505627   2.29870299   2.12278958
   2.00146999   1.94687617   1.9691181    2.07021776   2.25017516
   2.50696829   2.82644322   3.19444599   3.59480065   4.00728726
   4.41572989   4.8019306    5.15173543   5.45301242   5.70171758
   5.88774096   6.00703856   6.06163238   6.04545643   5.9645767
   5.8169712    5.61274988   5.36000073   5.07287769   4.76553472
   4.46021374   4.17713469   3.9365175    3.7585821    3.65343845
   3.63119652   3.69387831   3.82935186   4.0275072    4.2661024
   4.52289553   4.77362269   5.00008593   5.18206532   5.3094509
   5.37617667   5.38224265   5.33169282   5.23059316   5.08703164
   4.91516222   4.72105087   4.51278557   4.29845429   4.08007902
   3.86574774   3.65343845   3.44921713   3.2510618    3.05897244
   2.87699305   2.70107964   2.53325421   2.37553873   2.22793323
   2.09448168   1.98327205   1.89834833   1.85184249   1.85588648
   1.92261225   2.06212979   2.28657103   2.60200198   3.0124666
   3.51594291   4.10232094   4.75946874   5.46716637   6.19912791
   6.92502348   7.61250118   8.2312311    8.75290535   9.15326001
   9.41409713   9.52732875   9.49295487   9.31704146   9.01778646
   8.6194538    8.14630739   7.62665513   7.08880493   6.55702071
   6.04545643   5.56624404   5.11736154   4.69476496   4.28834432
   3.87990169   3.4593271    3.00842261   2.52112225   1.99136002
   1.42520192   0.83073591   0.22211596  -0.38043802  -0.95872809
  -1.4905123   -1.96365872  -2.36401337  -2.6855103   -2.93017148
  -3.10001891  -3.20718455  -3.26582235  -3.29210826  -3.30221823
  -3.31435019  -3.34468009  -3.40533988  -3.50441755  -3.65000106
  -3.84209042  -4.07664163  -4.34961072  -4.64684372  -4.95620868
  -5.26355165  -5.55067469  -5.80948982  -6.0238211   -6.18760255
  -6.29476819  -6.34734002  -6.34936201  -6.30892215  -6.23815238
  -6.14918468  -6.05819499  -5.97529326  -5.91058948  -5.8762156
  -5.8762156   -5.91058948  -5.97731526  -6.07437093  -6.19164654
  -6.3230761   -6.45450566  -6.57986924  -6.68703488  -6.76589261
  -6.80633248  -6.8002665   -6.74365069  -6.63041907  -6.45854964
  -6.2341084   -5.95709533  -5.64166438  -5.29994753  -4.94609872
  -4.60235987  -4.28692893  -4.02002582  -3.81984849  -3.70055089
  -3.67022099  -3.73088079  -3.88050829  -4.11101552  -4.41027051
  -4.76007534  -5.14829804  -5.55269668  -5.96316131  -6.36553796
  -6.75376065  -7.12176342  -7.46550227  -7.7849772   -8.08018821
  -8.35315729  -8.60186246  -8.83034769  -9.04063499  -9.23070235
  -9.40459377  -9.56837522  -9.7240687   -9.87774018 -10.03343366]","[  1.07828954   0.93294946   0.69772801   0.39939837   0.06282134
  -0.28140517  -0.60459562  -0.87806445  -1.08268799  -1.2012549
  -1.22420333  -1.14770855  -0.9755953   -0.71168831  -0.36937417
   0.04178527   0.51222817   1.02474319   1.57550561   2.15112882
   2.74778811   3.35974634   3.9831788    4.6161731    5.25490451
   5.89554829   6.53045496   7.15579979   7.76010855   8.33190702
   8.86545811   9.34355049   9.7623594   10.11232302  10.39344134
  10.60380198  10.75105443  10.84284817  10.8849203   10.89065741
  10.86388423  10.81225026  10.73193074  10.62483805  10.48714744
  10.31312182  10.10084881   9.84841603   9.56347298   9.25175675
   8.92474157   8.59772638   8.28601016   8.00489184   7.76393329
   7.57460871   7.4369181    7.35468621   7.32026356   7.32982541
   7.37380991   7.44456758   7.53253658   7.63006742   7.72759826
   7.819392     7.89588678   7.9513455    7.9762063    7.96473208
   7.90927337   7.80600541   7.64919112   7.44074284   7.17874822
   6.86894436   6.51706838   6.126945     5.70622371   5.26255399
   4.80358531   4.33123005   3.85313767   3.37313293   2.89312819
   2.41694818   1.94841766   1.48944898   1.04386689   0.61549612
   0.20624905  -0.18196196  -0.54531216  -0.88571393  -1.20699201
  -1.51105875  -1.80556366  -2.09815619  -2.3983982   -2.71585154
  -3.06007804  -3.4387272   -3.85753612  -4.31459243  -4.80798376
  -5.33579774  -5.89229726  -6.46409574  -7.04928081  -7.63829061
  -8.22347567  -8.80292363  -9.37089737  -9.92548452 -10.46286035
 -10.97920011 -11.4687667  -11.92964775 -12.35228141 -12.73284294
 -13.06177049 -13.3371517  -13.55133708 -13.70241427 -13.79038327
 -13.81906881 -13.79038327 -13.71006375 -13.58384736 -13.42129596
 -13.22814664 -13.01204888 -12.78256454 -12.54351836 -12.30447217
 -12.06925072 -11.84359112 -11.63323048 -11.44008116 -11.26605554]",5.274975913005763,8.352464996466896,4.945615,
026,1,1,csm,53b.png,1,1,352,319,353,1,1,337,neu_feedback_onset,5,"[ 1.99399589  1.89708748  1.76225839  1.59793543  1.40411861  1.18502133
  0.9427503   0.67941223  0.39922052  0.11060199 -0.18433665 -0.47716859
 -0.75525359 -1.01437826 -1.24611576 -1.43993259 -1.59372202 -1.70537736
 -1.7685785  -1.78753884 -1.76225839 -1.69273714 -1.5852952  -1.43571918
 -1.25032917 -1.0333386  -0.78264075 -0.50876916 -0.21172381  0.09585506
  0.40764734  0.71522621  1.01016485  1.28192974  1.52420077  1.73697793
  1.91394112  2.05930373  2.17306578  2.26154737  2.32896192  2.37952283
  2.41744351  2.44483067  2.45957761  2.45957761  2.44061726  2.39848317
  2.32896192  2.22994681  2.10354453  1.9539685   1.78543214  1.60636225
  1.42729236  1.2608627   1.11339337  0.99541792  0.91325644  0.86901564
  0.86690894  0.90272292  0.97224417  1.07336599  1.19766156  1.34091747
  1.49681361  1.65692316  1.81703271  1.97082214  2.11407805  2.24048033
  2.34370885  2.42165692  2.47221783  2.49117817  2.47853795  2.43640386
  2.3647759   2.26786749  2.14567862  2.00663612  1.85284668  1.68641702
  1.51577395  1.33881077  1.16395428  0.99541792  0.83530837  0.69205246
  0.574077    0.48559541  0.43924791  0.44556802  0.50876916  0.63727814
  0.83530837  1.10285985  1.43361247  1.81703271  2.24258703  2.68920841
  3.13793648  3.56770422  3.95323116  4.27977037  4.52625481  4.68425765
  4.74956549  4.72428504  4.61894981  4.44409333  4.21867594  3.96376468
  3.69410649  3.42866172  3.18007057  2.95675989  2.76294307  2.60072681
  2.46800442  2.36266919  2.27840101  2.21309317  2.15831885  2.11407805
  2.07405067  2.03612998  1.9982093   1.96028862  1.92447464  1.88655396
  1.84863328  1.81071259  1.77068521  1.73276452  1.69484384  1.65692316
  1.62110918  1.5852952   1.55369463  1.52841418  1.50734713  1.49681361
  1.4947069   1.50945384  1.5389477   1.58740191  1.65270975  1.73487123
  1.83177964  1.93290146  2.03402328  2.12250487  2.18781271  2.21730658
  2.19834624  2.12250487  1.97714226  1.76436509  1.48206668  1.13446042
  0.73207984  0.28545847 -0.19276347 -0.68994575 -1.19134144 -1.68641702
 -2.16885237 -2.63022068 -3.06630853 -3.47711592 -3.86053616 -4.21235582
 -4.53678833 -4.82751356 -5.08874493 -5.31626903 -5.51008585 -5.66808869
 -5.78606415 -5.86611892 -5.91035972 -5.91457313 -5.88507926 -5.82187813
 -5.73339653 -5.61752778 -5.48269869 -5.32890925 -5.16247959 -4.981303
 -4.78748617 -4.57892242 -4.35350503 -4.10702059 -3.83736241 -3.53610365
 -3.20324433 -2.83035761 -2.41744351 -1.96239532 -1.46521304 -0.92589667
 -0.35076631  0.24964449  0.87112235  1.49681361  2.11197135  2.70816875
  3.27276558  3.79733502  4.27977037  4.72217833  5.13509243  5.52904619
  5.91667983  6.314847    6.7298678   7.16806236  7.62943066  8.1076526
  8.58798125  9.05566967  9.49175752  9.87728446 10.19961026 10.4482014
 10.61884447 10.71575288 10.74735345 10.722073   10.65676516 10.56407015
 10.45452151 10.33654606 10.21014378 10.07531469  9.92363196  9.74456207
  9.52125138  9.24527308  8.89766682  8.46579238  7.94543635  7.33027861
  6.62663928  5.83873176  4.98762311  4.08806025  3.16532364  2.24258703
  1.34302417  0.48770211 -0.30863222 -1.0312319  -1.6779902  -2.24469374
 -2.73766261 -3.15900353]","[ -3.84956376  -3.30761502  -2.75657317  -2.21098719  -1.68904327
  -1.20165313  -0.7615471   -0.37418105  -0.03955498   0.24596835
   0.4878448    0.70244195   0.90249015   1.10435696   1.32440997
   1.57719814   1.87727043   2.2300827    2.63927219   3.09938303
   3.60314076   4.13417778   4.67612652   5.20716354   5.70728403
   6.15830177   6.54748644   6.86756355   7.11489586   7.29675786
   7.42406125   7.51499225   7.58591843   7.6568446    7.7477756
   7.86962314   8.02966169   8.22970988   8.46431186   8.71891865
   8.98079992   9.22813223   9.44091076   9.60458656   9.70097342
   9.72461548   9.66823826   9.535479     9.32997495   9.0608192
   8.73892347   8.37338086   7.97510309   7.55500189   7.12035172
   6.67842708   6.23468381   5.7963964    5.37083934   4.96528709
   4.58883276   4.24875084   3.95959026   3.72680691   3.55949388
   3.46310702   3.43764634   3.47401874   3.5613125    3.67952279
   3.80500757   3.91230615   3.97595784   3.97050198   3.87957099
   3.69043451   3.40127394   3.01208928   2.53197361   1.97365729
   1.35168927   0.68061851  -0.02864326  -0.7615471   -1.50718128
  -2.26008993  -3.01299859  -3.75681414  -4.48789936  -5.20261699
  -5.89187395  -6.55203299  -7.17763825  -7.76868973  -8.31973157
  -8.82894515  -9.29996772  -9.73279927 -10.13107703 -10.49661964
 -10.83488295 -11.14768558 -11.43684615 -11.69872742 -11.93514801
 -12.14065207 -12.31160234 -12.4443616  -12.53165535 -12.57348361
 -12.57166499 -12.52983673 -12.4534547  -12.35524922 -12.24795064
 -12.14610793 -12.06608865 -12.01880453 -12.01698591 -12.06790727
 -12.17338723 -12.3352444  -12.54802293 -12.8099042  -13.10997649
 -13.44096532 -13.79377759 -14.16113882 -14.53395591 -14.90131714
 -15.25958526 -15.59966719 -15.91246982 -16.19617453 -16.44168822
 -16.64719228 -16.80723083 -16.91998527 -16.98727421 -17.00909765]",8.099489124137557,7.409830550087058,4.7467500000000005,0.4488650000000014
026,1,1,csp,39a.png,1,1,124,139,128,1,1,279,pos_feedback_onset,6,"[-8.09983201e-03 -5.01768814e-02 -1.02773193e-01 -1.61681062e-01
 -2.24796636e-01 -2.87912210e-01 -3.44716227e-01 -3.86793277e-01
 -4.12039506e-01 -4.14143359e-01 -3.86793277e-01 -3.27885407e-01
 -2.35315899e-01 -1.11188603e-01  4.66003322e-02  2.29635497e-01
  4.40020744e-01  6.67236811e-01  9.09179845e-01  1.16164214e+00
  1.42041599e+00  1.68129370e+00  1.94427526e+00  2.20936067e+00
  2.47865379e+00  2.75425846e+00  3.03827854e+00  3.33702559e+00
  3.65470732e+00  3.99553142e+00  4.36160175e+00  4.75922986e+00
  5.18631192e+00  5.63864020e+00  6.10779930e+00  6.58326995e+00
  7.04822135e+00  7.48161496e+00  7.86872381e+00  8.18640554e+00
  8.42414087e+00  8.57141054e+00  8.63242226e+00  8.60927988e+00
  8.52091808e+00  8.38627152e+00  8.22848259e+00  8.07069365e+00
  7.93604709e+00  7.83926988e+00  7.78667357e+00  7.78456971e+00
  7.82243906e+00  7.88976234e+00  7.97602029e+00  8.06227824e+00
  8.13801693e+00  8.19271709e+00  8.22427488e+00  8.22848259e+00
  8.21375562e+00  8.18430168e+00  8.14853619e+00  8.11066685e+00
  8.07700521e+00  8.04755127e+00  8.02020119e+00  7.99495496e+00
  7.96129332e+00  7.92132013e+00  7.86872381e+00  7.80350439e+00
  7.72776570e+00  7.64361160e+00  7.55314594e+00  7.46057643e+00
  7.36379922e+00  7.26071045e+00  7.15131012e+00  7.02718283e+00
  6.88201701e+00  6.71160496e+00  6.50963512e+00  6.27400364e+00
  6.00471053e+00  5.70596348e+00  5.37986634e+00  5.03693839e+00
  4.67928347e+00  4.31952470e+00  3.96818134e+00  3.63366879e+00
  3.32440248e+00  3.05721322e+00  2.83630871e+00  2.67851977e+00
  2.58595026e+00  2.56911944e+00  2.63013116e+00  2.76898543e+00
  2.97937067e+00  3.25287150e+00  3.57686478e+00  3.93662355e+00
  4.31321314e+00  4.68980273e+00  5.04745765e+00  5.37565864e+00
  5.65757487e+00  5.88899864e+00  6.06361839e+00  6.18564184e+00
  6.25717282e+00  6.28662676e+00  6.28452290e+00  6.26769208e+00
  6.24665356e+00  6.24244585e+00  6.26348438e+00  6.32870381e+00
  6.45072725e+00  6.64007397e+00  6.90515938e+00  7.24808734e+00
  7.67516939e+00  8.17799013e+00  8.75023800e+00  9.37928989e+00
  1.00525227e+01  1.07488978e+01  1.14473769e+01  1.21269212e+01
  1.27664924e+01  1.33492595e+01  1.38583918e+01  1.42854738e+01
  1.46262979e+01  1.48787602e+01  1.50491723e+01  1.51438457e+01
  1.51754034e+01  1.51522611e+01  1.50891455e+01  1.49965760e+01
  1.48808641e+01  1.47567368e+01  1.46305057e+01  1.45105861e+01
  1.44096011e+01  1.43359663e+01  1.42938893e+01  1.42917854e+01
  1.43317586e+01  1.44096011e+01  1.45168976e+01  1.46410249e+01
  1.47714638e+01  1.48871757e+01  1.49713298e+01  1.50091991e+01
  1.49881606e+01  1.49040065e+01  1.47546329e+01  1.45463516e+01
  1.42896816e+01  1.39993499e+01  1.36900836e+01  1.33766096e+01
  1.30715510e+01  1.27728039e+01  1.24803684e+01  1.21816214e+01
  1.18597319e+01  1.14894539e+01  1.10476449e+01  1.05132664e+01
  9.86738366e+00  9.09737366e+00  8.20113250e+00  7.19128332e+00
  6.08465692e+00  4.90860339e+00  3.69888822e+00  2.49338075e+00
  1.32995034e+00  2.40154759e-01 -7.44448196e-01 -1.60913156e+00
 -2.33916837e+00 -2.93666247e+00 -3.40792542e+00 -3.76558034e+00
 -4.02225034e+00 -4.19476625e+00 -4.30206272e+00 -4.35465903e+00
 -4.36517830e+00 -4.33993207e+00 -4.28523190e+00 -4.20107780e+00
 -4.08536592e+00 -3.93809624e+00 -3.75716493e+00 -3.54046813e+00
 -3.28800583e+00 -3.00188190e+00 -2.68630403e+00 -2.34968763e+00
 -2.00044812e+00 -1.64910476e+00 -1.30617681e+00 -9.82183525e-01
 -6.87644180e-01 -4.26766473e-01 -2.01654259e-01 -1.23075369e-02
  1.49689103e-01  2.92751071e-01  4.23189924e-01  5.55732630e-01
  6.98794598e-01  8.60791238e-01  1.05013796e+00  1.26262706e+00
  1.50036239e+00  1.75703239e+00  2.02422165e+00  2.29351477e+00
  2.55649633e+00  2.80895862e+00  3.04459010e+00  3.26128691e+00
  3.45904904e+00  3.64208420e+00  3.81039240e+00  3.97238904e+00
  4.13228183e+00  4.29638232e+00  4.47100208e+00  4.66455650e+00
  4.88546101e+00  5.13792331e+00  5.43246265e+00  5.76697520e+00
  6.14777249e+00  6.56854299e+00  7.02297512e+00  7.49423807e+00
  7.96339717e+00  8.41362160e+00  8.81756128e+00  9.15838538e+00
  9.41505538e+00  9.57915587e+00  9.64227145e+00  9.60860981e+00
  9.48448251e+00  9.28461653e+00  9.02163497e+00  8.71447251e+00]","[ -2.63452704  -2.19524008  -1.83498801  -1.5500948   -1.32953231
  -1.1604344   -1.02442086  -0.89943545  -0.76709796  -0.60902817
  -0.40868391  -0.15503705   0.16110252   0.53973479   0.97902175
   1.46977329   2.00463733   2.56523365   3.13869613   3.71032058
   4.26540284   4.78923876   5.27447623   5.71376319   6.09974755
   6.43426732   6.71916054   6.95994126   7.16212354   7.33489749
   7.49296727   7.645523     7.80726882   7.98923287   8.20060526
   8.44873806   8.73363128   9.05344689   9.40083281   9.76108487
  10.11582288  10.44666661  10.73339785  10.95396034  11.09181189
  11.13224835  11.06975564  10.90249576  10.63414473  10.27573068
   9.83828174   9.34201614   8.80163804   8.23736568   7.66574122
   7.09963083   6.55006263   6.02255068   5.52077101   5.04839968
   4.60176064   4.17717785   3.77281328   3.38315289   3.00084457
   2.62405032   2.24541804   1.86310973   1.47344933   1.07276081
   0.66104416   0.23829939  -0.19179746  -0.62557036  -1.05566722
  -1.47289792  -1.86807238  -2.23567653  -2.56835829  -2.85876557
  -3.10689837  -3.31275669  -3.47817856  -3.60867803  -3.70976917
  -3.78329     -3.8365926   -3.86783896  -3.88254312  -3.87886708
  -3.85313479  -3.80534625  -3.73366344  -3.63624834  -3.51493897
  -3.37157335  -3.21534159  -3.05543379  -2.89920202  -2.76502651
  -2.66393537  -2.61063277  -2.61430881  -2.68599162  -2.82935723
  -3.04440566  -3.32746086  -3.67117074  -4.06450718  -4.49644205
  -4.9522712   -5.41912847  -5.88414771  -6.33813884  -6.77558778
  -7.18914244  -7.57696482  -7.94089293  -8.28092677  -8.60074238
  -8.9040158   -9.19442308  -9.47380223  -9.74766732 -10.01418033
 -10.2770173  -10.53250218 -10.78063498 -11.01590164 -11.23646413
 -11.43497037 -11.60774432 -11.75110993 -11.85955316 -11.92939795
 -11.96248232 -11.95513024 -11.91285576 -11.83749691 -11.73089171]",12.840547969414189,7.9890490723968925,4.753185,0.10114999999999963
026,1,1,csm,21b.png,1,1,300,108,300,1,1,345,neu_feedback_onset,7,"[ 3.01090499e-01  1.34213710e-01 -2.13683693e-03 -1.07961142e-01
 -1.79189040e-01 -2.17855613e-01 -2.28031027e-01 -2.15820530e-01
 -1.83259205e-01 -1.38487384e-01 -8.55752314e-02 -2.85929132e-02
  2.43192394e-02  7.31612264e-02  1.11827799e-01  1.38283876e-01
  1.52529455e-01  1.56599621e-01  1.50494372e-01  1.44389124e-01
  1.48459290e-01  1.70845200e-01  2.27827519e-01  3.31616741e-01
  4.94423364e-01  7.28457885e-01  1.03168522e+00  1.40817554e+00
  1.84571834e+00  2.33006804e+00  2.84087382e+00  3.35574977e+00
  3.84823981e+00  4.29392294e+00  4.67651850e+00  4.97567567e+00
  5.18732428e+00  5.30739417e+00  5.34402566e+00  5.30332400e+00
  5.19953478e+00  5.04893865e+00  4.86578120e+00  4.66023784e+00
  4.44451906e+00  4.22065996e+00  3.99273068e+00  3.75869616e+00
  3.51652131e+00  3.26010088e+00  2.98536470e+00  2.69231278e+00
  2.38298020e+00  2.06143711e+00  1.73785895e+00  1.42852637e+00
  1.14564986e+00  9.11615337e-01  7.40668382e-01  6.51124739e-01
  6.55194905e-01  7.65089376e-01  9.78773069e-01  1.30031615e+00
  1.71954321e+00  2.22424374e+00  2.79610200e+00  3.41680225e+00
  4.06192350e+00  4.70500966e+00  5.31756958e+00  5.87925243e+00
  6.36563722e+00  6.75433803e+00  7.03314438e+00  7.19188083e+00
  7.23054741e+00  7.15321426e+00  6.97209189e+00  6.70753113e+00
  6.38395297e+00  6.02577839e+00  5.66556874e+00  5.32774500e+00
  5.03672816e+00  4.80879888e+00  4.65413259e+00  4.57272928e+00
  4.56255387e+00  4.61139585e+00  4.70093950e+00  4.81490413e+00
  4.93293893e+00  5.04079832e+00  5.12220163e+00  5.16697346e+00
  5.17104362e+00  5.13034197e+00  5.04690357e+00  4.92683369e+00
  4.77216739e+00  4.59308011e+00  4.39364199e+00  4.17792322e+00
  3.95406411e+00  3.72206467e+00  3.48599507e+00  3.24585530e+00
  3.00368045e+00  2.76150559e+00  2.51933074e+00  2.27715589e+00
  2.03498104e+00  1.79077110e+00  1.54859625e+00  1.30438632e+00
  1.06221146e+00  8.18001528e-01  5.75826676e-01  3.31616741e-01
  8.94418887e-02 -1.52732964e-01 -3.96942899e-01 -6.39117751e-01
 -8.83327686e-01 -1.12550254e+00 -1.36971247e+00 -1.61188733e+00
 -1.85406218e+00 -2.09827211e+00 -2.34044697e+00 -2.58262182e+00
 -2.82276159e+00 -3.06290136e+00 -3.30100604e+00 -3.53504056e+00
 -3.76296984e+00 -3.98275878e+00 -4.19237231e+00 -4.38977534e+00
 -4.56886262e+00 -4.72963416e+00 -4.86801979e+00 -4.98401951e+00
 -5.07966840e+00 -5.15293138e+00 -5.20991370e+00 -5.25468552e+00
 -5.28521177e+00 -5.30759768e+00 -5.31980817e+00 -5.31980817e+00
 -5.30352751e+00 -5.26689602e+00 -5.20584354e+00 -5.12037006e+00
 -5.01047559e+00 -4.88430046e+00 -4.74998499e+00 -4.61770461e+00
 -4.50373997e+00 -4.42233666e+00 -4.38774025e+00 -4.40605600e+00
 -4.48745931e+00 -4.63398527e+00 -4.83952863e+00 -5.09594907e+00
 -5.39510624e+00 -5.71868440e+00 -6.04836781e+00 -6.36991089e+00
 -6.66092773e+00 -6.90513767e+00 -7.08626004e+00 -7.19208434e+00
 -7.20836500e+00 -7.13306694e+00 -6.95601474e+00 -6.67924348e+00
 -6.30682333e+00 -5.84078937e+00 -5.28724685e+00 -4.65840627e+00
 -3.96037287e+00 -3.20332207e+00 -2.39946437e+00 -1.56101026e+00
 -6.96100069e-01  1.76950449e-01  1.05000097e+00  1.90473574e+00
  2.72894427e+00  3.51041606e+00  4.24304587e+00  4.91665827e+00
  5.53125328e+00  6.08683088e+00  6.58949633e+00  7.04738996e+00
  7.47068718e+00  7.86956340e+00  8.24808880e+00  8.61440371e+00
  8.97054319e+00  9.31243710e+00  9.62991002e+00  9.91685669e+00
  1.01569965e+01  1.03381188e+01  1.04459782e+01  1.04703992e+01
  1.04073116e+01  1.02546804e+01  1.00145407e+01  9.69910283e+00
  9.31854235e+00  8.89117497e+00  8.43531642e+00  7.97538771e+00
  7.52766949e+00  7.11658277e+00  6.75840820e+00  6.46739136e+00
  6.25777783e+00  6.13974303e+00  6.11532204e+00  6.19062010e+00
  6.36360214e+00  6.62612782e+00  6.97209189e+00  7.38724878e+00
  7.85735291e+00  8.36205344e+00  8.87896447e+00  9.38570008e+00
  9.85376913e+00  1.02648558e+01  1.05965743e+01  1.08306089e+01
  1.09608542e+01  1.09791699e+01  1.08916614e+01  1.07044337e+01
  1.04317326e+01  1.00898387e+01  9.69503267e+00  9.26359512e+00
  8.80977165e+00  8.34170261e+00  7.87159849e+00  7.39742420e+00
  6.92324991e+00  6.44907561e+00  5.97490132e+00  5.49869195e+00
  5.02248258e+00  4.54627320e+00  4.07616908e+00  3.61217020e+00]","[-5.55446457 -4.94540784 -4.31168526 -3.65709157 -2.98542153 -2.30805938
 -1.63069722 -0.9647193  -0.31961248  0.29134162  0.86434827  1.38992059
  1.86236646  2.28548064  2.65546837  2.97802178  3.25693561  3.49790198
  3.70661301  3.88876082  4.05003752  4.19613524  4.33464347  4.47125432
  4.61545467  4.77673138  4.96267393  5.1827692   5.44460667  5.75198109
  6.1029951   6.49575131  6.92076286  7.36474814  7.81442554  8.25082133
  8.65875652  9.02305213  9.3342213   9.58467454  9.76871972  9.89015159
  9.95086753  9.95655965  9.91671481  9.83702515  9.72318277  9.58467454
  9.42150046  9.24125003  9.04582061  8.83710958  8.61511694  8.38363743
  8.14456844  7.89790995  7.64555934  7.38941399  7.12947389  6.86953379
  6.60579894  6.34396147  6.08402137  5.82408127  5.56983329  5.32127743
  5.0841058   4.86021579  4.65719688  4.47694644  4.32705398  4.2132116
  4.13921405  4.10126659  4.10126659  4.12972719  4.17716151  4.22649321
  4.2625433   4.26633804  4.21890372  4.10695871  3.91911878  3.65158919
  3.30626731  2.88694788  2.40691251  1.87754544  1.31592304  0.7353269
  0.1452439  -0.44104435 -1.02164049 -1.59085239 -2.14678267 -2.68943135
 -3.22259316 -3.7462681  -4.25855881 -4.76136266 -5.25088489 -5.72712551
 -6.1843924  -6.61699344 -7.02113389 -7.38922425 -7.71746978 -8.00207573
 -8.24114472 -8.4327794  -8.58267186 -8.69461687 -8.77240916 -8.8255356
 -8.85779095 -8.8748673  -8.88245679 -8.88055942 -8.87296993 -8.85968832
 -8.84071459 -8.81415137 -8.7837934  -8.74774331 -8.70600111 -8.65856678
 -8.60733771 -8.55421127 -8.4953927  -8.43657414 -8.37206346 -8.30755278
 -8.23924735 -8.17094192 -8.10263649 -8.03243369 -7.96412827 -7.89772021
 -7.83131216 -7.76680148]",7.84524677322619,7.775956299705234,4.913805000000001,0.10956499999999991
026,1,1,csp,63a.png,1,1,84,310,87,1,1,427,pos_feedback_onset,8,"[ 0.23386872  0.30392632  0.37192339  0.43785995  0.49349392  0.5388253
  0.56561203  0.56767254  0.5388253   0.47288874  0.36780236  0.22562665
  0.05048268 -0.14732699 -0.3616208  -0.57797513 -0.78196635 -0.96329188
 -1.11370965 -1.22291707 -1.29091415 -1.31357984 -1.29503518 -1.23940121
 -1.15079897 -1.03747051 -0.90353688 -0.75517963 -0.60064082 -0.44610202
 -0.29568425 -0.15556906 -0.03605905  0.06284578  0.13084285  0.16587165
  0.16381113  0.13084285  0.06696682 -0.0175144  -0.1122982  -0.20090045
 -0.26271597 -0.28332114 -0.24005028 -0.11847975  0.09993509  0.42137581
  0.84996343  1.38157691  2.00385317  2.70236856  3.45033638  4.22096989
  4.98542184  5.71690551  6.3906947   6.98412371  7.48482944  7.88869085
  8.19364742  8.40588072  8.5336328   8.58926676  8.58308521  8.52539073
  8.42236486  8.28018916  8.09886362  7.88044878  7.62288411  7.32823012
  6.99648682  6.63383576  6.24645849  5.84259708  5.43461463  5.03693477
  4.65986009  4.3178142   4.01697866  3.76559554  3.56366484  3.40912603
  3.29579757  3.2154374   3.15980343  3.11447204  3.07120118  3.0258698
  2.97229634  2.90429927  2.82599961  2.73739736  2.63849253  2.53340614
  2.4221382   2.30880974  2.19342077  2.07597128  1.95646127  1.82870919
  1.69477556  1.54847882  1.38363743  1.20025138  0.99419964  0.7634217
  0.50997806  0.23592924 -0.05460371 -0.35749977 -0.66245634 -0.9653524
 -1.26000639 -1.54023675 -1.80810401 -2.05948714 -2.29850716 -2.52722459
 -2.74976046 -2.96817531 -3.18452964 -3.39676293 -3.60075415 -3.79238227
 -3.96340521 -4.10352039 -4.20242523 -4.25599868 -4.25393816 -4.19830419
 -4.08909677 -3.93661848 -3.74499037 -3.53069656 -3.30403964 -3.07532221
 -2.85484685 -2.65085563 -2.46540906 -2.30056767 -2.15633145 -2.03476093
 -1.92967454 -1.84519333 -1.77719625 -1.72980435 -1.70095711 -1.69271504
 -1.70301763 -1.72980435 -1.76689367 -1.81428557 -1.86373798 -1.90700885
 -1.94409816 -1.96882437 -1.97912696 -1.98118748 -1.97500592 -1.96882437
 -1.97294541 -1.99149006 -2.03476093 -2.10481852 -2.20166284 -2.32117285
 -2.45922751 -2.60140321 -2.73327633 -2.84248375 -2.91460186 -2.93520703
 -2.89811772 -2.79715236 -2.63643201 -2.4221382  -2.16663404 -1.88022212
 -1.5814471  -1.2847326  -0.99832068 -0.73663497 -0.49967547 -0.29156321
 -0.10405613  0.06284578  0.22150562  0.36986287  0.51409909  0.65421427
  0.77784532  0.88087119  0.94886826  0.96947343  0.9303236   0.8231767
  0.64391169  0.3966496   0.09169302 -0.25653442 -0.62330651 -0.98389706
 -1.31151932 -1.57732607 -1.7586516  -1.83901178 -1.80810401 -1.66180728
 -1.41042416 -1.06425723 -0.63979065 -0.16381113  0.34719718  0.8705686
  1.38775847  1.88434316  2.35002009  2.77448667  3.15156136  3.47712311
  3.74499037  3.95104211  4.09115729  4.16739643  4.18182006  4.14267022
  4.06024953  3.95722366  3.84801624  3.76147451  3.71820364  3.73262726
  3.82329003  3.98813142  4.22715144  4.52386594  4.8617908   5.21619979
  5.56030619  5.87350484  6.13519055  6.33712125  6.47929695  6.5678992
  6.62559369  6.67092507  6.73480111  6.84606905  7.0294551   7.30762494
  7.68676015  8.17716329  8.76441074  9.43819993 10.16968361 10.92795401
 11.67798234 12.38061877]","[ -0.29238059  -0.24926456  -0.23848555  -0.25465406  -0.28878759
  -0.33370012  -0.37681615  -0.40915317  -0.42352518  -0.41094968
  -0.36603714  -0.28699108  -0.172015    -0.02649839   0.14955873
   0.34717388   0.56275404   0.7891132    1.02265837   1.25800004
   1.49334172   1.72688689   1.96043206   2.19218073   2.4275224
   2.67005008   2.91976376   3.18205295   3.45871415   3.74974737
   4.05335609   4.36594732   4.67674204   4.97855427   5.25521547
   5.49415014   5.67918978   5.79596236   5.83368889   5.77979385
   5.63427725   5.39354607   5.06119333   4.64799802   4.15934967
   3.60962026   3.01138533   2.37362736   1.71071838   1.03164088
   0.34537738  -0.33549662  -1.00738811  -1.65772159  -2.28290404
  -2.87215648  -3.42368238  -3.93029575  -4.38840358  -4.79980238
  -5.16269565  -5.47887988  -5.75733759  -5.99986526  -6.21185242
  -6.40048506  -6.57115268  -6.72744829  -6.8747614   -7.01668501
  -7.15321911  -7.2861602   -7.4191013   -7.5502459   -7.67959399
  -7.81073859  -7.94008668  -8.07123128  -8.20057937  -8.33172397
  -8.46107206  -8.59042016  -8.72156475  -8.85091285  -8.98205744
  -9.11140554  -9.24075363  -9.37010173  -9.50124632  -9.62879792
  -9.75634951  -9.8839011  -10.00785969 -10.12822528 -10.24140486
 -10.34919494 -10.44440951 -10.52704857 -10.59531562 -10.64382116
 -10.67076868 -10.67795468 -10.66717568 -10.63843165 -10.59711212
 -10.55219959 -10.51088006 -10.48033954 -10.47495003 -10.50010105
 -10.5683681  -10.68514069 -10.85580831 -11.08576048 -11.37320069
 -11.71453594 -12.10617323 -12.53733354 -12.99903438 -13.48229323
 -13.97453459 -14.46857246 -14.95542431 -15.42970066 -15.88780849
 -16.32795131 -16.75012912 -17.15613842 -17.55136871 -17.93581999
 -18.31128877 -18.68316454 -19.0478543  -19.40535807 -19.75028632
 -20.07904606 -20.38624778 -20.66111248 -20.90004716 -21.0940693 ]",7.743179074170259,2.536075992005588,4.853150000000001,0.2157549999999988
026,1,1,csm,19b.png,1,1,256,249,260,1,1,246,neu_feedback_onset,9,"[ 7.90402619e-01  7.05990689e-01  6.29252571e-01  5.57630327e-01
  4.96239832e-01  4.42523149e-01  3.93922341e-01  3.47879470e-01
  3.04394536e-01  2.53235791e-01  1.91845296e-01  1.12549240e-01
  1.27896864e-02 -1.15107178e-01 -2.73699289e-01 -4.62986648e-01
 -6.88085128e-01 -9.43878856e-01 -1.22525196e+00 -1.52964649e+00
 -1.84938865e+00 -2.17424669e+00 -2.49654678e+00 -2.80605720e+00
 -3.09510411e+00 -3.35857165e+00 -3.58878600e+00 -3.78318924e+00
 -3.93410754e+00 -4.04665678e+00 -4.11316315e+00 -4.14130046e+00
 -4.12595283e+00 -4.07479409e+00 -3.99038216e+00 -3.87015910e+00
 -3.72435668e+00 -3.55041694e+00 -3.35601371e+00 -3.14626285e+00
 -2.92116437e+00 -2.68583414e+00 -2.44538804e+00 -2.20238400e+00
 -1.95937996e+00 -1.72149179e+00 -1.48616156e+00 -1.25850514e+00
 -1.03596460e+00 -8.21097867e-01 -6.11347010e-01 -4.06712027e-01
 -2.04634982e-01 -5.11587456e-03  1.96961171e-01  3.99038216e-01
  6.06231135e-01  8.15981992e-01  1.03084872e+00  1.25083133e+00
  1.47592981e+00  1.70102829e+00  1.92868471e+00  2.15634113e+00
  2.38143961e+00  2.60653809e+00  2.82652069e+00  3.04650330e+00
  3.26648591e+00  3.49158439e+00  3.72179874e+00  3.96480278e+00
  4.21803857e+00  4.48662199e+00  4.77055303e+00  5.06215788e+00
  5.35632066e+00  5.64792551e+00  5.92418274e+00  6.17230266e+00
  6.38205351e+00  6.54576150e+00  6.65575280e+00  6.70691155e+00
  6.70179567e+00  6.64552105e+00  6.54576150e+00  6.41274876e+00
  6.26183046e+00  6.10323835e+00  5.95743592e+00  5.82953906e+00
  5.73745332e+00  5.68885251e+00  5.68885251e+00  5.74256919e+00
  5.85256050e+00  6.01626848e+00  6.23625109e+00  6.50739244e+00
  6.82201872e+00  7.18012994e+00  7.57149435e+00  7.99099606e+00
  8.43351921e+00  8.89394792e+00  9.36205044e+00  9.83782678e+00
  1.03161610e+01  1.07868215e+01  1.12498082e+01  1.17000051e+01
  1.21322965e+01  1.25441244e+01  1.29278150e+01  1.32859262e+01
  1.36107843e+01  1.39049471e+01  1.41684146e+01  1.44011869e+01
  1.46058219e+01  1.47899933e+01  1.49562593e+01  1.51148514e+01
  1.52708856e+01  1.54320356e+01  1.56034174e+01  1.57927048e+01
  1.59998977e+01  1.62249962e+01  1.64628843e+01  1.67058884e+01
  1.69463345e+01  1.71714330e+01  1.73683941e+01  1.75269862e+01
  1.76369775e+01  1.76906942e+01  1.76855783e+01  1.76216299e+01
  1.75039648e+01  1.73428148e+01  1.71484115e+01  1.69335448e+01
  1.67110042e+01  1.64910216e+01  1.62838287e+01  1.60970993e+01
  1.59308334e+01  1.57824730e+01  1.56494603e+01  1.55241213e+01
  1.54013404e+01  1.52708856e+01  1.51250831e+01  1.49639331e+01
  1.47823195e+01  1.45802425e+01  1.43628178e+01  1.41351614e+01
  1.39023891e+01  1.36772906e+01  1.34675398e+01  1.32833683e+01
  1.31273341e+01  1.30122269e+01  1.29329309e+01  1.28971198e+01
  1.28945618e+01  1.29201412e+01  1.29661841e+01  1.30224587e+01
  1.30761754e+01  1.31196603e+01  1.31401238e+01  1.31324500e+01
  1.30915230e+01  1.30199008e+01  1.29150253e+01  1.27820126e+01
  1.26285363e+01  1.24597125e+01  1.22780989e+01  1.20964854e+01
  1.19148718e+01  1.17460480e+01  1.15900138e+01  1.14544431e+01
  1.13495677e+01  1.12779455e+01  1.12498082e+01  1.12677137e+01
  1.13418939e+01  1.14774646e+01  1.16769837e+01  1.19404512e+01
  1.22653093e+01  1.26541157e+01  1.30966389e+01  1.35877628e+01
  1.41198138e+01  1.46876759e+01  1.52785594e+01  1.58899064e+01
  1.65114851e+01  1.71381798e+01  1.77674323e+01  1.83890111e+01
  1.89952422e+01  1.95784519e+01  2.01207346e+01  2.06067427e+01
  2.10185706e+01  2.13383128e+01  2.15429478e+01  2.16248018e+01
  2.15762010e+01  2.14022612e+01  2.11132143e+01  2.07295237e+01
  2.02844426e+01  1.98061084e+01  1.93252161e+01  1.88775771e+01
  1.84836548e+01  1.81613547e+01  1.79209086e+01  1.77648744e+01
  1.76881363e+01  1.76830204e+01  1.77341792e+01  1.78339387e+01
  1.79669515e+01  1.81255436e+01  1.83020412e+01  1.84862127e+01
  1.86780580e+01  1.88724612e+01  1.90668645e+01  1.92587098e+01
  1.94505551e+01  1.96398424e+01  1.98265719e+01  2.00081854e+01
  2.01897989e+01  2.03662966e+01  2.05427943e+01  2.07167340e+01
  2.08881158e+01  2.10594976e+01  2.12308794e+01  2.13971453e+01
  2.15659692e+01  2.17296772e+01  2.18933852e+01  2.20494193e+01
  2.22028956e+01  2.23486980e+01  2.24868266e+01  2.26147235e+01]","[-1.04679373e+00 -7.99221241e-01 -6.00489587e-01 -4.47230430e-01
 -3.34391271e-01 -2.50182943e-01 -1.89552946e-01 -1.40712116e-01
 -9.69237856e-02 -4.97671219e-02  2.44204151e-03  6.47562043e-02
  1.37175366e-01  2.19699528e-01  3.10644522e-01  4.10010349e-01
  5.17797009e-01  6.34004502e-01  7.60316994e-01  8.98418652e-01
  1.04662531e+00  1.20830530e+00  1.38345862e+00  1.56703278e+00
  1.75902776e+00  1.95102275e+00  2.13964941e+00  2.31817106e+00
  2.47816689e+00  2.61795271e+00  2.73079187e+00  2.81500020e+00
  2.86720936e+00  2.88573519e+00  2.87057769e+00  2.82005270e+00
  2.73416020e+00  2.61458438e+00  2.46132522e+00  2.27775107e+00
  2.06723024e+00  1.83818359e+00  1.59397944e+00  1.34303862e+00
  1.09378197e+00  8.47893655e-01  6.12110336e-01  3.89800350e-01
  1.79279530e-01 -1.94521238e-02 -2.04710445e-01 -3.83232101e-01
 -5.53332924e-01 -7.20065413e-01 -8.81745403e-01 -1.04005706e+00
 -1.19836872e+00 -1.35499621e+00 -1.50993953e+00 -1.66656702e+00
 -1.81982618e+00 -1.97308533e+00 -2.12297616e+00 -2.27118282e+00
 -2.41265281e+00 -2.54907030e+00 -2.67706696e+00 -2.79664278e+00
 -2.90274528e+00 -2.99874277e+00 -3.08463526e+00 -3.16210693e+00
 -3.23957859e+00 -3.32210275e+00 -3.41978441e+00 -3.54272857e+00
 -3.70104023e+00 -3.90650855e+00 -4.16418603e+00 -4.48249351e+00
 -4.86143099e+00 -5.29763013e+00 -5.78603843e+00 -6.31823506e+00
 -6.88243086e+00 -7.46515249e+00 -8.05461078e+00 -8.64070075e+00
 -9.20994905e+00 -9.75898734e+00 -1.02810790e+01 -1.07762239e+01
 -1.12410539e+01 -1.16823056e+01 -1.20982947e+01 -1.24923897e+01
 -1.28679588e+01 -1.32250021e+01 -1.35601513e+01 -1.38750904e+01
 -1.41613987e+01 -1.44190762e+01 -1.46397020e+01 -1.48182237e+01
 -1.49529570e+01 -1.50371653e+01 -1.50708487e+01 -1.50556912e+01
 -1.49950612e+01 -1.48923270e+01 -1.47525412e+01 -1.45858087e+01
 -1.44005504e+01 -1.42035029e+01 -1.40047712e+01 -1.38127763e+01
 -1.36359388e+01 -1.34809954e+01 -1.33546830e+01 -1.32586855e+01
 -1.31946871e+01 -1.31610038e+01 -1.31525830e+01 -1.31626880e+01
 -1.31828980e+01 -1.32031080e+01 -1.32182655e+01 -1.32199496e+01
 -1.32047921e+01 -1.31694246e+01 -1.31188996e+01 -1.30515330e+01
 -1.29723771e+01 -1.28864846e+01 -1.27955397e+01 -1.27012263e+01
 -1.26085972e+01 -1.25176522e+01 -1.24283913e+01 -1.23408147e+01]",21.022224820761675,1.4525515544436107,3.9094,0.7168099999999988
026,1,1,csp,28a.png,1,1,196,68,194,1,1,380,pos_feedback_onset,10,"[nan nan nan nan nan nan nan nan nan nan nan nan nan nan nan nan nan nan
 nan nan nan nan nan nan nan nan nan nan nan nan nan nan nan nan nan nan
 nan nan nan nan nan nan nan nan nan nan nan nan nan nan nan nan nan nan
 nan nan nan nan nan nan nan nan nan nan nan nan nan nan nan nan nan nan
 nan nan nan nan nan nan nan nan nan nan nan nan nan nan nan nan nan nan
 nan nan nan nan nan nan nan nan nan nan nan nan nan nan nan nan nan nan
 nan nan nan nan nan nan nan nan nan nan nan nan nan nan nan nan nan nan
 nan nan nan nan nan nan nan nan nan nan nan nan nan nan nan nan nan nan
 nan nan nan nan nan nan nan nan nan nan nan nan nan nan nan nan nan nan
 nan nan nan nan nan nan nan nan nan nan nan nan nan nan nan nan nan nan
 nan nan nan nan nan nan nan nan nan nan nan nan nan nan nan nan nan nan
 nan nan nan nan nan nan nan nan nan nan nan nan nan nan nan nan nan nan
 nan nan nan nan nan nan nan nan nan nan nan nan nan nan nan nan nan nan
 nan nan nan nan nan nan nan nan nan nan nan nan nan nan nan nan nan nan
 nan nan nan nan nan nan nan nan]","[-3.13116027 -2.92354929 -2.71797372 -2.50832734 -2.28443315 -2.04425574
 -1.77558271 -1.47637865 -1.14053737 -0.76398804 -0.34673069  0.11123471
  0.60990813  1.14114799  1.70495427  2.29114997  2.89362889  3.50832021
  4.12301154  4.72956126  5.32186317  5.88974025  6.42098011  6.91151193
  7.3491233   7.73177883  8.0533723   8.31390373  8.5154085   8.66195743
  8.76779832  8.84310818  8.90417023  8.96930309  9.05478996  9.17691407
  9.34381701  9.5677112   9.84656124 10.17629632 10.54877484 10.95178439
 11.36293554 11.77001589 12.14860061 12.4885127  12.77143354 12.99329233
 13.14798287 13.23550514 13.26400077 13.23957594 13.17037229 13.06453139
 12.93426568 12.78161055 12.61470761 12.43762766 12.2503707  12.05700753
 11.85346736 11.64178558 11.41992679 11.18585559 10.93550117 10.67293435
 10.39204891 10.09488025  9.78142838  9.4537287   9.11178121  8.75558591
  8.39124899  8.01877047  7.64222115  7.26567183  6.89115791  6.5247856
  6.16655489  5.82257199  5.49283691  5.17938504  4.88221639  4.59929555
  4.32451631  4.05380788  3.77902865  3.4981432   3.20300995  2.89566429
  2.57407081  2.24026493  1.90442364  1.57265316  1.24902428  0.94371402
  0.65875777  0.40229715  0.17026136 -0.03531422 -0.21850038 -0.38133252
 -0.52381064 -0.65000555 -0.76195264 -0.85965193 -0.93699719 -0.99602384
 -1.02859027 -1.03266107 -1.00213005 -0.93699719 -0.8331917  -0.69681979
 -0.53398765 -0.3569077  -0.17982774 -0.01903101  0.1051285   0.17433216
  0.17026136  0.08273908 -0.09841167 -0.37319091 -0.73956322 -1.1832808
 -1.69213124 -2.24779591 -2.83195621 -3.42222272 -4.00231222 -4.55594149
 -5.07089813 -5.53904053 -5.95426249 -6.31249319 -6.61373265 -6.86205166
 -7.05948563 -7.20806996]",,11.232873366462915,5.359214999999999,0.2632999999999992
026,1,1,csm,25b.png,1,1,280,353,285,1,1,408,neu_feedback_onset,11,"[ 2.27041606  1.8759684   1.49631253  1.14130964  0.81589032  0.52251988
  0.26366361  0.0393215  -0.15297173 -0.31814669 -0.45620337 -0.57453766
 -0.67314958 -0.759435   -0.83092864 -0.88763049 -0.92954055 -0.95419353
 -0.95665883 -0.93200585 -0.8777693  -0.78655328 -0.65589249 -0.48332164
 -0.27130603 -0.01984565  0.2685942   0.58168703  0.91203694  1.25224804
  1.59245915  1.92527436  2.24329778  2.54159882  2.82017748  3.08149905
  3.32309824  3.54990564  3.76931715  3.97886747  4.18841778  4.3955028
  4.60012253  4.80227695  4.99950078  5.18932871  5.37176075  5.53940101
  5.69224947  5.83030615  5.95603634  6.06944004  6.17298255  6.27405977
  6.37267168  6.47621419  6.58715259  6.70795219  6.84107827  6.98899614
  7.1517058   7.32674195  7.51410459  7.70886312  7.90608694  8.10331077
  8.2980693   8.48296664  8.66293338  8.83057364  8.990818    9.14120117
  9.28665374  9.42471042  9.55537121  9.6811014   9.80190099  9.91530469
 10.0188472  10.11252852 10.19388335 10.25798109 10.30975235 10.34673182
 10.37385009 10.39110718 10.40343367 10.42315605 10.45027433 10.49464969
 10.55628213 10.63763696 10.73624888 10.85211788 10.97291747 11.09618236
 11.20958606 11.31066328 11.39201811 11.44625466 11.47583823 11.47583823
 11.45118525 11.4018793  11.33038566 11.23670434 11.12576594 11.00250104
 10.86197907 10.7091306  10.54149035 10.3615236  10.16429978  9.94981886
  9.71561557  9.45922459  9.17818063  8.8700184   8.53720319  8.17973501
  7.80007914  7.40809678  7.00871853  6.61427087  6.2321497   5.87961211
  5.55912339  5.28794063  5.06606382  4.90088886  4.78995046  4.73078331
  4.71599152  4.7381792   4.78995046  4.8565135   4.93293774  5.00936197
  5.08085561  5.14495335  5.2016552   5.24849586  5.29040592  5.32738539
  5.36436486  5.40380962  5.44571969  5.49749094  5.55419279  5.62322113
  5.70211066  5.79332669  5.8944039   6.0053423   6.1236766   6.25433738
  6.38992877  6.53045074  6.67590332  6.82135589  6.96927376  7.11472633
  7.25278301  7.3859091   7.50917399  7.6151818   7.70639782  7.77789146
  7.82473211  7.8469198   7.8469198   7.82473211  7.78282205  7.7261202
  7.66202246  7.59299412  7.52643107  7.46479863  7.41302737  7.36865201
  7.33906844  7.31688076  7.30455427  7.29962367  7.30208897  7.30948486
  7.32674195  7.34892963  7.3809785   7.42535386  7.48452101  7.56341054
  7.66448775  7.79268324  7.9529276   8.14522084  8.37449354  8.6407457
  8.94151204  9.27679255  9.63919133 10.0262431  10.43301724 10.85458317
 11.2860103  11.72236802 12.16365633 12.60247935 13.04130237 13.47519479
 13.90169132 14.31339606 14.71277431 15.09489548 15.45482896 15.79257477
 16.11306349 16.41382983 16.69980438 16.97345244 17.23723931 17.49116499
 17.73769477 17.97189807 18.19130958 18.3909987  18.56110426 18.69669564
 18.79284225 18.84461351 18.8520094  18.81749523 18.7435363  18.63752849
 18.50440241 18.35155394 18.18144839 17.99655105 17.79686192 17.57991571
 17.34817771 17.09425203 16.81813868 16.52476823 16.216606   15.90104787
 15.59042035 15.2995152  15.04065892 14.82617801 14.66346835 14.55746055
 14.50568929 14.4982934  14.52048108 14.55006465 14.56732174 14.55252995
 14.48843221 14.36270202]","[  0.26816955   0.03364522  -0.19005491  -0.3903026   -0.56348979
  -0.70420439  -0.81064235  -0.87919562  -0.90625612  -0.88821578
  -0.81966252  -0.69518422  -0.5093688   -0.25680414   0.06431379
   0.45218094   0.90318926   1.40831858   1.95494066   2.52862324
   3.11673809   3.70124487   4.26771132   4.80892131   5.31224659
   5.77227508   6.18720273   6.55342148   6.86732327   7.13071213
   7.33997999   7.49512686   7.59434869   7.63944952   7.63584145
   7.58713255   7.49873492   7.38327679   7.24617026   7.09463147
   6.93407251   6.77170951   6.60213038   6.42894319   6.24673583
   6.0555083    5.85165254   5.63697258   5.41146842   5.18235619
   4.95324397   4.72773981   4.51305985   4.31100812   4.12338866
   3.9520055    3.7950546    3.65073194   3.51542945   3.38553905
   3.25384462   3.12034616   2.9760235    2.81546453   2.63686524
   2.43300948   2.20389725   1.94411646   1.6536671    1.33796128
   0.99699899   0.6343883    0.25914938  -0.12510971  -0.51297686
  -0.90264805  -1.28690714  -1.66575413  -2.03918901  -2.4072118
  -2.76801846  -3.12341301  -3.4751995   -3.82337793  -4.16794828
  -4.50710654  -4.84265673  -5.17099078  -5.49571677  -5.8114226
  -6.11991229  -6.41938181  -6.71343924  -6.99847649  -7.27810165
  -7.55051068  -7.81931164  -8.08450453  -8.34789339  -8.60947821
  -8.869259    -9.13084383  -9.39062462  -9.65040541  -9.9101862
 -10.17177103 -10.43155182 -10.69133261 -10.9511134  -11.2108942
 -11.46887095 -11.72684771 -11.98662851 -12.24821333 -12.51160219
 -12.78040315 -13.05461621 -13.33424136 -13.62108265 -13.91333605
 -14.21100154 -14.51227509 -14.81535268 -15.11662624 -15.41429173
 -15.70834916 -15.99699448 -16.27842367 -16.55263673 -16.81602559
 -17.06678621 -17.30491861 -17.52501067 -17.72706239 -17.90566169
 -18.06261258 -18.19250298 -18.29894094 -18.38373051 -18.44687167]",17.03767344911194,5.265071119501863,4.056305,
026,1,1,csp,9a.png,1,1,260,223,262,1,1,240,pos_feedback_onset,12,"[-1.16594404 -1.1594225  -1.13116246 -1.08333777 -1.0094269  -0.90942983
 -0.78334658 -0.63552483 -0.46596459 -0.27901355 -0.07901942  0.13401781
  0.35357658  0.5753092   0.79486798  1.0079052   1.20789933  1.39267652
  1.55136751  1.68397232  1.78179553  1.84266331  1.86222796  1.84266331
  1.78396938  1.69266772  1.57310601  1.42963196  1.27528866  1.11007612
  0.94703742  0.78834643  0.64269853  0.51226757  0.40140126  0.31662114
  0.26444876  0.24705797  0.26879646  0.32966424  0.43618285  0.5840046
  0.77095563  0.99486211  1.25137632  1.53397672  1.83614177  2.15787145
  2.48829654  2.82959087  3.1752329   3.52522263  3.87521236  4.22302824
  4.56649642  4.90344305  5.23169429  5.54255473  5.83167668  6.09253859
  6.31427121  6.490353    6.60774086  6.66208709  6.6446963   6.54904693
  6.37948669  6.13601557  5.82515513  5.45777461  5.0469171   4.60345186
  4.13824812  3.66652283  3.19262369  2.72307226  2.26221622  1.81005557
  1.36876418  0.93616818  0.51009373  0.09488852 -0.31379514 -0.71160955
 -1.09420702 -1.45941369 -1.80288187 -2.11591616 -2.39416887 -2.62894459
 -2.81589562 -2.95502197 -3.04197594 -3.08110523 -3.07675753 -3.03545439
 -2.96154352 -2.86154645 -2.74198475 -2.60503224 -2.45068895 -2.28112871
 -2.09200382 -1.88331429 -1.65506012 -1.40941516 -1.1507271  -0.88334364
 -0.62030788 -0.37031522 -0.14640875  0.03836844  0.17966864  0.26444876
  0.2927088   0.26662261  0.18619019  0.06228078 -0.09858406 -0.2811874
 -0.47900768 -0.67900181 -0.87247439 -1.05073003 -1.21376873 -1.35289508
 -1.47245679 -1.57245385 -1.65288627 -1.71810175 -1.77244798 -1.81592497
 -1.8528804  -1.88548814 -1.91157433 -1.93548668 -1.95070362 -1.96157287
 -1.96592057 -1.96157287 -1.94852977 -1.92679128 -1.90070509 -1.8702712
 -1.83766346 -1.80722957 -1.78549108 -1.77244798 -1.77462183 -1.79418647
 -1.82896806 -1.88331429 -1.95070362 -2.03113604 -2.12026386 -2.20939168
 -2.29634565 -2.37677807 -2.4441674  -2.49633978 -2.53112137 -2.54851216
 -2.54633831 -2.53112137 -2.49851363 -2.45503665 -2.40069041 -2.33547494
 -2.26156406 -2.17678394 -2.08330842 -1.97461596 -1.8528804  -1.71375405
 -1.55506306 -1.37680742 -1.17029174 -0.93768987 -0.67030641 -0.36814137
 -0.02684704  0.35140273  0.76878179  1.21659473  1.67962462  2.14265451
  2.58611976  2.97958647  3.29696846  3.51435338  3.6078289   3.56217807
  3.36870548  3.02741115  2.55351202  1.96439887  1.29267945  0.56878766
 -0.17466879 -0.90508213 -1.5920185  -2.21373938 -2.75720169 -3.21588388
 -3.58543825 -3.87673405 -4.09411898 -4.25498382 -4.37019783 -4.4528041
 -4.51801958 -4.57453966 -4.63323359 -4.69627522 -4.77235994 -4.85931391
 -4.95713713 -5.06582959 -5.1810436  -5.30060531 -5.42016702 -5.53538103
 -5.64189964 -5.73537516 -5.81363373 -5.87667536 -5.91580464 -5.93319544
 -5.92232619 -5.88537076 -5.81798143 -5.72015821 -5.59190111 -5.43321011
 -5.24625908 -5.0353957  -4.80061998 -4.54845347 -4.28107001 -4.00064346
 -3.70717381 -3.40283492 -3.09197447 -2.77241864 -2.45068895 -2.12678541
 -1.80505572 -1.49202143 -1.18985638 -0.90073443 -0.62900328 -0.37031522
 -0.1268441   0.10358392  0.32314269  0.53617992  0.74052175  0.94268973
  1.14051001  1.33615644]","[-0.01817714  0.12193829  0.19388945  0.20335671  0.15791387  0.074602
 -0.03332475 -0.1488253  -0.2548586  -0.34195737 -0.39497402 -0.41201509
 -0.38550676 -0.3173425  -0.2075223  -0.05983307  0.12193829  0.33021797
  0.56121908  0.80926125  1.06487723  1.32428011  1.57800264  1.82415135
  2.05325901  2.26343215  2.44899041  2.61182726  2.75194268  2.86933669
  2.96968963  3.05868185  3.14199373  3.2253056   3.31240438  3.41275732
  3.52447097  3.65322568  3.79902146  3.95996486  4.13605586  4.32161413
  4.50906585  4.69462411  4.86503476  5.00893709  5.11686384  5.17177394
  5.16230668  5.07710135  4.9029038   4.63592711  4.27049093  3.81606253
  3.2764288   2.67431116  2.02675069  1.36214914  0.70512141  0.08596271
 -0.47260554 -0.94975537 -1.33412606 -1.61814381 -1.80748898 -1.91162882
 -1.94571095 -1.92866989 -1.8813336  -1.82263659 -1.76772649 -1.72607056
 -1.70713604 -1.71092294 -1.73932472 -1.78666101 -1.85293182 -1.93245679
 -2.02144902 -2.11801506 -2.218368   -2.32250784 -2.42854113 -2.53457443
 -2.64060772 -2.74664102 -2.85456776 -2.96060106 -3.0685278  -3.17645455
 -3.28248784 -3.39041459 -3.49644788 -3.60437463 -3.71040793 -3.81833467
 -3.92626142 -4.03229471 -4.14022146 -4.24625475 -4.3541815  -4.46021479
 -4.56814154 -4.67606829 -4.78210158 -4.89002833 -4.99606162 -5.10398837
 -5.21002166 -5.31794841 -5.42587515 -5.53190845 -5.63983519 -5.74586849
 -5.85379523 -5.95982853 -6.06775528 -6.17568202 -6.28171532 -6.38964206
 -6.49567536 -6.6036021  -6.7096354  -6.81756214 -6.92548889 -7.03152218
 -7.13944893 -7.24548222 -7.35340897 -7.45944226 -7.56736901 -7.67529576
 -7.78132905 -7.8892558  -7.99528909 -8.10321584 -8.20924913 -8.31528243
 -8.42131572 -8.52356211]",3.8291267538887674,2.701766211733335,4.600134999999999,0.4568549999999991
026,1,1,csp,44a.png,1,1,0,168,NaN,0,1,350,neg_feedback_onset,13,"[ -0.54170868  -0.32106601  -0.0509334    0.25631667   0.58624963
   0.92030676   1.22961891   1.4915032    1.67709049   1.75957373
   1.72039419   1.54099314   1.21518434   0.74090571   0.12434348
  -0.62212984  -1.47583138  -2.41407824  -3.40800129  -4.42873139
  -5.44739941  -6.43719829  -7.37338307  -8.2394571   -9.0209858
  -9.70765878 -10.29741394 -10.79025131 -11.1923571  -11.5078555
 -11.74705689 -11.91820962 -12.03368616 -12.10173483 -12.1264798
 -12.11410731 -12.06461737 -11.98419621 -11.86665759 -11.70993944
 -11.51404174 -11.27896451 -11.00264565 -10.68714726 -10.33659348
  -9.95923266  -9.56125102  -9.14883482  -8.73435654  -8.32400242
  -7.9239587   -7.54041163  -7.17336121  -6.82486952  -6.49287448
  -6.17943817  -5.87837434  -5.58762092  -5.3071779   -5.03292112
  -4.76278851  -4.49678006  -4.23489577  -3.97713565  -3.72349968
  -3.47604996  -3.2327244   -2.99970925  -2.77494242  -2.56048599
  -2.35427789  -2.16044228  -1.97485498  -1.80164018  -1.63461162
  -1.47583138  -1.32323738  -1.17682963  -1.03454604  -0.89432453
  -0.75616511  -0.62006776  -0.48397041  -0.34993515  -0.21589988
  -0.08186462   0.04804649   0.17795759   0.30580661   0.42953147
   0.54913217   0.66048455   0.7635886    0.85432016   0.93267924
   0.99247959   1.02753497   1.03578329   1.00691416   0.93474132
   0.80483022   0.60893252   0.33467575  -0.02825051  -0.48809458
  -1.05310477  -1.7232811   -2.4944994   -3.36057342  -4.30294445
  -5.30511582  -6.34440465  -7.39606596  -8.43947895  -9.44989865
 -10.4108284  -11.30783364 -12.13472812 -12.88532561 -13.55550194
 -14.15144335 -14.67108777 -15.12268351 -15.5041685  -15.82172897
 -16.07536494 -16.26713847 -16.40117374 -16.4815949  -16.50840195
 -16.48984322 -16.43416703 -16.34755963 -16.2423935  -16.12691696
 -16.00937834 -15.90215013 -15.80729441 -15.73099741 -15.67325914
 -15.63614168 -15.61552087 -15.60521047 -15.6010863  -15.59490006
 -15.58458966 -15.55984468 -15.52066514 -15.4608648  -15.38044364
 -15.27940167 -15.15773889 -15.0154553  -14.8525509  -14.67727401
 -14.48550048 -14.28341654 -14.07308428 -13.85656577 -13.63386102
 -13.40497003 -13.17195487 -12.93275348 -12.68530375 -12.42754363
 -12.16153518 -11.88109216 -11.58827666 -11.28102659 -10.96140403
 -10.62940899 -10.28504146  -9.92830144  -9.56125102  -9.1838902
  -8.79621897  -8.39823733  -7.99613154  -7.5878395   -7.18160954
  -6.7836279   -6.39801875  -6.03303041  -5.69484913  -5.38759906
  -5.11334228  -4.8720788   -4.65968446  -4.46997301  -4.29469612
  -4.12148132  -3.94208027  -3.75030673  -3.53791239  -3.30695932
  -3.05538543  -2.78937698  -2.51924437  -2.25323592  -1.99959996
  -1.76864688  -1.56656294  -1.39953438  -1.26962328  -1.17476755
  -1.1149672   -1.08403599  -1.07578766  -1.08816015  -1.11084304
  -1.14177426  -1.17270547  -1.20363669  -1.22838166  -1.24487831
  -1.25518871  -1.25518871  -1.24694039  -1.23250582  -1.20776085
  -1.17270547  -1.12940177  -1.07784974  -1.01392523  -0.94381448
  -0.8654554   -0.78503424  -0.70667516  -0.63656441  -0.58088822
  -0.54377076  -0.53139828  -0.54789492  -0.59119863  -0.66130938
  -0.74997886  -0.85308291  -0.96443529  -1.07578766  -1.18507796
  -1.28611993  -1.37891357  -1.46552097  -1.5500663   -1.63461162
  -1.7232811   -1.82432307  -1.94186169  -2.07589695  -2.23261511
  -2.41201616  -2.6141001   -2.84092901  -3.08631665  -3.35026302
  -3.63276812  -3.9276457   -4.23283369  -4.54833209  -4.87001672]","[-2.18461672 -1.87021225 -1.56569472 -1.27501888 -1.00016215 -0.74705666
 -0.51570243 -0.30609945 -0.12022511  0.04389798  0.19220198  0.33259643
  0.4690361   0.61338533  0.77157625  0.95151844  1.16112142  1.40038519
  1.67326455  1.9758047   2.30800565  2.66393524  3.04161608  3.43313863
  3.83454811  4.24386714  4.65318616  5.0605278   5.4599599   5.84950506
  6.22125374  6.57125117  6.89554258  7.18819579  7.44525605  7.66672335
  7.84864292  7.99694692  8.10768057  8.1907308   8.24412024  8.27575843
  8.28564536  8.2797132   8.25796195  8.2203916   8.17095694  8.11163534
  8.04044942  7.96135396  7.87632633  7.78536655  7.69045199  7.59356005
  7.49271333  7.39186661  7.28904251  7.18819579  7.08537169  6.98254759
  6.87972348  6.77492199  6.67209789  6.56927378  6.46644968  6.36362558
  6.26080147  6.15797737  6.05515327  5.95232916  5.84950506  5.74668096
  5.64385685  5.54103275  5.44018603  5.33933932  5.24046999  5.14555543
  5.05657303  4.97352279  4.90035949  4.84301528  4.79951277  4.77776152
  4.77776152  4.80149016  4.84697005  4.91024642  4.98934189  5.07239212
  5.15544236  5.22662828  5.28001772  5.30770113  5.30770113  5.27606294
  5.21674135  5.12973634  5.02098007  4.89244994  4.74810072  4.59584195
  4.43567364  4.26957316  4.1014953   3.93341744  3.7613848   3.59132956
  3.41929692  3.24726429  3.07720904  2.9051764   2.73314377  2.56308852
  2.39105588  2.21902325  2.048968    1.87693537  1.70490273  1.53484748
  1.36281485  1.1927596   1.02270435  0.85462649  0.68654863  0.52044815
  0.35434768  0.19220198  0.03401105 -0.12417988 -0.27841603 -0.4306748
 -0.58491096 -0.7411245  -0.90524759 -1.08321238 -1.28095104 -1.5083505
 -1.77727508 -2.09563433]",-2.707107061752858,6.989666177593051,4.84947,
026,1,1,csm,10b.png,1,1,136,149,135,1,1,294,neu_feedback_onset,14,"[-0.69886463 -0.488108   -0.28821512 -0.10353148  0.05507918  0.18327136
  0.27669955  0.33319102  0.359264    0.35491851  0.32667277  0.2788723
  0.21586259  0.14198913  0.06159743 -0.02313977 -0.11222247 -0.20130517
 -0.29256062 -0.37947057 -0.46638052 -0.54459947 -0.61847293 -0.68148264
 -0.73145586 -0.76621984 -0.78360183 -0.78360183 -0.75970159 -0.71407387
 -0.64889141 -0.56198146 -0.45551677 -0.33384284 -0.19478692 -0.04704001
  0.10722515  0.25714481  0.39620073  0.51352916  0.59826636  0.63520309
  0.61999385  0.5417749   0.39837348  0.1897896  -0.07311299 -0.38164332
 -0.72276487 -1.07692291 -1.42673546 -1.75699326 -2.05031434 -2.29148945
 -2.4718276  -2.58046503 -2.61522901 -2.57611954 -2.46096385 -2.27628021
 -2.02858686 -1.72440203 -1.37241674 -0.98132197 -0.55980871 -0.11874072
  0.33753652  0.79381375  1.24357274  1.67377699  2.06921726  2.4190298
  2.71017813  2.92962575  3.06868167  3.12300039  3.09040916  2.97742623
  2.79056984  2.54504923  2.2582464   1.94537058  1.63032201  1.32613719
  1.0501981   0.81336849  0.6265121   0.49397442  0.41575547  0.39402798
  0.42661921  0.50483817  0.62433935  0.77860451  0.95459716  1.1436263
  1.33700093  1.52603007  1.70202272  1.86497888  2.01272579  2.15178171
  2.28866488  2.4277208   2.57981321  2.74711486  2.93397125  3.14038238
  3.35548451  3.57275938  3.78351601  3.9703724   4.12898306  4.24848424
  4.32453044  4.36146717  4.36363992  4.33973968  4.30063021  4.25717523
  4.2202385   4.19633827  4.18982002  4.20285651  4.23544774  4.28107547
  4.33539419  4.39188565  4.44185887  4.48096835  4.50486859  4.51138683
  4.49835034  4.47010461  4.42447688  4.36798542  4.30063021  4.2289295
  4.15505604  4.08118258  4.00948188  3.94429941  3.8899807   3.84652572
  3.81827999  3.80958899  3.82045274  3.85087122  3.90084444  3.96385415
  4.03120936  4.09639182  4.14853779  4.17895628  4.17895628  4.1441923
  4.07249159  3.96819965  3.84000747  3.69443331  3.5466864   3.40545773
  3.2837838   3.18601011  3.11648215  3.07085442  3.04478144  3.03174495
  3.02305395  3.00567196  2.97525348  2.92745301  2.85792505  2.77318785
  2.6732414   2.56460397  2.45379378  2.34950184  2.2539009   2.1735092
  2.10832673  2.06052626  2.02576228  2.00403479  1.98448006  1.96709807
  1.94537058  1.9106066   1.85846063  1.78675992  1.68898623  1.56948505
  1.42173813  1.25443648  1.06975284  0.87420545  0.67648532  0.48311068
  0.30059979  0.13981638  0.00727871 -0.09484048 -0.16002294 -0.18826868
 -0.17957768 -0.13612271 -0.05790375  0.05073368  0.18761685  0.35057301
  0.5374294   0.74601328  0.97849739  1.2283635   1.49561159  1.77589618
  2.06487176  2.35384734  2.63413193  2.90138002  3.14472788  3.35983
  3.5423409   3.69008781  3.80741624  3.89215344  3.95516316  3.99644538
  4.02686387  4.0464186   4.06162785  4.07900983  4.09856457  4.12246481
  4.15505604  4.19851102  4.24848424  4.30714845  4.37233091  4.43751338
  4.50052309  4.55701456  4.60046953  4.62654252  4.63306076  4.61567877
  4.57874204  4.52225058  4.45272262  4.37233091  4.29193921  4.21806575
  4.15940154  4.12029206  4.10508282  4.11594656  4.14853779  4.19633827
  4.24631149  4.28976646]","[-2.0292575  -1.77734533 -1.53802877 -1.31340708 -1.09928174 -0.897752
 -0.70461933 -0.51988374 -0.33724742 -0.15461109  0.0301245   0.22325716
  0.4247869   0.63681298  0.85933539  1.09655269  1.34846486  1.61717117
  1.90896944  2.22595892  2.57443742  2.95860348  3.38265564  3.84659389
  4.35041823  4.88993013  5.45673251  6.04242831  6.63022337  7.20962137
  7.76172887  8.27395029  8.73578927  9.13884874  9.47473163  9.74763649
  9.95966256 10.11710767 10.23046815 10.31024033 10.37111911 10.42360081
 10.48028105 10.54745763 10.62722982 10.72589542 10.84345443 10.97570832
 11.12265709 11.28010219 11.44594437 11.61598509 11.79232361 11.97076139
 12.15129845 12.33183551 12.51237256 12.69500889 12.87554594 13.05818226
 13.24291786 13.42555418 13.61238904 13.7992239  13.98815803 14.18129069
 14.37232409 14.56545675 14.75439088 14.93282867 15.09027378 15.21622986
 15.29600205 15.30649839 15.23512327 15.05878475 14.76698649 14.34923214
 13.80132317 13.13375592 12.36332453 11.50892241 10.59993933  9.66996357
  8.74418634  7.8519974   7.01229017  6.23975951  5.5428025   4.91931988
  4.36721237  3.87808291  3.43933588  3.04467347  2.67940083  2.33722013
  2.01183357  1.69904263  1.39045022  1.08815561  0.78796028  0.48776494
  0.18966887 -0.1084272  -0.40652327 -0.70461933 -1.0027154  -1.30081147
 -1.59890754 -1.89700361 -2.19509968 -2.49529502 -2.79549035 -3.09778496
 -3.40007956 -3.70447344 -4.01096658 -4.31536045 -4.62185359 -4.9241482
 -5.22434353 -5.51824107 -5.80164226 -6.07874565 -6.34325342 -6.5951656
 -6.83658143 -7.06750092 -7.29002333 -7.50204941 -7.70777768 -7.90720815
 -8.10244008 -8.28927494 -8.469812   -8.64615052 -8.81409197 -8.97363634
 -9.12898218 -9.27803021]",4.254338586919072,11.796522142555002,4.602465,-0.32146000000000097
026,2,1,csp,57a.png,1,1,292,133,289,1,1,302,pos_feedback_onset,1,"[ 0.10360345  0.26268745  0.37205769  0.42773709  0.43767984  0.40785159
  0.34819509  0.2686531   0.1811569   0.0936607   0.0141187  -0.05548054
 -0.11712559 -0.17479354 -0.23445004 -0.30007218 -0.37563708 -0.46114473
 -0.55460658 -0.64409132 -0.71965622 -0.76141577 -0.75545012 -0.68187377
 -0.52676688 -0.28217523  0.0578668   0.48938214  1.00839367  1.598993
  2.24527173  2.9293329   3.62731393  4.32131785  4.98947063  5.61586386
  6.18458914  6.68172662  7.10131065  7.44135269  7.69986418  7.88281078
  8.00013522  8.05780317  8.07172302  8.05183752  8.01206652  7.96235277
  7.91263902  7.87684513  7.86093673  7.87485658  7.92655887  8.02399782
  8.16916197  8.36801696  8.61857425  8.91486819  9.25093313  9.61483776
  9.99266225 10.36849819 10.72842572 11.05255936 11.32697925 11.5397541
 11.67895259 11.74059764 11.72071214 11.61730754 11.43833805 11.18778076
 10.87955552 10.52559363 10.14776915  9.76596756  9.39808582  9.06997508
  8.79953229  8.60266585  8.4893185   8.46744445  8.5330666   8.67425365
  8.87708574  9.11770028  9.37422322  9.61682631  9.82363551  9.97277675
 10.04834165 10.0383989   9.94493705  9.76795611  9.51739882  9.20519648
  8.84924604  8.4654559   8.07371157  7.68793288  7.32800535  7.00188316
  6.72348617  6.49281437  6.31583343  6.18458914  6.09510439  6.02948224
  5.97579139  5.91414635  5.82665015  5.6973944   5.51643636  5.27781037
  4.98549353  4.64545149  4.27756975  3.90372237  3.54777193  3.23556959
  2.99495505  2.84382525  2.79610006  2.8577451   3.03074895  3.30318029
  3.66111928  4.08269186  4.54403544  5.02128743  5.48859666  5.92607764
  6.31185633  6.63400142  6.88654726  7.06153965  7.16494425  7.20073815
  7.18085265  7.1192076   7.02773431  6.92234116  6.81893656  6.72945182
  6.66382967  6.63201287  6.63201287  6.66581822  6.72746327  6.80501671
  6.88654726  6.95614651  6.99591751  6.98796331  6.91438696  6.76325717
  6.52860827  6.20447464  5.7968219   5.31758137  4.78067289  4.20598196
  3.61737118  3.0327375   2.46997787  1.94102359  1.45382885  1.01237077
  0.60670658  0.2368363  -0.11115994 -0.44324778 -0.76539287 -1.08356086
 -1.3997403  -1.70995408 -2.01221367 -2.30254196 -2.57696185 -2.83149624
 -3.06415659 -3.27494288 -3.46186657 -3.62492767 -3.76611471 -3.88343916
 -3.976901   -4.0445117  -4.08229415 -4.09024835 -4.0643972  -4.00275215
 -3.90929031 -3.78003456 -3.61896202 -3.43004977 -3.21528638 -2.98063749
 -2.73604585 -2.48350001 -2.23493127 -2.00227092 -1.79546173 -1.62444644
 -1.50712199 -1.45144259 -1.46536244 -1.56081284 -1.73580523 -1.98835107
 -2.31447326 -2.7022405  -3.13773293 -3.60305362 -4.0803056  -4.55556903
 -5.01094697 -5.43251955 -5.81630969 -6.14839753 -6.42679452 -6.64553501
 -6.8006419  -6.8921152  -6.9159778  -6.8722297  -6.76484801 -6.59780981
 -6.37906932 -6.12254638 -5.84017229 -5.549844   -5.26548136 -5.00696987
 -4.78425228 -4.60528278 -4.47602704 -4.39449649 -4.34875984 -4.33086289
 -4.32489724 -4.31097739 -4.27319494 -4.1956415  -4.07036285 -3.88542771
 -3.63884752 -3.33261083 -2.97666039 -2.5789504  -2.15141217 -1.71393118
 -1.2764502  -0.85686616 -0.46313328 -0.10121719  0.22291645  0.51125619
  0.76579058  0.99447382]","[-3.10502105e+00 -2.84936147e+00 -2.57949859e+00 -2.29898322e+00
 -2.00426454e+00 -1.70066880e+00 -1.38464516e+00 -1.05796903e+00
 -7.18865014e-01 -3.65557684e-01  1.95295509e-03  3.83666904e-01
  7.77808749e-01  1.18260308e+00  1.59627447e+00  2.01172128e+00
  2.42716809e+00  2.83551325e+00  3.23320592e+00  3.61491987e+00
  3.97887968e+00  4.31975911e+00  4.63223193e+00  4.91452271e+00
  5.15952980e+00  5.36192696e+00  5.51461254e+00  5.61226030e+00
  5.65309481e+00  5.63001443e+00  5.54834540e+00  5.40631231e+00
  5.21456762e+00  4.97666219e+00  4.70679930e+00  4.41208063e+00
  4.10493405e+00  3.79423665e+00  3.48709008e+00  3.18882057e+00
  2.90297897e+00  2.63311608e+00  2.37923192e+00  2.14487731e+00
  1.93005225e+00  1.73830757e+00  1.56964327e+00  1.42405934e+00
  1.30155580e+00  1.20213263e+00  1.12401442e+00  1.06365036e+00
  1.01926501e+00  9.87307567e-01  9.66002603e-01  9.50023879e-01
  9.41146811e-01  9.34045156e-01  9.28718915e-01  9.25168087e-01
  9.21617260e-01  9.18066432e-01  9.16291019e-01  9.14515605e-01
  9.10964778e-01  9.09189364e-01  9.07413950e-01  9.03863123e-01
  9.00312295e-01  8.94986054e-01  8.86108986e-01  8.73681090e-01
  8.55926952e-01  8.27520333e-01  7.84910404e-01  7.26321751e-01
  6.44652720e-01  5.36352484e-01  3.94319386e-01  2.18553428e-01
  3.72836880e-03 -2.48380379e-01 -5.35997401e-01 -8.57347283e-01
 -1.20532837e+00 -1.57816525e+00 -1.96875627e+00 -2.37177518e+00
 -2.78367116e+00 -3.20266880e+00 -3.62166644e+00 -4.04421490e+00
 -4.46676337e+00 -4.88931183e+00 -5.31008488e+00 -5.73085793e+00
 -6.14985557e+00 -6.56530238e+00 -6.97719836e+00 -7.38199269e+00
 -7.77790995e+00 -8.15962390e+00 -8.52890995e+00 -8.88044186e+00
 -9.21421964e+00 -9.53024328e+00 -9.82496196e+00 -1.01037019e+01
 -1.03646877e+01 -1.06114702e+01 -1.08440494e+01 -1.10659761e+01
 -1.12790258e+01 -1.14796475e+01 -1.16713922e+01 -1.18524844e+01
 -1.20193733e+01 -1.21720589e+01 -1.23105412e+01 -1.24312693e+01
 -1.25324679e+01 -1.26159123e+01 -1.26816026e+01 -1.27313142e+01
 -1.27650471e+01 -1.27845766e+01 -1.27934537e+01 -1.27934537e+01
 -1.27845766e+01 -1.27721487e+01 -1.27543946e+01 -1.27330896e+01
 -1.27100092e+01 -1.26869289e+01 -1.26656239e+01 -1.26460944e+01
 -1.26318910e+01 -1.26283402e+01 -1.26389927e+01 -1.26673993e+01]",9.537234603155056,3.2329839910945295,5.028789999999999,
026,2,1,csp,18a.png,1,1,40,25,42,1,1,398,pos_feedback_onset,2,"[ 1.27111157e-01  8.60707832e-02  5.64305135e-02  4.27503890e-02
  4.04703683e-02  4.73104305e-02  6.55505965e-02  8.37907625e-02
  9.97509077e-02  1.08870991e-01  1.04310949e-01  8.60707832e-02
  5.64305135e-02  1.31101193e-02 -3.70503372e-02 -9.40508559e-02
 -1.48771354e-01 -2.01211831e-01 -2.46812246e-01 -2.90132640e-01
 -3.31173014e-01 -3.74493408e-01 -4.22373844e-01 -4.83934404e-01
 -5.59175088e-01 -6.50375918e-01 -7.59816914e-01 -8.87498076e-01
 -1.02429932e+00 -1.16794063e+00 -1.31158194e+00 -1.44382314e+00
 -1.56010420e+00 -1.65130503e+00 -1.71514561e+00 -1.74934592e+00
 -1.74934592e+00 -1.71742563e+00 -1.65814509e+00 -1.57378432e+00
 -1.46434333e+00 -1.33666216e+00 -1.19530088e+00 -1.03797945e+00
 -8.71537931e-01 -6.95976333e-01 -5.11294653e-01 -3.17492889e-01
 -1.19131084e-01  8.37907625e-02  2.93552671e-01  5.07874622e-01
  7.29036634e-01  9.57038709e-01  1.19416087e+00  1.44268313e+00
  1.70260549e+00  1.97392796e+00  2.26121058e+00  2.56217332e+00
  2.87225614e+00  3.19145904e+00  3.51066195e+00  3.82758483e+00
  4.13310761e+00  4.41583018e+00  4.67119251e+00  4.89007450e+00
  5.06791612e+00  5.20243734e+00  5.29363817e+00  5.34379863e+00
  5.36203879e+00  5.35291871e+00  5.33011850e+00  5.30275826e+00
  5.27767803e+00  5.26171788e+00  5.25943786e+00  5.27311799e+00
  5.29819821e+00  5.33467855e+00  5.37343890e+00  5.41219925e+00
  5.44411954e+00  5.47147979e+00  5.48971996e+00  5.50112006e+00
  5.50796012e+00  5.51252016e+00  5.51708021e+00  5.52164025e+00
  5.52620029e+00  5.52848031e+00  5.52392027e+00  5.51024014e+00
  5.48515991e+00  5.44411954e+00  5.38939904e+00  5.32555846e+00
  5.25259780e+00  5.17963713e+00  5.11123651e+00  5.05423599e+00
  5.01319562e+00  4.99039541e+00  4.98811539e+00  5.00407554e+00
  5.03827585e+00  5.08615628e+00  5.14315680e+00  5.20927740e+00
  5.27767803e+00  5.34379863e+00  5.40763921e+00  5.46235971e+00
  5.50796012e+00  5.53988041e+00  5.55356054e+00  5.54900050e+00
  5.51936023e+00  5.46235971e+00  5.37799894e+00  5.26399790e+00
  5.12719666e+00  4.96531518e+00  4.78747357e+00  4.60051186e+00
  4.41355016e+00  4.23114850e+00  4.06014695e+00  3.90282552e+00
  3.75918421e+00  3.62694301e+00  3.50154186e+00  3.37614072e+00
  3.24845956e+00  3.10937830e+00  2.95661691e+00  2.79245541e+00
  2.61917383e+00  2.43677217e+00  2.25437051e+00  2.07880892e+00
  1.92148749e+00  1.78468624e+00  1.68208531e+00  1.61596471e+00
  1.59088448e+00  1.60684462e+00  1.66384514e+00  1.75732599e+00
  1.88044711e+00  2.02180840e+00  2.17000975e+00  2.31593107e+00
  2.44361224e+00  2.54393315e+00  2.61005375e+00  2.63513398e+00
  2.61917383e+00  2.56901338e+00  2.49149267e+00  2.40029184e+00
  2.31365105e+00  2.25437051e+00  2.23841037e+00  2.28857083e+00
  2.42081203e+00  2.64881410e+00  2.98169713e+00  3.41718110e+00
  3.95070595e+00  4.57543164e+00  5.27311799e+00  6.02324481e+00
  6.80301191e+00  7.59417911e+00  8.37166618e+00  9.11951299e+00
  9.82175938e+00  1.04692853e+01  1.10529706e+01  1.15773754e+01
  1.20424996e+01  1.24551833e+01  1.28291067e+01  1.31711099e+01
  1.34948728e+01  1.38095157e+01  1.41287186e+01  1.44502015e+01
  1.47830845e+01  1.51205276e+01  1.54602507e+01  1.57954137e+01
  1.61123366e+01  1.64087393e+01  1.66732217e+01  1.69057838e+01
  1.71109857e+01  1.73002274e+01  1.74871891e+01  1.76923910e+01
  1.79454733e+01  1.82669562e+01  1.86796400e+01  1.91972047e+01
  1.98264904e+01  2.05652171e+01  2.14019848e+01  2.23117130e+01
  2.32670417e+01  2.42360505e+01  2.51822592e+01  2.60805873e+01
  2.68991148e+01  2.76264414e+01  2.82466070e+01  2.87618917e+01
  2.91745755e+01  2.94983384e+01  2.97445807e+01  2.99292624e+01
  3.00660636e+01  3.01709446e+01  3.02507453e+01  3.03145859e+01
  3.03647463e+01  3.04035067e+01  3.04263069e+01  3.04308669e+01
  3.04103467e+01  3.03647463e+01  3.02872256e+01  3.01800646e+01
  3.00455434e+01  2.98836619e+01  2.97012603e+01  2.95028985e+01
  2.92976966e+01  2.90879347e+01  2.88850129e+01  2.86934911e+01
  2.85179295e+01  2.83674481e+01  2.82420470e+01  2.81462861e+01
  2.80824456e+01  2.80459652e+01  2.80345651e+01  2.80459652e+01
  2.80733255e+01  2.81098058e+01  2.81508462e+01  2.81850465e+01
  2.82055667e+01  2.82055667e+01  2.81713664e+01  2.80938457e+01]","[ -1.70764311  -1.52259484  -1.3604573   -1.21418104  -1.07319188
  -0.93044035  -0.78063937  -0.61673947  -0.43874065  -0.24488055
  -0.0386839    0.17808694   0.40014487   0.62748989   0.85835964
   1.09099176   1.32714861   1.56859255   1.81356122   2.06381698
   2.31583511   2.57137797   2.82163373   3.06484003   3.29570979
   3.51071826   3.70457836   3.87905245   4.03590289   4.17512969
   4.3037823    4.42538545   4.54346387   4.65977993   4.77433363
   4.88536259   4.98757974   5.07217323   5.1285689    5.14795491
   5.12151944   5.04221304   4.90298624   4.70560141   4.45005855
   4.14693186   3.80150841   3.4243624    3.02783038   2.62072417
   2.2118556    1.80651176   1.40821738   1.01873482   0.64158881
   0.27501698  -0.08274301  -0.42992883  -0.77006518  -1.10138971
  -1.42566479  -1.74465277  -2.06011602  -2.36852981  -2.67341887
  -2.97478321  -3.26909808  -3.55812587  -3.84186656  -4.11855779
  -4.39172429  -4.6596037   -4.92572074  -5.19183778  -5.45971719
  -5.73112133  -6.01133729  -6.30036507  -6.59820468  -6.90661847
  -7.22208172  -7.5463568   -7.8741566   -8.20371877  -8.53151857
  -8.85403128  -9.16773216  -9.4638094   -9.74050063  -9.9907564
 -10.21105196 -10.3978626  -10.54766359 -10.66221728 -10.74681078
 -10.80496881 -10.84550319 -10.87898812 -10.91423541 -10.96005689
 -11.02526438 -11.1133826  -11.2279363  -11.3671631  -11.53282536
 -11.71787364 -11.91878319 -12.13026694 -12.34703777 -12.56380861
 -12.77529235 -12.97796428 -13.16653728 -13.34101137 -13.49609945
 -13.63708861 -13.76397886 -13.88205728 -13.99837334 -14.11645176
 -14.24510437 -14.38609353 -14.54646871 -14.72446752 -14.91832762
 -15.12628664 -15.34481984 -15.56687777 -15.79246043 -16.01275599
 -16.2260021  -16.42867402 -16.61548466 -16.78290929 -16.92566082
 -17.03845215 -17.11599619 -17.15300584 -17.14771875 -17.09484782]",28.679069979536802,3.267247600761005,4.385925,0.18173499999999976
026,2,1,csm,35b.png,1,1,312,304,309,1,1,406,neu_feedback_onset,3,"[  0.11086844   0.246328     0.3401077    0.39845951   0.42138344
   0.41304747   0.37761958   0.32343575   0.25049599   0.16505227
   0.07335656  -0.02250713  -0.11837082  -0.21423451  -0.30176222
  -0.38303796  -0.45180974  -0.50807756  -0.54767343  -0.57268135
  -0.57893333  -0.57059736  -0.54975742  -0.52266551  -0.49140561
  -0.46848169  -0.45597773  -0.46639769  -0.50390957  -0.57684934
  -0.68521699  -0.8352645   -1.0207399   -1.24164319  -1.4854704
  -1.75013754  -2.02105667  -2.28780781  -2.54205498  -2.77754622
  -2.98594555  -3.16725296  -3.31730048  -3.44442407  -3.55070772
  -3.64657141  -3.73618312  -3.83204681  -3.93833047  -4.06128607
  -4.20299762  -4.3634651   -4.54477251  -4.74275187  -4.95323519
  -5.17205448  -5.39087378  -5.60760908  -5.8180924   -6.01815575
  -6.20571514  -6.3745186   -6.5287341   -6.66419366  -6.78089728
  -6.87676097  -6.95386873  -7.01222054  -7.05181641  -7.07682433
  -7.08307631  -7.07682433  -7.0559844   -7.0226405   -6.97679265
  -6.92052483  -6.85592104  -6.78298128  -6.70170554  -6.61209383
  -6.52039813  -6.42245044  -6.32241877  -6.2203031   -6.11610343
  -6.01190377  -5.90562011  -5.79933646  -5.69096881  -5.58051716
  -5.46798153  -5.3512779   -5.2304063   -5.10328271  -4.96990714
  -4.8281956   -4.67814808  -4.52393258  -4.36971708  -4.21758557
  -4.07587403  -3.95083443  -3.85080275  -3.78619896  -3.76327504
  -3.78619896  -3.85913873  -3.98626232  -4.16131775  -4.38638902
  -4.65314016  -4.95323519  -5.28042213  -5.62428102  -5.97855988
  -6.33075474  -6.67878161  -7.01430453  -7.33732349  -7.6436705
  -7.93126157  -8.20426468  -8.46059586  -8.70233907  -8.93157833
  -9.14622964  -9.34837699  -9.53385239  -9.70265584  -9.85270336
  -9.98399493 -10.09027859 -10.17363832 -10.22990614 -10.26116604
 -10.26533402 -10.24449409 -10.19864624 -10.12570647 -10.02984278
  -9.90688718  -9.75475567  -9.57344826  -9.35671296  -9.10663377
  -8.81487471  -8.48143579  -8.106317    -7.68951835  -7.23312382
  -6.7454694   -6.23489105  -5.71597673  -5.20331438  -4.71357597
  -4.2696854   -3.88414665  -3.57779964  -3.35689635  -3.22977276
  -3.19642887  -3.25061269  -3.37773628  -3.56529568  -3.79036695
  -4.03836215  -4.29052533  -4.53435254  -4.75942382  -4.96782314
  -5.16371851  -5.35544589  -5.55342525  -5.77224454  -6.02440773
  -6.31616679  -6.64960571  -7.0226405   -7.4248512   -7.84581784
  -8.26470049  -8.66691119  -9.033694    -9.34629299  -9.59637218
  -9.77351161  -9.87771128  -9.90480319  -9.86312332  -9.76100765
  -9.60679215  -9.41089678  -9.1899935   -8.95658625  -8.72109501
  -8.50227572  -8.30846435  -8.15633284  -8.05004918  -7.99794935
  -8.00420133  -8.06672113  -8.18134076  -8.33972425  -8.53353562
  -8.74818693  -8.9732582   -9.19832947  -9.41298078  -9.61096014
  -9.78393158  -9.9318951  -10.05276671 -10.14446241 -10.2090662
 -10.24449409 -10.25074607 -10.22365416 -10.15905037 -10.0569347
  -9.91730715  -9.73599973  -9.51926443  -9.27335323  -9.00035011
  -8.71484303  -8.42099998  -8.13132492  -7.84998583  -7.5790667
  -7.32065154  -7.06848835  -6.81840916  -6.56416198  -6.29741085
  -6.01190377  -5.70972475  -5.38878978  -5.05743485  -4.72399593
  -4.40514496  -4.11338591  -3.86122272  -3.65699138  -3.51319585
  -3.42775212  -3.4027442   -3.43192011  -3.50694387  -3.6194795
  -3.76119104  -3.92165853  -4.09462997  -4.27176939  -4.45307681
  -4.63230023  -4.80735566  -4.97615912  -5.14079458  -5.29917807]","[ -1.9242216   -1.72850457  -1.54356095  -1.37118632  -1.2041984
  -1.04080161  -0.87381369  -0.69605235  -0.50572203  -0.29923159
  -0.07298988   0.17300308   0.43695173   0.7116738    0.99178258
   1.27368692   1.54661342   1.80697094   2.04937276   2.27022776
   2.46594479   2.64191056   2.79453393   2.93099718   3.05489144
   3.1680123    3.27754201   3.38168502   3.48403245   3.57919761
   3.66538493   3.73182099   3.77491464   3.78748363   3.76055009
   3.68872733   3.57381091   3.41580083   3.21469709   2.98127311
   2.71912003   2.43901125   2.14453792   1.84647346   1.54661342
   1.25034452   0.95946233   0.67396685   0.39385808   0.11734044
  -0.15379049  -0.42312585  -0.68887008  -0.9546143   -1.21856295
  -1.48251161  -1.74646026  -2.01040891  -2.272562    -2.53651065
  -2.80045931  -3.06261239  -3.32656105  -3.5905097   -3.85266278
  -4.11661144  -4.38056009  -4.64271318  -4.90666183  -5.16881492
  -5.43276357  -5.69671222  -5.95886531  -6.22281396  -6.48676262
  -6.7489157   -7.01286435  -7.27501744  -7.53896609  -7.80291475
  -8.06506783  -8.32722092  -8.589374    -8.84973152  -9.11008903
  -9.36685541  -9.62362179  -9.87500146 -10.12458556 -10.37057852
 -10.61477592 -10.85538217 -11.09419286 -11.33479912 -11.57720094
 -11.82139834 -12.07098244 -12.32056654 -12.57194621 -12.81973474
 -13.06213657 -13.29376498 -13.51102883 -13.71213257 -13.89528062
 -14.0586774  -14.20232293 -14.32980833 -14.44292918 -14.54527662
 -14.63685064 -14.72124239 -14.802043   -14.8774569  -14.9528708
 -15.02469356 -15.09651633 -15.16833909 -15.24016185 -15.31198462
 -15.38380738 -15.45383457 -15.52565734 -15.5974801  -15.66930286
 -15.74292119 -15.81833509 -15.89554456 -15.97634517 -16.06253249
 -16.15590208 -16.25824952 -16.37137037 -16.49885577 -16.64070573
 -16.79871581 -16.97288601 -17.1650119  -17.37509348 -17.59774405]",-0.09258140077692688,2.2462120225918554,4.7984800000000005,0.609725000000001
026,2,1,csp,26a.png,1,1,336,149,334,1,0,243,neg_feedback_onset,4,"[ 0.47597869  0.36005943  0.24650586  0.135318    0.03359293 -0.05630364
 -0.13200602 -0.1958799  -0.24319388 -0.27394797 -0.29050787 -0.28577647
 -0.26448518 -0.22190259 -0.15802871 -0.07286354  0.03359293  0.15897499
  0.29855125  0.4523217   0.61082355  0.7716911   0.92782725  1.0721349
  1.20461406  1.31580192  1.4080642   1.47903517  1.53108056  1.56420035
  1.57839454  1.57839454  1.56183465  1.53344626  1.49086367  1.43645259
  1.36784731  1.28977923  1.20224836  1.11471749  1.02482092  0.94675284
  0.88051326  0.83556498  0.81663938  0.82373648  0.85449057  0.90890165
  0.97987263  1.05794071  1.13600878  1.20461406  1.25665944  1.28977923
  1.29924203  1.28504783  1.24956235  1.19751696  1.13600878  1.0674035
  1.00116392  0.93965574  0.88761036  0.84739347  0.82137078  0.80717659
  0.80717659  0.81900508  0.84266207  0.87814756  0.92546155  0.98460403
  1.05794071  1.14547158  1.25192804  1.37494441  1.51452066  1.67302251
  1.84571856  2.0302431   2.22186474  2.41348638  2.59801092  2.76834127
  2.91738032  3.04039668  3.13265895  3.18707003  3.20836133  3.19653283
  3.15395024  3.08534497  3.00017979  2.90318612  2.80146106  2.70210169
  2.60983942  2.52940564  2.46553176  2.42058348  2.39219509  2.38509799
  2.39456078  2.42294918  2.46316606  2.51521145  2.57198823  2.63113071
  2.68317609  2.72575868  2.75178137  2.75887847  2.74231857  2.69973599
  2.63349641  2.54359984  2.43477767  2.30939561  2.17691645  2.0373402
  1.90012964  1.77001618  1.64699982  1.53344626  1.42935549  1.33945892
  1.25665944  1.18332277  1.11944889  1.0650378   1.01772382  0.97987263
  0.95148424  0.93729004  0.93729004  0.94911854  0.97750693  1.01772382
  1.0721349   1.13600878  1.21171116  1.29214493  1.3796758   1.46957238
  1.55946895  1.64936552  1.73689639  1.82206156  1.90486104  1.98056341
  2.05153439  2.11777397  2.17691645  2.22896184  2.27154442  2.30702991
  2.3330526   2.3519782   2.36144099  2.36380669  2.3590753   2.3496125
  2.3354183   2.32122411  2.30466421  2.28810432  2.27391012  2.26444733
  2.25971593  2.26208163  2.26681302  2.27627582  2.28573862  2.29520142
  2.30229851  2.29993281  2.28810432  2.26444733  2.22423044  2.16981936
  2.09884838  2.01131751  1.90959244  1.79603887  1.67302251  1.54054335
  1.4056985   1.26612224  1.12891168  0.99406683  0.86868477  0.7527655
  0.65340613  0.57533806  0.52092698  0.49726998  0.51146418  0.56350956
  0.65813753  0.80007949  0.98460403  1.21407686  1.48849797  1.80077027
  2.15325946  2.53886844  2.95759721  3.40471437  3.87312282  4.36282256
  4.86198511  5.36114765  5.85321309  6.31925585  6.75217881  7.14015349
  7.47135138  7.7457725   7.96578253  8.13611287  8.27095773  8.38214559
  8.49569916  8.62344692  8.78431447  8.992496    9.25745432  9.58628651
  9.98135829 10.44030395 10.96548918 11.55454829 12.20511559 12.91955676
 13.69550612 14.52823225 15.41773517 16.35455208 17.32685447 18.32754526
 19.33533314 20.33838962 21.32252051 22.27353161 23.17959442 24.03597755
 24.8379496  25.58314487 26.26683195 26.88901085 27.44495018 27.93464992
 28.35101299 28.68930799 28.9519006  29.13405945 29.24524731 29.2878299
 29.2783671  29.22632172]","[-1.80505545e+00 -1.61606326e+00 -1.44687024e+00 -1.29387656e+00
 -1.15528229e+00 -1.02208779e+00 -8.90693214e-01 -7.52098938e-01
 -6.02705108e-01 -4.33512096e-01 -2.37320199e-01 -1.05295651e-02
  2.48659730e-01  5.43847539e-01  8.69634084e-01  1.21881966e+00
  1.58060472e+00  1.94058985e+00  2.28077580e+00  2.58316332e+00
  2.83155306e+00  3.00974570e+00  3.10694168e+00  3.11234146e+00
  3.02234518e+00  2.83875276e+00  2.56696398e+00  2.21777841e+00
  1.80379550e+00  1.34481446e+00  8.57034604e-01  3.63854973e-01
 -1.14925254e-01 -5.59506892e-01 -9.53690613e-01 -1.28127708e+00
 -1.53686653e+00 -1.70965939e+00 -1.80505545e+00 -1.82665456e+00
 -1.78345634e+00 -1.68806028e+00 -1.56026556e+00 -1.41267166e+00
 -1.26327783e+00 -1.12468355e+00 -1.00588846e+00 -9.14092248e-01
 -8.47494998e-01 -8.06096708e-01 -7.84497600e-01 -7.77297898e-01
 -7.75497972e-01 -7.79097823e-01 -7.79097823e-01 -7.75497972e-01
 -7.66498344e-01 -7.52098938e-01 -7.34099682e-01 -7.12500574e-01
 -6.89101540e-01 -6.62102655e-01 -6.35103770e-01 -6.08104885e-01
 -5.79306075e-01 -5.50507264e-01 -5.21708453e-01 -4.92909643e-01
 -4.64110832e-01 -4.35312022e-01 -4.04713285e-01 -3.74114549e-01
 -3.43515813e-01 -3.09317225e-01 -2.71518786e-01 -2.31920422e-01
 -1.86922280e-01 -1.38324287e-01 -8.25265917e-02 -2.31290448e-02
  3.80684278e-02  9.92659003e-02  1.51463745e-01  1.87462258e-01
  1.94661960e-01  1.60463373e-01  7.04670897e-02 -9.15262200e-02
 -3.32716259e-01 -6.65702506e-01 -1.09048496e+00 -1.60346378e+00
 -2.19743925e+00 -2.85441211e+00 -3.55638312e+00 -4.27815331e+00
 -5.00172343e+00 -5.70549436e+00 -6.37506671e+00 -6.99784099e+00
 -7.56841742e+00 -8.08859594e+00 -8.56017646e+00 -8.98675885e+00
 -9.37914264e+00 -9.73912777e+00 -1.00757139e+01 -1.03925008e+01
 -1.06930884e+01 -1.09756767e+01 -1.12420657e+01 -1.14922554e+01
 -1.17262457e+01 -1.19404369e+01 -1.21366288e+01 -1.23166213e+01
 -1.24840144e+01 -1.26406079e+01 -1.27936016e+01 -1.29429955e+01
 -1.30977891e+01 -1.32543826e+01 -1.34181758e+01 -1.35891688e+01
 -1.37619616e+01 -1.39347545e+01 -1.41057474e+01 -1.42731405e+01
 -1.44315340e+01 -1.45809278e+01 -1.47231219e+01 -1.48563164e+01
 -1.49805113e+01 -1.50993064e+01 -1.52109018e+01 -1.53188973e+01
 -1.54214931e+01 -1.55222889e+01 -1.56176850e+01 -1.57076813e+01]",24.93977752552795,0.4281123189612071,4.22708,0.210700000000001
026,2,1,csm,51b.png,1,1,44,144,43,1,1,410,neu_feedback_onset,5,"[ 3.05272856e+00  2.63298376e+00  2.18310344e+00  1.71600282e+00
  1.25320728e+00  8.09784574e-01  3.96497391e-01  2.62609564e-02
 -2.96619655e-01 -5.67839369e-01 -7.87398185e-01 -9.59601178e-01
 -1.08660089e+00 -1.17485492e+00 -1.22866835e+00 -1.25234627e+00
 -1.24804119e+00 -1.21790567e+00 -1.16409223e+00 -1.08660089e+00
 -9.89736702e-01 -8.79957294e-01 -7.61567736e-01 -6.41025641e-01
 -5.26941158e-01 -4.27924437e-01 -3.48280553e-01 -2.92314580e-01
 -2.57873982e-01 -2.42806220e-01 -2.40653683e-01 -2.42806220e-01
 -2.44958757e-01 -2.36348608e-01 -2.16975771e-01 -1.80382635e-01
 -1.33026812e-01 -7.92133767e-02 -2.32474040e-02  2.41084190e-02
  5.42439428e-02  6.50066298e-02  4.99388679e-02  6.88811972e-03
 -6.19930774e-02 -1.50247111e-01 -2.57873982e-01 -3.78416077e-01
 -5.01110709e-01 -6.25957879e-01 -7.44347437e-01 -8.54126845e-01
 -9.48838491e-01 -1.02848238e+00 -1.08660089e+00 -1.12749910e+00
 -1.14471940e+00 -1.14256686e+00 -1.12104148e+00 -1.08014327e+00
 -1.02632984e+00 -9.57448640e-01 -8.77804756e-01 -7.83093110e-01
 -6.73313702e-01 -5.42008920e-01 -3.80568614e-01 -1.78230098e-01
  7.36167795e-02  3.83582167e-01  7.64581288e-01  1.21661414e+00
  1.74183327e+00  2.34239121e+00  3.00752527e+00  3.73293038e+00
  4.50353877e+00  5.31289284e+00  6.14807735e+00  6.99187202e+00
  7.83781922e+00  8.66654612e+00  9.46729004e+00  1.02228307e+01
  1.09159477e+01  1.15315734e+01  1.20546400e+01  1.24722323e+01
  1.27757400e+01  1.29608583e+01  1.30318920e+01  1.29931463e+01
  1.28618415e+01  1.26530454e+01  1.23861308e+01  1.20783179e+01
  1.17446746e+01  1.13981161e+01  1.10451000e+01  1.06877788e+01
  1.03218474e+01  9.94300081e+00  9.54262885e+00  9.12073152e+00
  8.67300374e+00  8.19944551e+00  7.70436190e+00  7.19205800e+00
  6.67544902e+00  6.15884004e+00  5.65084121e+00  5.16221522e+00
  4.69726714e+00  4.26245458e+00  3.86423516e+00  3.50260888e+00
  3.18403334e+00  2.90850855e+00  2.68033958e+00  2.49522137e+00
  2.35100136e+00  2.24337449e+00  2.16157807e+00  2.09915448e+00
  2.04318851e+00  1.98291746e+00  1.90757865e+00  1.81286701e+00
  1.69232491e+00  1.54810491e+00  1.38235953e+00  1.20585146e+00
  1.02719085e+00  8.57140397e-01  7.08615316e-01  5.92378296e-01
  5.17039486e-01  4.91209037e-01  5.17039486e-01  5.98835908e-01
  7.30140690e-01  9.13106370e-01  1.13912280e+00  1.40388490e+00
  1.69447745e+00  2.00444284e+00  2.32517091e+00  2.64159391e+00
  2.94940676e+00  3.23999931e+00  3.50906649e+00  3.75015068e+00
  3.96325188e+00  4.15052264e+00  4.31196294e+00  4.45403041e+00
  4.58103012e+00  4.69941968e+00  4.81780923e+00  4.94050387e+00
  5.07396119e+00  5.22894388e+00  5.40975702e+00  5.61855315e+00
  5.85963734e+00  6.13085705e+00  6.42575468e+00  6.74217768e+00
  7.06721083e+00  7.39439651e+00  7.71081951e+00  8.00786968e+00
  8.27908939e+00  8.51586851e+00  8.71820702e+00  8.88825748e+00
  9.03032495e+00  9.15301958e+00  9.26710406e+00  9.37473093e+00
  9.48666288e+00  9.60505244e+00  9.72774707e+00  9.85044170e+00
  9.96667872e+00  1.00656954e+01  1.01410343e+01  1.01797799e+01
  1.01754748e+01  1.01238140e+01  1.00226447e+01  9.87411961e+00
  9.68254378e+00  9.45222228e+00  9.19176525e+00  8.90332524e+00
  8.59120732e+00  8.25756402e+00  7.90024281e+00  7.51924368e+00
  7.11026158e+00  6.67544902e+00  6.21695855e+00  5.74124778e+00
  5.26123194e+00  4.79197878e+00  4.35501369e+00  3.97186203e+00
  3.66404918e+00  3.45094798e+00  3.35193126e+00  3.37130409e+00
  3.51552410e+00  3.77813366e+00  4.14621756e+00  4.60470803e+00
  5.13207970e+00  5.71111226e+00  6.32028035e+00  6.94236366e+00
  7.56659951e+00  8.18007267e+00  8.77847807e+00  9.35966317e+00
  9.92362797e+00  1.04725250e+01  1.10063543e+01  1.15294209e+01
  1.20374197e+01  1.25325033e+01  1.30060615e+01  1.34559419e+01
  1.38692290e+01  1.42416180e+01  1.45644986e+01  1.48271082e+01
  1.50229891e+01  1.51542939e+01  1.52145649e+01  1.52102599e+01
  1.51478363e+01  1.50315992e+01  1.48723115e+01  1.46828882e+01
  1.44676344e+01  1.42416180e+01  1.40091440e+01  1.37766699e+01
  1.35571111e+01  1.33504675e+01  1.31675019e+01  1.30103666e+01
  1.28898245e+01  1.28080281e+01  1.27735875e+01  1.27929603e+01
  1.28682992e+01  1.30060615e+01  1.32062475e+01  1.34688571e+01]","[ -5.19388499  -4.5556728   -3.91542159  -3.2772094   -2.65327033
  -2.05176044  -1.47471874  -0.93234033  -0.42258619   0.05658271
   0.50516636   0.93539886   1.35339726   1.76731762   2.18531602
   2.61554852   3.05801512   3.51883287   3.99596275   4.48532673
   4.98488579   5.49463994   6.00847211   6.53046036   7.06060467
   7.59686603   8.14332248   8.69793499   9.25662553   9.81531607
  10.36177252  10.8878388   11.38128081  11.82986446  12.22951171
  12.57002748  12.84937275  13.07162555  13.23882491  13.35504886
  13.42845346  13.46311674  13.46515576  13.43660952  13.37951706
  13.2979564   13.19192753  13.06346949  12.91258226  12.74334389
  12.55575436  12.35593073  12.14387301  11.9216202   11.69528936
  11.46284147  11.22835456  10.99182864  10.7532637   10.51469876
  10.27613382  10.03552986   9.79696492   9.55839998   9.31779603
   9.07923109   8.84066615   8.60210121   8.36557528   8.12904936
   7.89660147   7.6661926    7.44190077   7.223726     7.01370729
   6.81184465   6.61609906   6.42647051   6.23684197   6.0431354
   5.83107767   5.59251273   5.31316746   4.97876874   4.57300444
   4.08975751   3.51679385   2.85615248   2.10579438   1.27591463
   0.37670831  -0.57551243  -1.56443547  -2.57170966  -3.57490582
  -4.55771182  -5.50585453  -6.40302182  -7.24309665  -8.01588394
  -8.72138368  -9.35755685  -9.93052051 -10.44231367 -10.90313142
 -11.31705179 -11.69426985 -12.04090267 -12.35898926 -12.65668568
 -12.93195292 -13.18275196 -13.4090828  -13.60686741 -13.77202775
 -13.89844678 -13.98204646 -14.02282679 -14.02078777 -13.97592941
 -13.89640776 -13.7903789  -13.66599889 -13.53346281 -13.40092673
 -13.28266377 -13.17867393 -13.09915228 -13.04205981 -13.00943555
