sub,run,cat_cond,trial_type,picture,old,response_old,target_pos,response_pos,dot_resp_loc,cat_corr,TN_corr,TN_rt,feedback_type,trial,SP_timeseries,FB_timeseries,SP_peak_response,FB_peak_response,preStim_bl,anticipation
006,1,1,csm,31b.png,1,1,48,306,52,1,1,353,neu_feedback_onset,1,"[-3.09800527e+00 -3.08511226e+00 -2.98565193e+00 -2.80146612e+00
 -2.53623856e+00 -2.19733667e+00 -1.80133719e+00 -1.35929125e+00
 -8.87775588e-01 -4.03366917e-01  8.47254711e-02  5.65450426e-01
  1.03144052e+00  1.48269574e+00  1.92105796e+00  2.35021089e+00
  2.77568011e+00  3.20667489e+00  3.64503711e+00  4.09260862e+00
  4.54938942e+00  5.00985394e+00  5.46663474e+00  5.90868068e+00
  6.32309874e+00  6.69515407e+00  7.01379552e+00  7.26613007e+00
  7.44294845e+00  7.53688321e+00  7.54240878e+00  7.46505074e+00
  7.30665095e+00  7.08194427e+00  6.80198184e+00  6.48518225e+00
  6.15180594e+00  5.82211335e+00  5.51452305e+00  5.24376992e+00
  5.02458881e+00  4.86250530e+00  4.76304496e+00  4.72252408e+00
  4.73910080e+00  4.80172398e+00  4.90486803e+00  5.03379810e+00
  5.18114674e+00  5.33586282e+00  5.48873704e+00  5.63424383e+00
  5.76869946e+00  5.88842024e+00  5.98972243e+00  6.07813162e+00
  6.15180594e+00  6.21811283e+00  6.28257786e+00  6.35256847e+00
  6.43361023e+00  6.52938685e+00  6.64542390e+00  6.78172140e+00
  6.93275376e+00  7.09115356e+00  7.24955335e+00  7.39506014e+00
  7.50925534e+00  7.57924594e+00  7.59213895e+00  7.53135763e+00
  7.38953456e+00  7.15930230e+00  6.83513528e+00  6.42255908e+00
  5.92157368e+00  5.34138839e+00  4.69489621e+00  3.99499015e+00
  3.25824692e+00  2.50676883e+00  1.75529074e+00  1.02775680e+00
  3.40743742e-01 -2.89171716e-01 -8.47254711e-01 -1.32613781e+00
 -1.71661172e+00 -2.02236016e+00 -2.24154127e+00 -2.38336434e+00
 -2.45519680e+00 -2.46624795e+00 -2.42388522e+00 -2.33179231e+00
 -2.19365296e+00 -2.00946715e+00 -1.77370932e+00 -1.48269574e+00
 -1.13274271e+00 -7.20166504e-01 -2.54176413e-01  2.59701987e-01
  7.99366401e-01  1.34455639e+00  1.86211851e+00  2.32442488e+00
  2.70016393e+00  2.96170777e+00  3.09616341e+00  3.09063784e+00
  2.95249848e+00  2.69279649e+00  2.34100160e+00  1.92105796e+00
  1.47348645e+00  1.02591494e+00  6.09655020e-01  2.44967123e-01
 -5.70976001e-02 -2.92855433e-01 -4.73357523e-01 -6.07813162e-01
 -7.16482788e-01 -8.17784981e-01 -9.24612749e-01 -1.04801724e+00
 -1.19352403e+00 -1.35376568e+00 -1.52321662e+00 -1.68345827e+00
 -1.82159763e+00 -1.91921611e+00 -1.96157884e+00 -1.93579283e+00
 -1.83817435e+00 -1.66688155e+00 -1.42744000e+00 -1.12537528e+00
 -7.77264104e-01 -3.94157626e-01  3.68371613e-03  4.01525058e-01
  7.82789678e-01  1.13090085e+00  1.43112372e+00  1.67609084e+00
  1.85659293e+00  1.96894627e+00  2.01683458e+00  2.00762529e+00
  1.95605327e+00  1.87501151e+00  1.78476047e+00  1.70187685e+00
  1.64293740e+00  1.61899324e+00  1.63556996e+00  1.69082570e+00
  1.77739303e+00  1.88422080e+00  1.99473229e+00  2.09235076e+00
  2.16418323e+00  2.19733667e+00  2.18812738e+00  2.13471350e+00
  2.04446245e+00  1.92658354e+00  1.79949533e+00  1.67609084e+00
  1.57294679e+00  1.50663990e+00  1.48822132e+00  1.52505848e+00
  1.61899324e+00  1.76634189e+00  1.96342070e+00  2.19917853e+00
  2.46440609e+00  2.74989409e+00  3.04274953e+00  3.33928867e+00
  3.63214411e+00  3.92315768e+00  4.21048754e+00  4.50334297e+00
  4.80172398e+00  5.11115613e+00  5.43716501e+00  5.77790875e+00
  6.13338736e+00  6.49623340e+00  6.85723758e+00  7.20903247e+00
  7.53688321e+00  7.83158050e+00  8.08207320e+00  8.27915201e+00
  8.41913322e+00  8.50017498e+00  8.52780285e+00  8.50385869e+00
  8.43939366e+00  8.34361704e+00  8.22757998e+00  8.09680806e+00
  7.96051056e+00  7.82052935e+00  7.67502256e+00  7.52030649e+00
  7.35085554e+00  7.15561859e+00  6.92538633e+00  6.65647505e+00
  6.34151732e+00  5.98051314e+00  5.57714623e+00  5.14062586e+00
  4.68384506e+00  4.22338055e+00  3.77765089e+00  3.36323283e+00
  2.99301936e+00  2.67990349e+00  2.42756893e+00  2.23417383e+00
  2.09419262e+00  1.99473229e+00  1.92289982e+00  1.86396036e+00
  1.80317905e+00  1.72766287e+00  1.63004439e+00  1.50848176e+00
  1.36113311e+00  1.19168217e+00  1.00565450e+00  8.10417549e-01
  6.09655020e-01  4.08892491e-01  2.09971820e-01  1.84185807e-02
 -1.71292800e-01 -3.59162323e-01 -5.47031846e-01 -7.38585085e-01
 -9.37505756e-01 -1.14747758e+00 -1.37034240e+00 -1.60978395e+00
 -1.86580222e+00 -2.14208093e+00 -2.43309451e+00 -2.73884294e+00
 -3.05380067e+00 -3.36507469e+00 -3.66713941e+00 -3.94525998e+00]","[-0.27157998 -0.43839589 -0.57404839 -0.67120492 -0.72436603 -0.73536488
 -0.70053519 -0.62537637 -0.51355471 -0.37056964 -0.20375372 -0.01860639
  0.17204037  0.36452027  0.55150075  0.7201498   0.8686343   0.98595538
  1.07027991  1.11427532  1.11610846  1.07761248  0.99512109  0.87596687
  0.72198295  0.53316933  0.31502544  0.07121756 -0.20008744 -0.49522329
 -0.81602313 -1.15882067 -1.52544905 -1.912242   -2.31736636 -2.73165644
 -3.15327908 -3.56940229 -3.97452666 -4.35398704 -4.70045086 -5.00475242
 -5.26139229 -5.46670418 -5.62068811 -5.7251772  -5.78567088 -5.80583544
 -5.79300345 -5.75084118 -5.68668122 -5.60052355 -5.49420131 -5.36771452
 -5.21739688 -5.0432484  -4.84343593 -4.61795947 -4.36865217 -4.09734717
 -3.81504331 -3.53273946 -3.26143445 -3.01579343 -2.81414782 -2.66749647
 -2.58867137 -2.58500508 -2.6601639  -2.81598096 -3.0451237  -3.33659327
 -3.68122395 -4.06251747 -4.46764184 -4.87826563 -5.28155685 -5.66285037
 -6.01298048 -6.32094832 -6.57942133 -6.78290009 -6.92955144 -7.01754225
 -7.05237195 -7.03770681 -6.98271256 -6.89655488 -6.79573208 -6.69124299
 -6.59591961 -6.52076079 -6.4730991  -6.45843397 -6.47493224 -6.51892765
 -6.58125447 -6.65274701 -6.71690698 -6.76090238 -6.76823495 -6.72607269
 -6.62341674 -6.44926826 -6.19996095 -5.87916112 -5.49420131 -5.05974668
 -4.59412863 -4.11751173 -3.65922625 -3.24126989 -2.88564036 -2.60883593
 -2.42368859 -2.33753092 -2.34486349 -2.44385315 -2.61800164 -2.85447695
 -3.13311452 -3.43374979 -3.73988449 -4.02768778 -4.28616079 -4.49697211
 -4.65095603 -4.74077998 -4.7591114  -4.70595029 -4.58312978 -4.39248302
 -4.14317572 -3.84254044 -3.50340919 -3.13494766 -2.751821   -2.36502805
 -1.98556767 -1.62627186]",6.506870130587762,-0.5125464816048824,5.429299999999999,0.4198650000000006
006,1,1,csm,35b.png,1,1,36,142,36,1,1,580,neu_feedback_onset,2,"[-3.31866051e-01 -3.80422704e-01 -4.27111794e-01 -4.62595503e-01
 -4.83138702e-01 -4.85006266e-01 -4.62595503e-01 -4.17773976e-01
 -3.50541687e-01 -2.62766198e-01 -1.56315073e-01 -3.67910028e-02
  9.20708852e-02  2.28403028e-01  3.68470297e-01  5.04802440e-01
  6.29929201e-01  7.40115453e-01  8.24155815e-01  8.68977341e-01
  8.61507086e-01  7.84936979e-01  6.26194073e-01  3.66602734e-01
 -6.90998530e-03 -5.05549465e-01 -1.13305083e+00 -1.89128165e+00
 -2.77090411e+00 -3.75511012e+00 -4.82148893e+00 -5.94015953e+00
 -7.07190307e+00 -8.17750071e+00 -9.21586607e+00 -1.01459127e+01
 -1.09358921e+01 -1.15559233e+01 -1.19910656e+01 -1.22319813e+01
 -1.22861406e+01 -1.21647490e+01 -1.18920847e+01 -1.14961612e+01
 -1.10105947e+01 -1.04690012e+01 -9.89939435e+00 -9.32791989e+00
 -8.77512106e+00 -8.25407082e+00 -7.77037185e+00 -7.32215659e+00
 -6.90755747e+00 -6.51536911e+00 -6.13438614e+00 -5.75900586e+00
 -5.37802289e+00 -4.98583453e+00 -4.58244079e+00 -4.17344437e+00
 -3.76258038e+00 -3.36478933e+00 -2.98754148e+00 -2.64951247e+00
 -2.35817255e+00 -2.12099198e+00 -1.94357343e+00 -1.82218180e+00
 -1.74934682e+00 -1.71573067e+00 -1.70826042e+00 -1.71199555e+00
 -1.71573067e+00 -1.71012798e+00 -1.68958478e+00 -1.65036595e+00
 -1.59247148e+00 -1.51776893e+00 -1.43559614e+00 -1.34782065e+00
 -1.26004516e+00 -1.18160749e+00 -1.11250763e+00 -1.05834829e+00
 -1.02286458e+00 -1.00232138e+00 -9.98586254e-01 -1.00979164e+00
 -1.03406996e+00 -1.07142123e+00 -1.11997789e+00 -1.17787236e+00
 -1.25070734e+00 -1.33661527e+00 -1.44119883e+00 -1.56445802e+00
 -1.71199555e+00 -1.88567896e+00 -2.08177314e+00 -2.30214564e+00
 -2.53932622e+00 -2.78771218e+00 -3.03796570e+00 -3.28261653e+00
 -3.51045929e+00 -3.71215616e+00 -3.87836932e+00 -4.00536364e+00
 -4.08940400e+00 -4.12675528e+00 -4.11928502e+00 -4.07259593e+00
 -3.99415826e+00 -3.89330983e+00 -3.77938845e+00 -3.66359950e+00
 -3.55528082e+00 -3.46190264e+00 -3.38533253e+00 -3.32743806e+00
 -3.28261653e+00 -3.24713282e+00 -3.21164911e+00 -3.16682759e+00
 -3.09959530e+00 -3.00621712e+00 -2.87922279e+00 -2.71487720e+00
 -2.51691546e+00 -2.28347001e+00 -2.02387867e+00 -1.74374413e+00
 -1.44866908e+00 -1.14425621e+00 -8.36108222e-01 -5.29827792e-01
 -2.25414926e-01  7.52628129e-02  3.70337861e-01  6.57942655e-01
  9.38077194e-01  1.20887392e+00  1.46846525e+00  1.71685121e+00
  1.95029666e+00  2.16880160e+00  2.37423360e+00  2.56285752e+00
  2.73654094e+00  2.89528384e+00  3.04095380e+00  3.17168325e+00
  3.29120732e+00  3.39579089e+00  3.48543394e+00  3.56200405e+00
  3.62176608e+00  3.66472004e+00  3.68899837e+00  3.69646862e+00
  3.68526324e+00  3.65538222e+00  3.60682557e+00  3.53959328e+00
  3.45742048e+00  3.35843961e+00  3.24825336e+00  3.13059685e+00
  3.01107278e+00  2.89901897e+00  2.80190566e+00  2.72907068e+00
  2.69171941e+00  2.69545454e+00  2.74587875e+00  2.84485962e+00
  2.98679446e+00  3.16608056e+00  3.37524769e+00  3.59562019e+00
  3.81599269e+00  4.02142469e+00  4.19697567e+00  4.33144025e+00
  4.41921574e+00  4.45843457e+00  4.45469944e+00  4.41174548e+00
  4.34451319e+00  4.26607552e+00  4.18577029e+00  4.12227312e+00
  4.08118672e+00  4.07184891e+00  4.09612723e+00  4.15588927e+00
  4.24553232e+00  4.35758614e+00  4.48644802e+00  4.62278017e+00
  4.75724475e+00  4.88237151e+00  4.99442532e+00  5.08967107e+00
  5.16624117e+00  5.22413564e+00  5.26895717e+00  5.30070575e+00
  5.32498408e+00  5.33992459e+00  5.34926241e+00  5.34739484e+00
  5.33432190e+00  5.29883819e+00  5.23347346e+00  5.12702234e+00
  4.96454431e+00  4.73483398e+00  4.42295086e+00  4.01955713e+00
  3.52091765e+00  2.92703242e+00  2.24537171e+00  1.49274358e+00
  6.91558799e-01 -1.30169183e-01 -9.40691783e-01 -1.70265773e+00
 -2.38805357e+00 -2.97073341e+00 -3.42641893e+00 -3.74763987e+00
 -3.92879354e+00 -3.98108532e+00 -3.91572059e+00 -3.75884525e+00
 -3.53660518e+00 -3.27888140e+00 -3.01555494e+00 -2.77277167e+00
 -2.57667749e+00 -2.44221291e+00 -2.38245088e+00 -2.40299408e+00
 -2.50197495e+00 -2.67192324e+00 -2.90350112e+00 -3.17990053e+00
 -3.48431340e+00 -3.79806408e+00 -4.10434451e+00 -4.38634662e+00
 -4.63099745e+00 -4.82522406e+00 -4.96342377e+00 -5.04372900e+00
 -5.06427220e+00 -5.02878849e+00 -4.94661569e+00 -4.82148893e+00]","[-2.36735401 -1.78756311 -1.26612779 -0.8105778  -0.42844288 -0.12348793
  0.10993438  0.27558892  0.38100545  0.44124346  0.46759759  0.47324491
  0.47136247  0.46948003  0.48077466  0.50901123  0.55795462  0.62760482
  0.71231453  0.80643643  0.89679346  0.97020854  1.01162217  1.00409242
  0.94008953  0.81208375  0.61819263  0.36218107  0.05534368 -0.28726004
 -0.65057057 -1.01576354 -1.36966188 -1.70097096 -2.00216104 -2.26946723
 -2.50665442 -2.71936991 -2.91514346 -3.10715213 -3.29916081 -3.50058167
 -3.71329717 -3.93730729 -4.16884716 -4.40226947 -4.62627959 -4.83334777
 -5.01782669 -5.17406904 -5.29830995 -5.39054941 -5.45266986 -5.48655375
 -5.49784837 -5.48655375 -5.45643474 -5.40937379 -5.3453709  -5.26442606
 -5.16465685 -5.04982813 -4.91617504 -4.76934487 -4.60745521 -4.43803579
 -4.26673393 -4.09731451 -3.93918972 -3.79800687 -3.68317816 -3.60035089
 -3.55705481 -3.5514075  -3.58717382 -3.65870646 -3.76035812 -3.88083415
 -4.01072237 -4.13496327 -4.24226224 -4.3194422  -4.36273827 -4.37026802
 -4.34579633 -4.30061782 -4.24979199 -4.21214323 -4.20461348 -4.2403798
 -4.33073682 -4.47003723 -4.65451616 -4.86346677 -5.07429983 -5.26066119
 -5.39619672 -5.46208205 -5.44137523 -5.32842895 -5.12324321 -4.83899508
 -4.49074405 -4.09731451 -3.68129572 -3.25962961 -2.84549326 -2.4464164
 -2.06239905 -1.68967633 -1.32260093 -0.95552552 -0.58092036 -0.19690301
  0.18899677  0.57301412  0.94197197  1.28269324  1.58200088  1.82483538
  2.00554943  2.11661327  2.1580269   2.13543765  2.05261038  1.92460459
  1.75895005  1.57070625  1.36928539  1.16786452  0.97585585  0.80078912
  0.6464292   0.51654098  0.41488933  0.33959181  0.28876599  0.26241185
  0.25676454  0.26805917]",3.6587905284644755,0.047219470670323414,5.35457,-0.2189349999999992
006,1,1,csp,26a.png,1,1,132,313,129,1,1,326,pos_feedback_onset,3,"[ 1.50607177  1.54814641  1.53211798  1.46399713  1.34779098  1.18750664
  0.99516542  0.77477445  0.53434793  0.28190009  0.02143803 -0.24303114
 -0.50549675 -0.76395526 -1.01840665 -1.26484383 -1.50527035 -1.73768265
 -1.96608784 -2.18848237 -2.40887334 -2.63126787 -2.8536624  -3.08006403
 -3.31047278 -3.54689219 -3.78932226 -4.0417701  -4.30223216 -4.57271199
 -4.85120604 -5.13971786 -5.42822968 -5.71273439 -5.98321422 -6.22764785
 -6.43401394 -6.58628407 -6.67644401 -6.69647955 -6.64038003 -6.50814545
 -6.30578647 -6.0413173  -5.72675927 -5.38214793 -5.02351171 -4.6688826
 -4.33629258 -4.0417701  -3.80134358 -3.6210237  -3.50882465 -3.46474646
 -3.48678556 -3.56492418 -3.69315165 -3.85543955 -4.03976655 -4.23210776
 -4.42444897 -4.60276531 -4.7610461  -4.89728779 -5.00748328 -5.09163256
 -5.15173919 -5.18579961 -5.19581738 -5.17978895 -5.13571075 -5.06157924
 -4.9493802  -4.79510652 -4.59475109 -4.34230325 -4.03776299 -3.68113033
 -3.27641236 -2.83563041 -2.37080581 -1.89796699 -1.43915306 -1.01239599
 -0.63773134 -0.32517686 -0.08475035  0.08354821  0.18572948  0.23982545
  0.26587166  0.28991431  0.33799961  0.43417022  0.59846167  0.83888819
  1.16146043  1.55616063  2.0089639   2.49783115  2.99671617  3.48357987
  3.93437959  4.3330869   4.67168757  4.95218518  5.17658326  5.36291381
  5.52520171  5.68147894  5.85378461  6.05814715  6.30658789  6.6131317
  6.98178569  7.41054631  7.89941356  8.43636611  9.00737909  9.59842761
 10.18947613 10.76249266 11.29543811 11.77629114 12.18501622 12.51159557
 12.75001853 12.89427444 12.9443633  12.90629577 12.7820754  12.57771286
 12.30322592 11.96262169 11.56391438 11.11712177 10.62825452 10.11133751
  9.57839207  9.04344307  8.52051539  8.03164814  7.58685909  7.20217666
  6.88761864  6.65119923  6.49091488  6.40476205  6.38272295  6.41277627
  6.48089711  6.5690535   6.66522411  6.75137694  6.81949779  6.86357598
  6.87559731  6.85556177  6.80346935  6.72332718  6.6171388   6.48690777
  6.33463765  6.16233198  5.97600143  5.775646    5.56727635  5.3589067
  5.15654772  4.97222072  4.81393993  4.69372667  4.61759161  4.59555251
  4.62760938  4.70975511  4.84198969  5.01229181  5.21064368  5.42702755
  5.65342918  5.87582371  6.09020402  6.29256301  6.47689     6.64318501
  6.79144803  6.92368261  7.03588165  7.13405582  7.21419799  7.27831173
  7.33240769  7.37648589  7.41655697  7.46063517  7.51272758  7.58084843
  7.67100837  7.78921807  7.93347398  8.10778321  8.30613508  8.52251895
  8.75493125  8.99135066  9.22977362  9.46218592  9.686584    9.90096431
 10.1033233  10.29566451 10.47798795 10.65430073 10.82259929 10.98488719
 11.14316798 11.28942744 11.42166203 11.53386107 11.61400324 11.65207077
 11.63804589 11.55590017 11.39761938 11.15518931 10.8266064  10.41187066
  9.92099985  9.36601531  8.76895613  8.14785429  7.53276312  6.94371816
  6.40476205  5.93192323  5.54123014  5.23468633  5.01429536  4.87404656
  4.80392216  4.79190083  4.81995059  4.87805367  4.95218518  5.0343309
  5.12248729  5.21465079  5.31482851  5.43103466  5.57128346  5.74358913
  5.94995522  6.1963924   6.47689     6.78543737  7.1040025   7.41856053
  7.70106168  7.92946687]","[  0.09512808   0.26330094   0.39580077   0.49262757   0.55378134
   0.57756336   0.5707685    0.53339675   0.46714684   0.37371747
   0.2582048    0.1189101   -0.03567303  -0.20214718  -0.37371747
  -0.54358905  -0.70156961  -0.84086431  -0.95637698  -1.04640891
  -1.1092614   -1.15512672  -1.19419719  -1.24345994  -1.32329959
  -1.45240198  -1.65285045  -1.93993341  -2.32554189  -2.8113746
  -3.39573283  -4.06672556  -4.80906435  -5.59896718  -6.41265204
  -7.22803561  -8.02133587  -8.77386696  -9.47034042 -10.10056397
 -10.66114018 -11.14697289 -11.56145954 -11.90799755 -12.19168309
 -12.41761229 -12.59427873 -12.72338112 -12.81171434 -12.86437453
 -12.88475912 -12.87626554 -12.84398994 -12.79132975 -12.72507984
 -12.65203506 -12.57389414 -12.50084936 -12.43629816 -12.38533669
 -12.35136237 -12.33607393 -12.33947136 -12.35645852 -12.38193925
 -12.40741999 -12.42270843 -12.41591357 -12.37174696 -12.27831759
 -12.12373446 -11.90120269 -11.60392743 -11.23700482 -10.80892845
 -10.3298906   -9.82027587  -9.29707141  -8.78575797  -8.30332269
  -7.86675273  -7.49133655  -7.18896514  -6.96303594  -6.82034382
  -6.75919005  -6.77787593  -6.87470272  -7.04287559  -7.27390093
  -7.55928518  -7.88883604  -8.24726507  -8.62268125  -8.99979615
  -9.36671876  -9.70816063 -10.01392947 -10.27723041 -10.48617245
 -10.64075559 -10.73418496 -10.76985799 -10.74607597 -10.66623633
 -10.53543521 -10.35707006 -10.13793572  -9.88652579  -9.60623768
  -9.31235986  -9.01338588  -8.72630291  -8.46470069  -8.24896378
  -8.09777808  -8.02982945  -8.05870762  -8.19800231  -8.45111096
  -8.81803357  -9.29027655  -9.85255147 -10.48277502 -11.15546647
 -11.84174764 -12.50934294 -13.13447034 -13.69164911 -14.16219338
 -14.53421214 -14.7992118  -14.95719236 -15.01834613 -14.98776925
 -14.88244887 -14.71597472 -14.50023782 -14.24712917 -13.96684107]",9.375782638400521,-0.2410137935720446,4.99113,0.7306250000000016
006,1,1,csp,49a.png,1,1,24,225,24,1,1,398,pos_feedback_onset,4,"[ 1.38188978e+00  1.29866175e+00  1.18092454e+00  1.02664819e+00
  8.41922567e-01  6.32837518e-01  4.13602708e-01  1.96397850e-01
 -6.59734381e-03 -1.83203163e-01 -3.29359702e-01 -4.41007059e-01
 -5.22205137e-01 -5.81073743e-01 -6.27762638e-01 -6.74451532e-01
 -7.37380043e-01 -8.26697928e-01 -9.46465092e-01 -1.09668154e+00
 -1.27531731e+00 -1.46613279e+00 -1.65491832e+00 -1.82746423e+00
 -1.96144106e+00 -2.04872900e+00 -2.07917828e+00 -2.05075895e+00
 -1.97159082e+00 -1.85385361e+00 -1.71378693e+00 -1.56966034e+00
 -1.43974341e+00 -1.33824582e+00 -1.27734726e+00 -1.26110764e+00
 -1.28343711e+00 -1.33621587e+00 -1.40523423e+00 -1.46816274e+00
 -1.50876178e+00 -1.51079173e+00 -1.45801298e+00 -1.34230572e+00
 -1.16366995e+00 -9.18045765e-01 -6.13552974e-01 -2.58311384e-01
  1.33469340e-01  5.53669392e-01  9.88079107e-01  1.42654873e+00
  1.85486859e+00  2.26694883e+00  2.65263970e+00  3.00382138e+00
  3.31846394e+00  3.59656735e+00  3.83610168e+00  4.04112683e+00
  4.21976260e+00  4.37606890e+00  4.51816553e+00  4.65011241e+00
  4.77799938e+00  4.89979650e+00  5.01347381e+00  5.11091150e+00
  5.18195982e+00  5.21849895e+00  5.21037914e+00  5.14542068e+00
  5.02565352e+00  4.84701775e+00  4.61763318e+00  4.34764957e+00
  4.04924663e+00  3.73866399e+00  3.43214124e+00  3.14388807e+00
  2.88202427e+00  2.65872955e+00  2.47806383e+00  2.33799715e+00
  2.24461936e+00  2.19184061e+00  2.18169085e+00  2.21011018e+00
  2.27506864e+00  2.37656623e+00  2.51460297e+00  2.68308898e+00
  2.88608417e+00  3.11749869e+00  3.38139245e+00  3.67573548e+00
  3.99443793e+00  4.33952976e+00  4.70086121e+00  5.07031246e+00
  5.43976371e+00  5.79297535e+00  6.11776766e+00  6.39790103e+00
  6.62119574e+00  6.77547209e+00  6.85870012e+00  6.86276002e+00
  6.79374166e+00  6.65773488e+00  6.46488944e+00  6.22941502e+00
  5.96755122e+00  5.69959756e+00  5.44382362e+00  5.21849895e+00
  5.04392309e+00  4.92821582e+00  4.88761679e+00  4.92415592e+00
  5.03783323e+00  5.22052890e+00  5.46615309e+00  5.75846617e+00
  6.08528843e+00  6.43444016e+00  6.79577161e+00  7.16319291e+00
  7.53264416e+00  7.90818527e+00  8.28981624e+00  8.67956701e+00
  9.08352745e+00  9.49560769e+00  9.91783770e+00  1.03380377e+01
  1.07501180e+01  1.11398688e+01  1.14991703e+01  1.18178727e+01
  1.20919162e+01  1.23192708e+01  1.24979066e+01  1.26400032e+01
  1.27496207e+01  1.28389385e+01  1.29221666e+01  1.30114845e+01
  1.31129821e+01  1.32388391e+01  1.33849956e+01  1.35555116e+01
  1.37422672e+01  1.39371425e+01  1.41238981e+01  1.42883242e+01
  1.44182411e+01  1.44933494e+01  1.45055291e+01  1.44446305e+01
  1.43086237e+01  1.40975087e+01  1.38254952e+01  1.35007029e+01
  1.31434313e+01  1.27760100e+01  1.24187385e+01  1.20919162e+01
  1.18097529e+01  1.15864582e+01  1.14321818e+01  1.13448939e+01
  1.13266243e+01  1.13672234e+01  1.14606012e+01  1.15925480e+01
  1.17529142e+01  1.19254602e+01  1.21000360e+01  1.22624322e+01
  1.24024989e+01  1.25141462e+01  1.25912844e+01  1.26298535e+01
  1.26318834e+01  1.26014342e+01  1.25445955e+01  1.24735472e+01
  1.23943791e+01  1.23172409e+01  1.22522824e+01  1.22015336e+01
  1.21710843e+01  1.21609346e+01  1.21649945e+01  1.21792042e+01
  1.21934138e+01  1.21934138e+01  1.21629645e+01  1.20837964e+01
  1.19295201e+01  1.16838959e+01  1.13225644e+01  1.08292861e+01
  1.01979711e+01  9.42455937e+00  8.52123076e+00  7.50422484e+00
  6.40602084e+00  5.25909799e+00  4.09999543e+00  2.96931220e+00
  1.89749758e+00  9.15000837e-01  3.80615989e-02 -7.23170379e-01
 -1.37072505e+00 -1.91475217e+00 -2.36946140e+00 -2.75515227e+00
 -3.09212429e+00 -3.40270694e+00 -3.69907992e+00 -3.99545291e+00
 -4.29994570e+00 -4.61255830e+00 -4.93532066e+00 -5.26417287e+00
 -5.58896518e+00 -5.90766764e+00 -6.20810052e+00 -6.48214404e+00
 -6.72573827e+00 -6.92670351e+00 -7.08097986e+00 -7.17841755e+00
 -7.21089678e+00 -7.17435765e+00 -7.06068034e+00 -6.86377500e+00
 -6.58567158e+00 -6.22434014e+00 -5.78790047e+00 -5.28041249e+00
 -4.71811580e+00 -4.11319012e+00 -3.48390502e+00 -2.84650011e+00
 -2.21721501e+00 -1.61025938e+00 -1.03375303e+00 -4.95815762e-01
 -5.07487985e-04  4.54201747e-01  8.70341895e-01  1.24791296e+00
  1.59300479e+00  1.90358743e+00  2.18372080e+00  2.42934499e+00]","[  1.78256955   1.83878264   1.87567247   1.88445577   1.85634922
   1.78256955   1.65609012   1.46988428   1.22395204   0.91478009
   0.55115171   0.13482357  -0.32542105  -0.81552886  -1.3302299
  -1.85722755  -2.38598186  -2.9094662   -3.42416723  -3.92305834
  -4.40965284  -4.88395073  -5.35122198  -5.82200654  -6.30508772
  -6.81276213  -7.35381305  -7.93702378  -8.5676643   -9.24924793
  -9.97826135 -10.74767792 -11.54871435 -12.36380404 -13.17889374
 -13.96939022 -14.71948354 -15.40985046 -16.02116774 -16.54113875
 -16.96449353 -17.28947542 -17.51784107 -17.65661711 -17.71810017
 -17.71458686 -17.66013043 -17.56702751 -17.44757471 -17.31055532
 -17.1665093  -17.0171933  -16.86612064 -16.71504798 -16.56397532
 -16.411146   -16.25129005 -16.0826508  -15.90171494 -15.70672581
 -15.49768341 -15.27283108 -15.03568213 -14.78799324 -14.53327771
 -14.2732922  -14.01330669 -13.75507784 -13.50387563 -13.26672669
 -13.04538767 -12.84688522 -12.67473266 -12.53419995 -12.4252871
 -12.35150743 -12.31110428 -12.3058343  -12.32867087 -12.37785732
 -12.44988033 -12.53771327 -12.63784282 -12.74324235 -12.85039854
 -12.95755473 -13.05768428 -13.14903054 -13.22983685 -13.30185986
 -13.36334292 -13.41779935 -13.46874245 -13.52495553 -13.58995191
 -13.67251488 -13.77791441 -13.90966382 -14.07127643 -14.25923893
 -14.47355131 -14.70894359 -14.9601458  -15.22364463 -15.49417009
 -15.76820887 -16.04751762 -16.32858304 -16.61140511 -16.89247052
 -17.1665093  -17.42473815 -17.65661711 -17.84984959 -17.99038229
 -18.06416196 -18.06240531 -17.97457236 -17.80066314 -17.53892097
 -17.19988582 -16.79058431 -16.32858304 -15.82969193 -15.31147757
 -14.79150655 -14.28383215 -13.80426429 -13.36509958 -12.97687798
 -12.64838278 -12.38664061 -12.19692146 -12.08449529 -12.05287543
 -12.10206188 -12.22678466 -12.42353045 -12.68175929 -12.98566127]",12.834878634248323,-0.6367315452965052,4.9262250000000005,0.3669549999999999
006,1,1,csp,59a.png,1,1,40,146,38,1,1,364,pos_feedback_onset,5,"[-1.43514099 -1.3931034  -1.29796571 -1.16742795 -1.01697765 -0.85988984
 -0.70943954 -0.56783926 -0.4373015  -0.31782626 -0.20056352 -0.07223827
  0.07821203  0.26848741  0.50965039  0.8171885   1.19552676  1.65130267
  2.18009122  2.77525491  3.4213062   4.10275755  4.79748394  5.4811478
  6.1316241   6.72678779  7.24672632  7.67595218  8.00561534  8.23129079
  8.35740354  8.39280361  8.35297853  8.25341583  8.11402805  7.95472773
  7.79100241  7.6361271   7.49895183  7.3839016   7.2865514   7.20468874
  7.1338886   7.06530096  6.99450082  6.91927567  6.83741301  6.74670033
  6.65377514  6.55863745  6.46571227  6.37942459  6.29977444  6.2311868
  6.1802992   6.14932414  6.14711163  6.17587419  6.24667433  6.36393706
  6.52766239  6.74006281  6.99892583  7.29318892  7.61400206  7.94145271
  8.26226585  8.55652893  8.80654193  9.00124232  9.12735507  9.18045518
  9.15611763  9.06097994  8.89725461  8.67157916  8.3905911   8.06314045
  7.69586472  7.30203893  6.89272562  6.47677479  6.06746147  5.6824857
  5.33291001  5.0297969   4.78199641  4.59614604  4.47224579  4.40365815
  4.38153311  4.39480814  4.4279957   4.47003329  4.50985837  4.53419592
  4.54304593  4.53198341  4.50322085  4.46339577  4.41914569  4.38153311
  4.35498306  4.35055805  4.3771081   4.44127073  4.54525844  4.69792124
  4.90368415  5.16475967  5.49221033  5.89046112  6.37057458  6.94140071
  7.60736454  8.37510357  9.2401928  10.19156969 11.20932172 12.26247382
 13.31562592 14.32452793 15.23607975 16.0104563  16.60119497 16.97510822
 17.114496   17.01272079 16.67863263 16.13878155 15.42635513 14.59224097
 13.68290166 12.75586231 11.85537301 11.02125885 10.28891989  9.67163116
  9.17824267  8.79990442  8.52334137  8.32421597  8.18040318  8.06535296
  7.95915274  7.84410251  7.71798976  7.57417698  7.42151417  7.26885137
  7.12725108  7.00998835  6.93033819  6.89493812  6.91263816  6.98786331
  7.12061357  7.31310146  7.56532696  7.87286507  8.23571579  8.64945412
  9.10965504  9.61189354 10.15174462 10.72478326 11.32215945 11.93502317
 12.55894941 13.18287566 13.80016439 14.40196559 14.98385425 15.53698035
 16.05028138 16.52154481 16.93970815 17.30034637 17.60124697 17.83798494
 18.01277279 18.13224803 18.20304817 18.23402323 18.23844824 18.22959822
 18.2207482  18.2207482  18.24066074 18.28712333 18.35792348 18.45527367
 18.5703239  18.69864916 18.82918692 18.94644965 19.04379984 19.11017498
 19.13451252 19.11238748 19.04379984 18.92653711 18.76281178 18.56147388
 18.32473591 18.05923538 17.77603482 17.47955922 17.17644612 16.86890801
 16.5657949  16.26931931 15.98390624 15.7095557  15.45069268 15.2095297
 14.98827926 14.78694136 14.609941   14.46170321 14.34222797 14.2559403
 14.20947771 14.2050527  14.24266527 14.32674044 14.45064069 14.609941
 14.79357887 14.99270427 15.18961716 15.37546753 15.53255534 15.65203058
 15.72283072 15.74274326 15.7095557  15.62548053 15.49715527 15.33121744
 15.13651705 14.92190413 14.69622868 14.46834072 14.24266527 14.02362733
 13.81343942 13.61652652 13.43510116 13.27580084 13.14305058 13.04348788
 12.99038777 12.99260028 13.05897541 13.2027882  13.43067615 13.74485178
 14.14974009 14.64091607]","[  1.16018925   1.1069003    1.01808538   0.89907339   0.75341693
   0.58644489   0.40703876   0.22230373   0.04112131  -0.12940333
  -0.28394129  -0.41538736  -0.52196526  -0.60189869  -0.65341134
  -0.68360841  -0.69959509  -0.71025288  -0.72801587  -0.76709443
  -0.83814636  -0.95360575  -1.1188015   -1.33550989  -1.60017834
  -1.90570165  -2.24142203  -2.598458    -2.96082285  -3.32141141
  -3.66956588  -3.99995737  -4.30903328  -4.59501731  -4.85613316
  -5.09238083  -5.30020774  -5.47606127  -5.61638884  -5.71408525
  -5.7638216   -5.7584927   -5.69632226  -5.57731028  -5.41033823
  -5.20428763  -4.97692144  -4.74777896  -4.53995206  -4.37298002
  -4.26640212  -4.23087615  -4.27173101  -4.38363781  -4.55238615
  -4.76198935  -4.98935553  -5.20784023  -5.40145674  -5.5506658
  -5.64658591  -5.68211188  -5.6607963   -5.58796807  -5.46895608
  -5.31264183  -5.1296831   -4.92540879  -4.7069241   -4.48311051
  -4.25752063  -4.03548334  -3.82943273  -3.64469771  -3.49371235
  -3.38891075  -3.34450329  -3.37114776  -3.48127826  -3.68732886
  -3.99462847  -4.40495339  -4.9183036   -5.52935022  -6.22743546
  -6.99657263  -7.82077505  -8.67872714  -9.54378442 -10.39285502
 -11.19929445 -11.94001085 -12.59368863 -13.14611741 -13.58663939
 -13.91525458 -14.13018668 -14.24209347 -14.26163276 -14.19946231
 -14.06623994 -13.87439972 -13.62927055 -13.33795763 -13.00046095
 -12.61855681 -12.19757411 -11.73396025 -11.23659672 -10.71081242
 -10.16548883  -9.61483635  -9.06773647  -8.54372847  -8.05524643
  -7.61294815  -7.23104401  -6.91308661  -6.66262855  -6.48322242
  -6.36953933  -6.31802667  -6.32335557  -6.38019712  -6.48499872
  -6.62887888  -6.81183761  -7.0267697   -7.27189887  -7.54011992
  -7.82610395  -8.11564057  -8.3998483   -8.66451675  -8.89721183
  -9.08727575  -9.22582702  -9.31286564  -9.3519442   -9.34839161]",17.791522346847643,-5.540012892879531e-15,4.519765000000001,0.5240300000000016
006,1,1,csm,47b.png,1,1,200,208,201,1,1,411,neu_feedback_onset,6,"[ -0.35456184  -0.22668707  -0.09687482   0.02518745   0.13756224
   0.23056207   0.29837444   0.33518687   0.34099936   0.31387441
   0.25574952   0.17243718   0.07168737  -0.03681243  -0.14143723
  -0.23056207  -0.29062446  -0.31193692  -0.28674946  -0.20537461
  -0.06587488   0.13174975   0.38943677   0.69943619   1.05593552
   1.45118478   1.87549648   2.31724566   2.76286982   3.20268149
   3.6250557    4.01642997   4.36905431   4.67517873   4.92899076
   5.12855288   5.27386511   5.36492744   5.40948986   5.41142735
   5.37461492   5.30099006   5.19830275   5.06267801   4.89605332
   4.70230368   4.4794916    4.23342956   3.96799256   3.69286808
   3.41774359   3.15230659   2.90430705   2.68149497   2.48387034
   2.31143317   2.15449596   2.00143375   1.83480906   1.64299692
   1.40662236   1.11599791   0.76531107   0.34874935  -0.12787476
  -0.65874876  -1.23031019  -1.82705907  -2.43349544  -3.03605681
  -3.61536822  -4.1617422   -4.66161626  -5.10917792  -5.49667719
  -5.82798907  -6.10117606  -6.32398814  -6.5061128   -6.65723752
  -6.78898727  -6.91879953  -7.05442427  -7.21136148  -7.39348614
  -7.61048573  -7.86429775  -8.14910972  -8.46492163  -8.802046
  -9.15273284  -9.50729467  -9.85604402 -10.1892934  -10.49735532
 -10.7744173  -11.01272935 -11.21229148 -11.36341619 -11.468041
 -11.5203534  -11.5184159  -11.45835352 -11.33822874 -11.15222909
 -10.89454207 -10.56323019 -10.15054347  -9.65648189  -9.08104547
  -8.4242342   -7.69186058  -6.89361207  -6.04692616  -5.16536531
  -4.2683045   -3.37705617  -2.51293279  -1.68949683  -0.92418577
  -0.22474958   0.40106175   0.95131072   1.42793482   1.83868405
   2.1854959    2.47999535   2.72411989   2.92755701   3.0941817
   3.22399396   3.32086877   3.38480615   3.41968109   3.42743107
   3.40999361   3.37318118   3.32668126   3.27436886   3.22980644
   3.1988065    3.19299401   3.21624397   3.27436886   3.36736869
   3.48749346   3.63086819   3.78199291   3.92343014   4.03967993
   4.11136729   4.11911728   4.04936741   3.88855521   3.63086819
   3.27436886   2.82293221   2.28430822   1.67205936   1.00362312
   0.29643694  -0.4262492   -1.14506035  -1.84062155  -2.49743282
  -3.09611919  -3.6289307   -4.08230485  -4.45430415  -4.74105361
  -4.94449073  -5.066553    -5.11499041  -5.09755294  -5.01811559
  -4.89024083  -4.71780365  -4.51630403  -4.29155445  -4.0551799
  -3.81493035  -3.58243078  -3.3615562   -3.15618158  -2.97018193
  -2.79968225  -2.64468254  -2.49549532  -2.3482456   -2.19324589
  -2.02274621  -1.83093407  -1.60812198  -1.35043497  -1.05399802
  -0.71299866  -0.32356189   0.11431229   0.60062387   1.13343537
   1.7069343    2.31337066   2.93918199   3.56693081   4.18111716
   4.75849108   5.2777401    5.71755178   6.06436363   6.30073819
   6.42667545   6.43830043   6.34336311   6.15348846   5.88223897
   5.5451146    5.15180284   4.71586616   4.24117955   3.72968051
   3.17555655   2.57493267   1.91618391   1.18962277   0.39331176
  -0.47662411  -1.41437235  -2.40637049  -3.43518106  -4.4794916
  -5.51217716  -6.51192529  -7.45161103  -8.31379691  -9.08685796
  -9.7591692  -10.33266813 -10.80929223 -11.198729   -11.51066592
 -11.75672796 -11.95047759 -12.10353981 -12.22366458 -12.3205394
 -12.39803925 -12.46391413 -12.51622653 -12.56272644 -12.59760138
 -12.62472633 -12.6382888  -12.6382888  -12.61503885 -12.56660144
 -12.48522659 -12.36316432 -12.19653963 -11.97954004 -11.71410304]","[ -0.1289626    0.03213354   0.17780558   0.30119837   0.40059811
   0.46743587   0.50171165   0.50342544   0.47086345   0.40916706
   0.32005004   0.21036756   0.08526099  -0.0535559   -0.20265552
  -0.3568965   -0.51970643  -0.68937151  -0.86931933  -1.05954987
  -1.26349073  -1.48285569  -1.71250337  -1.95243379  -2.19921937
  -2.44257737  -2.680794    -2.90530032  -3.11266875  -3.30118551
  -3.46913681  -3.62337779  -3.76904983  -3.91643566  -4.07581801
  -4.25747962  -4.47170321  -4.72363015  -5.01668802  -5.34916303
  -5.71420002  -6.10494385  -6.5076842   -6.91042455  -7.30630974
  -7.68334326  -8.03466995  -8.35343465  -8.63792357  -8.88470915
  -9.08693622  -9.24289099  -9.3474321   -9.39884576  -9.39541819
  -9.33714937  -9.22918068  -9.08008106  -8.90356082  -8.71675785
  -8.53852383  -8.38771042  -8.28316931  -8.24546596  -8.2848831
  -8.40998967  -8.62078569  -8.91555735  -9.27888055  -9.697045
 -10.15119901 -10.61906333 -11.08178628 -11.52394377 -11.92839791
 -12.29000733 -12.60534445 -12.8709817  -13.09377423 -13.27714963
 -13.42624924 -13.54278688 -13.62676252 -13.67988997 -13.69702786
 -13.67303482 -13.60448327 -13.49137322 -13.33713223 -13.1451879
 -12.92753673 -12.69788904 -12.47166893 -12.26258671 -12.08263889
 -11.94382201 -11.84956363 -11.80157754 -11.79986375 -11.83585332
 -11.90611865 -12.00380461 -12.12034224 -12.2488764  -12.38940707
 -12.53507911 -12.68760631 -12.84698866 -13.01322616 -13.1897464
 -13.38340453 -13.59762812 -13.83927233 -14.11519231 -14.43224322
 -14.79899401 -15.22058603 -15.69873308 -16.23343516 -16.8195509
 -17.44679757 -18.10317865 -18.76812867 -19.42108217 -20.04147369
 -20.60359639 -21.09031238 -21.48105621 -21.76211756 -21.92664127
 -21.97462736 -21.90607581 -21.73126936 -21.46391832 -21.12458816
 -20.72698917 -20.29511442 -19.84781556 -19.39880292 -18.96521437]",2.0986960649448667,-0.5086620118260933,5.161300000000001,1.0115849999999993
006,1,1,csp,52a.png,1,0,288,317,289,1,1,281,pos_feedback_onset,7,"[-6.92646622 -6.49449714 -5.96981274 -5.36294885 -4.68233415 -3.93850446
 -3.13778128 -2.29070044 -1.40990495 -0.50171629  0.41911537  1.33573269
  2.23759985  3.10785952  3.92965436  4.69455571  5.38992058  6.01153463
  6.55729069  7.0314031   7.44019335  7.78787579  8.0870934   8.34838201
  8.5801703   8.79510126  9.00371072  9.21442735  9.44410847  9.69696842
  9.9856502  10.3164753  10.68944373 11.10455548 11.54916756 12.01063698
 12.46999922 12.89775397 13.2707224  13.56151134 13.74904914 13.8143713
 13.75326347 13.56151134 13.2517579  12.83453898 12.33303341 11.76620569
 11.15723464 10.52719193  9.89082772  9.26289217  8.65181395  8.06602173
  7.50551551  6.97872394  6.4877542   6.03892779  5.63645903  5.29299093
  5.01905932  4.82309286  4.71773454  4.70930588  4.80202119  4.99588049
  5.28034794  5.64278053  6.05999945  6.5130402   6.97240244  7.41701452
  7.82580478  8.18402304  8.48745499  8.73188627  8.92785273  9.08167587
  9.21232018  9.33032149  9.45253713  9.58528861  9.73700458  9.91189938
 10.10575867 10.3164753  10.53983492 10.76740888 10.99498284 11.21834246
 11.43538059 11.64188288 11.83574218 12.01485131 12.17921028 12.31828325
 12.4278559  12.50160671 12.52689271 12.49739238 12.4025699  12.2339966
 11.98956531 11.66084738 11.25416429 10.77162321 10.21954565  9.61478894
  8.96788889  8.29781002  7.62351682  6.95765228  6.31707374  5.71231702
  5.14970363  4.63976939  4.18251431  3.78425989  3.44711329  3.17528884
  2.97300088  2.8465709   2.79599891  2.81917774  2.91400022  3.06993053
  3.27432565  3.50611394  3.74843806  3.97601202  4.16776415  4.30472996
  4.36794494  4.34898045  4.24362213  4.04765567  3.77372406  3.43447029
  3.0467517   2.63585428  2.22495686  1.84355976  1.51905616  1.27462487
  1.1355519   1.11869457  1.24091021  1.50430599  1.91309625  2.46095948
  3.13314551  3.91068987  4.7704137   5.68703102  6.63525584  7.58980216
  8.52749114  9.43146547 10.28697497 11.08559099 11.82942068 12.51846404
 13.15904259 13.75537064 14.3200912  14.85531143 15.36735283 15.85832257
 16.33032781 16.78547572 17.21955197 17.63466373 18.02870382 18.40377941
 18.76199768 19.10335861 19.42786222 19.73550849 20.02419027 20.29180038
 20.53201734 20.74273396 20.9218431  21.06934473 21.18734605 21.28216853
 21.36013368 21.43599166 21.51184965 21.5961363  21.68885162 21.7836741
 21.87006791 21.93117574 21.9522474  21.91431841 21.80053143 21.60667213
 21.33063335 20.98084375 20.57416066 20.13165575 19.678615   19.24453875
 18.85049866 18.51335206 18.24363478 18.04345398 17.90438101 17.81798719
 17.76320087 17.72316471 17.68102139 17.61991356 17.52509108 17.39233961
 17.21323048 16.98354935 16.70540341 16.3808998  16.00793137 15.59281962
 15.13977887 14.64880913 14.1262319  13.57415434 12.99679079 12.39835557
 11.78095585 11.15302031 10.51454893  9.87186322  9.23128468  8.5991348
  7.97962792  7.3811927   6.81015064  6.27071608  5.76921051  5.30984826
  4.89473651  4.53019675  4.21622897  3.95704752  3.75475956  3.60936509
  3.52718561  3.51032828  3.56722176  3.69786607  3.91068987  4.20780031
  4.5955189   5.06752414  5.6259232   6.25807308  6.95343795  7.69516047
  8.46849049  9.24814201]","[-1.48126012e+00 -1.64183032e+00 -1.77563882e+00 -1.86841272e+00
 -1.90409499e+00 -1.86841272e+00 -1.75601358e+00 -1.55797699e+00
 -1.27965531e+00 -9.26400864e-01 -5.08918337e-01 -4.14806357e-02
  4.58071106e-01  9.70111641e-01  1.47679984e+00  1.96029456e+00
  2.40632290e+00  2.80061195e+00  3.13602526e+00  3.40185815e+00
  3.59454240e+00  3.70515743e+00  3.73370324e+00  3.67304339e+00
  3.52853020e+00  3.30016369e+00  2.99329619e+00  2.62220061e+00
  2.19936575e+00  1.74620095e+00  1.28054737e+00  8.23814345e-01
  3.92058911e-01  1.33808502e-03 -3.41211681e-01 -6.28453932e-01
 -8.63956896e-01 -1.05128880e+00 -1.19937021e+00 -1.31712169e+00
 -1.41346381e+00 -1.49910125e+00 -1.58473869e+00 -1.67929670e+00
 -1.78991173e+00 -1.92907257e+00 -2.10213157e+00 -2.31800929e+00
 -2.57848984e+00 -2.89249379e+00 -3.25645292e+00 -3.67036722e+00
 -4.13066846e+00 -4.63200432e+00 -5.16723833e+00 -5.72923404e+00
 -6.30907088e+00 -6.89782829e+00 -7.49015392e+00 -8.07712722e+00
 -8.64982761e+00 -9.20468687e+00 -9.73100031e+00 -1.02251997e+01
 -1.06783645e+01 -1.10851423e+01 -1.14366127e+01 -1.17309914e+01
 -1.19629261e+01 -1.21324169e+01 -1.22394637e+01 -1.22894189e+01
 -1.22822824e+01 -1.22287590e+01 -1.21324169e+01 -1.20021766e+01
 -1.18398223e+01 -1.16560586e+01 -1.14526697e+01 -1.12385761e+01
 -1.10209143e+01 -1.08086048e+01 -1.06105682e+01 -1.04392933e+01
 -1.03019166e+01 -1.02109268e+01 -1.01770286e+01 -1.02020062e+01
 -1.02929960e+01 -1.04482139e+01 -1.06640916e+01 -1.09352768e+01
 -1.12510649e+01 -1.16025352e+01 -1.19736308e+01 -1.23536470e+01
 -1.27247425e+01 -1.30744287e+01 -1.33884327e+01 -1.36524815e+01
 -1.38540863e+01 -1.39843266e+01 -1.40324976e+01 -1.39932471e+01
 -1.38576545e+01 -1.36292880e+01 -1.33063635e+01 -1.28978015e+01
 -1.24125227e+01 -1.18683681e+01 -1.12796107e+01 -1.06676598e+01
 -1.00539248e+01 -9.45981508e+00 -8.90495582e+00 -8.40897231e+00
 -7.98613744e+00 -7.64537179e+00 -7.39381180e+00 -7.23324160e+00
 -7.16187707e+00 -7.17614997e+00 -7.26535564e+00 -7.42057350e+00
 -7.62931477e+00 -7.87552241e+00 -8.14849176e+00 -8.43038167e+00
 -8.71048746e+00 -8.97632036e+00 -9.21539155e+00 -9.42056458e+00
 -9.58827124e+00 -9.71494329e+00 -9.80414896e+00 -9.85588824e+00
 -9.87908172e+00 -9.87551349e+00 -9.85410413e+00 -9.82199009e+00]",20.140821921272035,0.7100771183000899,4.745710000000001,0.9068500000000004
006,1,1,csp,9a.png,1,1,168,138,167,1,1,296,pos_feedback_onset,8,"[ 2.98208588  2.80206578  2.56274495  2.26624125  1.92737989  1.55251451
  1.15647029  0.74983666  0.34108514 -0.06554849 -0.45947483 -0.83434021
 -1.18379099 -1.50147352 -1.77256261 -1.98858673 -2.13472069 -2.19825719
 -2.16648894 -2.03518016 -1.80009509 -1.4654695  -1.04189279 -0.5526617
 -0.02319082  0.52110524  1.04210458  1.51015684  1.89561164  2.17517226
  2.33613141  2.37425331  2.29589162  2.11587152  1.85960762  1.55463239
  1.23059622  0.91291369  0.6291173   0.39403223  0.22036578  0.11023584
  0.06787817  0.08482123  0.15259351  0.26484133  0.41521106  0.59311328
  0.79854798  1.02304363  1.26448235  1.52286414  1.79607111  2.07986751
  2.3763712   2.67711066  2.98420377  3.28917899  3.58991845  3.87795061
  4.15327547  4.4053036   4.62979926  4.81829089  4.96442485  5.05761173
  5.08514421  5.03855077  4.90300623  4.66792116  4.32482403  3.86947907
  3.30188629  2.62628145  1.85960762  1.01880786  0.12929679 -0.78139312
 -1.68149362 -2.54135432 -3.33556064 -4.03869797 -4.63594112 -5.11881856
 -5.48097664 -5.72876901 -5.87066721 -5.91937853 -5.89396393 -5.8071307
 -5.68005769 -5.52757008 -5.36449305 -5.20141602 -5.04681052 -4.90491232
 -4.7799572  -4.67194514 -4.58087615 -4.50463234 -4.43686007 -4.37967721
 -4.32884801 -4.2780188  -4.22295383 -4.16365309 -4.09164506 -4.00692971
 -3.90950707 -3.79302348 -3.66383259 -3.51981651 -3.36309313 -3.19366245
 -3.01152446 -2.81667918 -2.6091266  -2.38251306 -2.13472069 -1.86151371
 -1.55442061 -1.21344136 -0.83222233 -0.41288139  0.04034568  0.52534101
  1.02939728  1.54192509  2.04809925  2.53521246  2.9926753   3.40989835
  3.78264585  4.1109178   4.39683207  4.65309598  4.88394528  5.10208728
  5.32022928  5.54472493  5.78192789  6.03607391  6.30504512  6.58672362
  6.87052001  7.15431641  7.42116973  7.66260845  7.86804315  8.02688441
  8.12642494  8.16031107  8.12430705  8.01417711  7.83203913  7.57789311
  7.26021058  6.88746308  6.47659368  6.03819179  5.59343626  5.15927013
  4.75687227  4.40318572  4.11515356  3.90548309  3.78476373  3.75723125
  3.82500352  3.9817269   4.22316562  4.53661238  4.91359565  5.33505447
  5.79039942  6.26692321  6.74980065  7.23056021  7.70073035  8.14760377
  8.56906259  8.95663528  9.31032182  9.62588647  9.90332921 10.14688581
 10.35867416 10.54293003 10.70388918 10.85002314 10.97921403 11.09569763
 11.19735603 11.28207137 11.34560788 11.38796555 11.40067285 11.38796555
 11.35196153 11.29477868 11.22488852 11.15499836 11.08934397 11.04275054
 11.01733594 11.02368959 11.05757572 11.11687646 11.2015918  11.29901444
 11.40279074 11.50444914 11.5997539  11.68446924 11.7543594  11.81577802
 11.87084299 11.92590796 11.9852087  12.05509886 12.13557843 12.23088319
 12.33677736 12.44267154 12.54009418 12.61845587 12.66081354 12.65445989
 12.58668762 12.45114307 12.24147261 11.95344045 11.59551813 11.17194143
 10.69118187 10.16382888  9.60047186  9.01170025  8.40386768  7.78544569
  7.16490582  6.54648384  5.93653338  5.34140812  4.76746168  4.22316562
  3.71487358  3.24682132  2.82748039  2.45685077  2.13281459  1.85325397
  1.6054616   1.38096595  1.16917759  0.95950713  0.74348301  0.51686947
  0.28602017  0.05517087]","[ -1.45466346  -1.13105761  -0.83135447  -0.55739269  -0.32020431
  -0.11795066   0.04569094   0.17072047   0.25897661   0.3141367
   0.34171675   0.3509101    0.34355542   0.33068473   0.31965271
   0.31965271   0.3325234    0.36561945   0.42077954   0.49800366
   0.58809848   0.68738663   0.78299745   0.86573759   0.92273634
   0.94847772   0.93376836   0.88228561   0.79402947   0.67819329
   0.54213174   0.39687684   0.24978327   0.10820571  -0.02417851
  -0.14920804  -0.26688289  -0.38271908  -0.50590994  -0.64013283
  -0.78722639  -0.94902932  -1.12738027  -1.31492457  -1.50798488
  -1.70104519  -1.88858949  -2.06510177  -2.2269047   -2.37399827
  -2.50270514  -2.61670266  -2.71782949  -2.8079243   -2.8925031
  -2.97340456  -3.05798337  -3.14807818  -3.24920501  -3.3705572
  -3.51765077  -3.69784039  -3.92031941  -4.19428119  -4.52524172
  -4.91871701  -5.37654575  -5.90056659  -6.48342485  -7.11776587
  -7.79071895  -8.48757473  -9.19362386  -9.89047964 -10.56711006
 -11.21064443 -11.80821205 -12.35429692 -12.84154437 -13.26259971
 -13.61378561 -13.88958605 -14.08448503 -14.19848255 -14.22790126
 -14.17274117 -14.03667962 -13.82707128 -13.54943217 -13.2147943
 -12.83235102 -12.41497302 -11.97185365 -11.51402491 -11.0488415
 -10.58549676 -10.1350227   -9.70661268  -9.31313739  -8.9674675
  -8.68982839  -8.49492941  -8.40299593  -8.43057597  -8.5923789
  -8.89392071  -9.33704009  -9.91070501 -10.59652878 -11.37060868
 -12.19801001 -13.04012069 -13.85832867 -14.61402188 -15.27410427
 -15.80915713 -16.20447109 -16.45085282 -16.55197965 -16.51704493
 -16.36627402 -16.12724697 -15.82570515 -15.49106728 -15.1453974
 -14.81075953 -14.49818569 -14.21686924 -13.96497151 -13.73329913
 -13.51633612 -13.29753444 -13.06218473 -12.7974163  -12.49403582
 -12.14101125 -11.73650394 -11.2786752  -10.77120239 -10.22327884]",10.588252735511261,0.15049510775981043,4.721695000000001,0.580144999999999
006,1,1,csm,55b.png,1,1,56,318,51,1,1,275,neu_feedback_onset,9,"[ 1.90447400e+00  1.77750907e+00  1.69488110e+00  1.64248287e+00
  1.59613059e+00  1.54171705e+00  1.45505844e+00  1.32204756e+00
  1.13059250e+00  8.74647320e-01  5.50181378e-01  1.61225312e-01
 -2.82144297e-01 -7.63804917e-01 -1.26763402e+00 -1.77549375e+00
 -2.26521564e+00 -2.71866183e+00 -3.11970979e+00 -3.45828295e+00
 -3.72430472e+00 -3.91979041e+00 -4.05078597e+00 -4.12132205e+00
 -4.14752116e+00 -4.13744458e+00 -4.10318420e+00 -4.05280129e+00
 -3.98629585e+00 -3.90366788e+00 -3.79685611e+00 -3.66384522e+00
 -3.49254333e+00 -3.28496574e+00 -3.03909714e+00 -2.76501411e+00
 -2.47279323e+00 -2.18258767e+00 -1.91455058e+00 -1.68883515e+00
 -1.52156389e+00 -1.42281338e+00 -1.39862958e+00 -1.44296655e+00
 -1.54171705e+00 -1.67674325e+00 -1.82789198e+00 -1.96694881e+00
 -2.07577590e+00 -2.13422007e+00 -2.12817412e+00 -2.05159210e+00
 -1.90044337e+00 -1.68278920e+00 -1.40467553e+00 -1.07819428e+00
 -7.17452640e-01 -3.38573156e-01  4.43369609e-02  4.17170496e-01
  7.65820234e-01  1.08222491e+00  1.35630794e+00  1.58806933e+00
  1.77549375e+00  1.92261185e+00  2.03546957e+00  2.12011286e+00
  2.18460298e+00  2.23095526e+00  2.26118501e+00  2.27327690e+00
  2.26320032e+00  2.22289399e+00  2.14026602e+00  2.00725514e+00
  1.81781540e+00  1.56590085e+00  1.25151149e+00  8.78677952e-01
  4.57476824e-01 -2.01531640e-03 -4.83675937e-01 -9.73397823e-01
 -1.45707376e+00 -1.91858122e+00 -2.34985893e+00 -2.74083031e+00
 -3.08544942e+00 -3.37968561e+00 -3.61950826e+00 -3.80088674e+00
 -3.92180572e+00 -3.98024990e+00 -3.97420395e+00 -3.90769851e+00
 -3.78274889e+00 -3.60540105e+00 -3.38573156e+00 -3.13784764e+00
 -2.87384119e+00 -2.61185006e+00 -2.36598146e+00 -2.14832729e+00
 -1.97299476e+00 -1.84602983e+00 -1.76743249e+00 -1.73317211e+00
 -1.73921806e+00 -1.77146312e+00 -1.81781540e+00 -1.86618299e+00
 -1.90245869e+00 -1.91656590e+00 -1.90044337e+00 -1.85006046e+00
 -1.76138654e+00 -1.63845224e+00 -1.48327287e+00 -1.29786376e+00
 -1.09028617e+00 -8.60540105e-01 -6.14671503e-01 -3.56711004e-01
 -9.06892382e-02  1.75332527e-01  4.37323660e-01  6.81176945e-01
  8.96815800e-01  1.06811769e+00  1.17896010e+00  1.21322048e+00
  1.15477630e+00  9.91535671e-01  7.15437324e-01  3.28496574e-01
 -1.65255945e-01 -7.49697703e-01 -1.40870617e+00 -2.11608222e+00
 -2.84361145e+00 -3.56307940e+00 -4.24828698e+00 -4.87908102e+00
 -5.43530834e+00 -5.90890770e+00 -6.29786376e+00 -6.60419186e+00
 -6.83998388e+00 -7.02136235e+00 -7.16243450e+00 -7.28536880e+00
 -7.40024184e+00 -7.52317614e+00 -7.65820234e+00 -7.80733575e+00
 -7.96453043e+00 -8.12575574e+00 -8.27287384e+00 -8.39379283e+00
 -8.47440548e+00 -8.49858928e+00 -8.45626763e+00 -8.33736397e+00
 -8.14187827e+00 -7.86779524e+00 -7.52317614e+00 -7.11406691e+00
 -6.65860540e+00 -6.17291415e+00 -5.67110036e+00 -5.17331721e+00
 -4.69568722e+00 -4.25231761e+00 -3.85328497e+00 -3.50463523e+00
 -3.20636840e+00 -2.95445385e+00 -2.74083031e+00 -2.55139057e+00
 -2.37404272e+00 -2.19467956e+00 -1.99717856e+00 -1.77146312e+00
 -1.50745667e+00 -1.20112858e+00 -8.44417574e-01 -4.43369609e-01
  2.01531640e-03  4.87706570e-01  1.00765820e+00  1.55380895e+00
  2.12011286e+00  2.69850867e+00  3.27891979e+00  3.85126965e+00
  4.40951229e+00  4.93954051e+00  5.43732366e+00  5.89076985e+00
  6.29584845e+00  6.65255945e+00  6.95687223e+00  7.21281741e+00
  7.43047158e+00  7.61588069e+00  7.78516727e+00  7.94840790e+00
  8.11970979e+00  8.31318017e+00  8.53889561e+00  8.79887142e+00
  9.09713825e+00  9.42966546e+00  9.78234583e+00  1.01451028e+01
  1.04957678e+01  1.08162031e+01  1.10822249e+01  1.12696493e+01
  1.13583233e+01  1.13321241e+01  1.11749295e+01  1.08806933e+01
  1.04494156e+01  9.88311165e+00  9.19588875e+00  8.40790004e+00
  7.53929867e+00  6.61628376e+00  5.66908505e+00  4.72390165e+00
  3.80290206e+00  2.92623942e+00  2.11205159e+00  1.36436921e+00
  6.87222894e-01  8.46432890e-02 -4.51430875e-01 -9.23014913e-01
 -1.33413946e+00 -1.68883515e+00 -1.98508666e+00 -2.22490931e+00
 -2.40427247e+00 -2.52720677e+00 -2.59169690e+00 -2.59975816e+00
 -2.55340588e+00 -2.45868601e+00 -2.31962918e+00 -2.14026602e+00
 -1.92462717e+00 -1.67271262e+00 -1.38855300e+00 -1.07214833e+00
 -7.21483273e-01 -3.38573156e-01  7.25513906e-02  5.09875050e-01]","[  3.46510757   3.33722388   3.1499013    2.90494099   2.59874062
   2.23490252   1.82063142   1.36493321   0.87861497   0.3688814
  -0.14985807  -0.67039871  -1.18013228  -1.67185406  -2.14016052
  -2.57424459  -2.96870272  -3.31633021  -3.60992233  -3.84227438
  -4.01158518  -4.11425237  -4.1538783   -4.14127005  -4.08723469
  -4.01518754  -3.94314039  -3.8999121   -3.90531564  -3.98276632
  -4.1448724   -4.40244096  -4.75186962  -5.1931584   -5.70829551
  -6.28647387  -6.90247698  -7.54009424  -8.17771149  -8.79911814
  -9.38810357  -9.9356619  -10.43458839 -10.88308189 -11.28114238
 -11.63057105 -11.93677142 -12.20694823 -12.44650499 -12.66084526
 -12.85717373 -13.0372916  -13.2066024  -13.3669073  -13.52000749
 -13.66049943 -13.7901843  -13.90365855 -13.99371749 -14.05315639
 -14.07116817 -14.03874696 -13.94508566 -13.78478076 -13.55242871
 -13.24802951 -12.8769867  -12.45551089 -11.99981268 -11.53510858
 -11.08841626 -10.68495223 -10.34813182 -10.09776798  -9.94646897
  -9.89603597  -9.94286661 -10.07435266 -10.27428349 -10.52104497
 -10.79122178 -11.06319976 -11.31896713 -11.54771683 -11.73684059
 -11.88633842 -11.99440914 -12.06645629 -12.10608222 -12.12229283
 -12.11869047 -12.09887751 -12.06825747 -12.02683036 -11.97819853
 -11.92416317 -11.86832663 -11.81429127 -11.7692618  -11.74224412
 -11.73684059 -11.76025591 -11.81789363 -11.90975374 -12.03403507
 -12.18533408 -12.35464488 -12.53296157 -12.70947708 -12.87518552
 -13.02288217 -13.1471635  -13.24442715 -13.31287194 -13.35429905
 -13.36870848 -13.35970259 -13.32908255 -13.28045073 -13.21921065
 -13.1471635  -13.07511636 -13.01027392 -12.96344328 -12.94723267
 -12.97605153 -13.06430928 -13.22281301 -13.46236977 -13.78838312
 -14.20265422 -14.69797836 -15.26354847 -15.88315394 -16.53157826
 -17.18900849 -17.8302281  -18.43002061 -18.97217539 -19.43868067]",7.265517936316007,-1.7541523789077473e-14,4.962,0.6123400000000023
006,1,1,csm,22b.png,1,1,8,41,10,1,1,330,neu_feedback_onset,10,"[-4.2308034  -3.78339383 -3.28888851 -2.76013174 -2.20568638 -1.63625602
 -1.06468493 -0.499536    0.04420578  0.56011825  1.0310757   1.44851525
  1.79745191  2.06504136  2.24486148  2.32406796  2.29623866  2.16137357
  1.9194727   1.57695819  1.14667434  0.64574688  0.08916081 -0.49739528
 -1.09037352 -1.66836675 -2.2078271  -2.69376955 -3.11120911 -3.45372361
 -3.71489093 -3.90113319 -4.01887255 -4.07239044 -4.07881259 -4.04456114
 -3.98033967 -3.89471104 -3.79195669 -3.67207661 -3.53507081 -3.37879857
 -3.19469702 -2.98276617 -2.73872458 -2.46685369 -2.16929422 -1.85674973
 -1.53992381 -1.23380147 -0.951227   -0.70290399 -0.49739528 -0.33898233
 -0.22766511 -0.15274006 -0.10564432 -0.06925215 -0.02857855  0.02922077
  0.12341226  0.25827734  0.44451961  0.68427976  0.97755781  1.31365017
  1.68827541  2.08644852  2.49532521  2.90206119  3.28739001  3.64274881
  3.95529329  4.22074204  4.43695432  4.60821157  4.74521737  4.86295674
  4.97855538  5.10699832  5.26327056  5.45593497  5.68499155  5.94615886
  6.22017047  6.49204135  6.74036437  6.93945093  7.07645673  7.13639677
  7.11713033  7.01651669  6.84525944  6.61620286  6.34005054  6.04035035
  5.72994658  5.42810567  5.14981263  4.91005248  4.7216695   4.59108585
  4.52044223  4.51402008  4.56753797  4.66815161  4.80515741  4.96357037
  5.12840548  5.28039629  5.40669851  5.49018642  5.52229716  5.49874929
  5.41740209  5.28681844  5.11342047  4.91647463  4.71524735  4.53328652
  4.39414     4.31921496  4.32991854  4.43267289  4.63818159  4.9400225
  5.32963275  5.7877459   6.2929548   6.81743014  7.33976476  7.83641079
  8.29238323  8.69483777  9.04377442  9.33919319  9.58537549  9.79302491
  9.96856359 10.11841369 10.2425752  10.34532955 10.42239531 10.47163177
 10.49303893 10.48447607 10.45450605 10.4074103  10.35389241 10.30893738
 10.28324879 10.28967094 10.33248525 10.41811388 10.54655682 10.71139193
 10.90619705 11.12455005 11.35574734 11.59336678 11.83740836 12.08573138
 12.33833583 12.59950314 12.86923331 13.14966707 13.4408044  13.7426453
 14.04876764 14.3570307  14.65887161 14.95000894 15.22402054 15.47662499
 15.70568157 15.90476812 16.07174394 16.20446832 16.29651909 16.34575555
 16.34789627 16.2986598  16.19804617 16.04819607 15.84910952 15.61363079
 15.35032277 15.07417045 14.80229956 14.55183582 14.3441864  14.19005488
 14.10656697 14.10442625 14.18363273 14.34846784 14.59465014 14.91361677
 15.29252344 15.71424443 16.16379472 16.62190787 17.06503601 17.47605342
 17.83141222 18.11184597 18.30022895 18.38157614 18.34946541 18.19533388
 17.92560371 17.54455632 17.06717673 16.50844994 15.8876424  15.22402054
 14.53685081 13.83897751 13.14538563 12.4710602  11.82242335 11.21017867
 10.63646688 10.11199154  9.63461195  9.20646881  8.82542143  8.48290692
  8.17250315  7.8792251   7.59450992  7.30337259  6.99725025  6.66758004
  6.31008052  5.9247517   5.51801573  5.09415403  4.66601089  4.23572705
  3.81614678  3.4094108   3.01980055  2.64731602  2.29409794  1.95372415
  1.62619465  1.30936874  1.0032464   0.71210907  0.43381603  0.17478943
 -0.06497072 -0.28332372 -0.48241027 -0.66008967 -0.82492478 -0.97691559
 -1.12034354 -1.25520863]","[-8.43051612e-01 -6.83868469e-01 -5.31760132e-01 -3.83189199e-01
 -2.43461773e-01 -1.10809154e-01  1.12312551e-02  1.20890753e-01
  2.14631938e-01  2.92454807e-01  3.50821960e-01  3.89733395e-01
  4.05651709e-01  3.98576903e-01  3.64971573e-01  3.03067017e-01
  2.11094534e-01  8.55167217e-02 -7.54351227e-02 -2.77067104e-01
 -5.19379221e-01 -8.00602774e-01 -1.12250646e+00 -1.47978418e+00
 -1.86359243e+00 -2.27039379e+00 -2.68780737e+00 -3.10875834e+00
 -3.52617192e+00 -3.93297328e+00 -4.32739374e+00 -4.70766458e+00
 -5.07378581e+00 -5.42929483e+00 -5.77242294e+00 -6.10670754e+00
 -6.43214863e+00 -6.75051491e+00 -7.05650029e+00 -7.35364215e+00
 -7.63840311e+00 -7.91078315e+00 -8.16901359e+00 -8.41663181e+00
 -8.65186912e+00 -8.87472552e+00 -9.08520101e+00 -9.27975818e+00
 -9.45662834e+00 -9.60873668e+00 -9.72900839e+00 -9.81036866e+00
 -9.84397399e+00 -9.82098087e+00 -9.73431449e+00 -9.58220615e+00
 -9.36642456e+00 -9.09404452e+00 -8.77921563e+00 -8.43962493e+00
 -8.09826552e+00 -7.78343664e+00 -7.51813140e+00 -7.32888033e+00
 -7.23160175e+00 -7.24044525e+00 -7.36071696e+00 -7.59064817e+00
 -7.91962666e+00 -8.33350283e+00 -8.80928356e+00 -9.32043832e+00
 -9.84397399e+00 -1.03515913e+01 -1.08273721e+01 -1.12500918e+01
 -1.16109069e+01 -1.19045113e+01 -1.21379799e+01 -1.23183875e+01
 -1.24581149e+01 -1.25748492e+01 -1.26827400e+01 -1.27977056e+01
 -1.29303583e+01 -1.30895414e+01 -1.32770238e+01 -1.34928054e+01
 -1.37298114e+01 -1.39791983e+01 -1.42268165e+01 -1.44602851e+01
 -1.46619171e+01 -1.48175629e+01 -1.49148414e+01 -1.49431407e+01
 -1.48953857e+01 -1.47715766e+01 -1.45770194e+01 -1.43223264e+01
 -1.40251845e+01 -1.37032809e+01 -1.33813772e+01 -1.30860040e+01
 -1.28366171e+01 -1.26562095e+01 -1.25553935e+01 -1.25394752e+01
 -1.26102233e+01 -1.27552568e+01 -1.29551201e+01 -1.31885887e+01
 -1.34291321e+01 -1.36502198e+01 -1.38288587e+01 -1.39438243e+01
 -1.39862731e+01 -1.39508991e+01 -1.38412396e+01 -1.36714442e+01
 -1.34538939e+01 -1.32115818e+01 -1.29639636e+01 -1.27287263e+01
 -1.25200195e+01 -1.23466867e+01 -1.22175715e+01 -1.21273677e+01
 -1.20760754e+01 -1.20548510e+01 -1.20566197e+01 -1.20707693e+01
 -1.20866876e+01 -1.20972998e+01 -1.20919937e+01 -1.20672319e+01
 -1.20141708e+01 -1.19345793e+01 -1.18284572e+01 -1.17028794e+01]",14.807865417487744,-0.9483446279668798,4.671334999999999,0.6878649999999995
006,1,1,csm,51b.png,1,1,292,315,290,1,1,413,neu_feedback_onset,11,"[ 2.42212123  2.56756937  2.68228903  2.74169742  2.7253089   2.61058924
  2.38729562  2.04313664  1.58630657  1.0229511   0.37560445 -0.32910202
 -1.05429415 -1.76719489 -2.42478436 -2.98813983 -3.42243568 -3.698992
 -3.79117744 -3.68874918 -3.38965864 -2.90210009 -2.24041348 -1.43327874
 -0.5134729   0.48417842  1.51665535  2.54503515  3.53654077  4.45429804
  5.27372418  5.97843066  6.55407752  7.00066476  7.31819239  7.51690322
  7.6131858   7.62138006  7.56402023  7.45544626  7.31614382  7.16045286
  7.00271332  6.85316806  6.71796274  6.60119452  6.51105764  6.44550355
  6.40862938  6.39838655  6.41477507  6.45984351  6.5315433   6.62987443
  6.75278835  6.90028506  7.06826742  7.25673543  7.4595434   7.67873989
  7.9081792   8.14581278  8.39164062  8.63746846  8.88329631  9.12502702
  9.35446633  9.57161426  9.77237366  9.95469598 10.1185812  10.26402934
 10.39104039 10.49961436 10.58770267 10.65530532 10.69627663 10.70447089
 10.67169385 10.58975123 10.45454592 10.26198078 10.01000724  9.70272244
  9.34627207  8.95704466  8.54528302  8.12532713  7.7135655   7.31819239
  6.95149919  6.61553448  6.31439537  6.04808188  5.81659399  5.61993172
  5.45399793  5.32288975  5.22660718  5.16515022  5.14056743  5.14671313
  5.1835873   5.24094713  5.31264692  5.38229814  5.44170654  5.47653215
  5.47038645  5.41712375  5.30650122  5.12827604  4.8763025   4.54648348
  4.13472185  3.6410176   3.06537074  2.40778127  1.67849201  0.88569722
  0.0416883  -0.83304909 -1.71802932 -2.58662102 -3.41628999 -4.17630773
 -4.84209146 -5.3952041  -5.81311143 -6.08557062 -6.20643598 -6.1757075
 -5.99748231 -5.68200325 -5.24361027 -4.70278902 -4.07592803 -3.38761007
 -2.65832081 -1.90649733 -1.15672242 -0.4192389   0.28751615  0.95944558
  1.59450083  2.19063334  2.75603738  3.30095576  3.83767988  4.37645256
  4.9295652   5.49906637  6.09315031  6.70157422  7.32024095  7.93481055
  8.53094307  9.09429854  9.61258557 10.0776099  10.48322583 10.83148194
 11.12852392 11.37844889 11.59559681 11.78816196 11.96638714 12.13846663
 12.31259468 12.49286843 12.67723931 12.86980445 13.06646673 13.263129
 13.45979127 13.65030785 13.83672729 14.01495248 14.1849834  14.34682006
 14.4984139  14.64386204 14.77701878 14.89788414 15.0064581  15.09864354
 15.17239189 15.22975172 15.26867447 15.29120868 15.30350008 15.30554864
 15.30350008 15.30145151 15.29940295 15.29735438 15.29530581 15.28096586
 15.25023738 15.18468329 15.07201219 14.89583557 14.64181347 14.30175163
 13.8715529  13.35121731 12.74484197 12.06471828 11.32518619 10.53648853
  9.7170624   8.87919917  8.03314169  7.1932299   6.36765807  5.56666902
  4.79845702  4.07326489  3.39928689  2.78266873  2.23365322  1.75428893
  1.34457586  1.00656258  0.73410339  0.52514972  0.37150732  0.26907906
  0.20967066  0.18713644  0.19533071  0.23220488  0.29366184  0.37765302
  0.48008129  0.60094664  0.73820052  0.88979435  1.05367958  1.22575907
  1.39988712  1.57401518  1.73994897  1.89154281  2.03084525  2.15580773
  2.26847883  2.37500423  2.48152962  2.59829785  2.73145459  2.88714556
  3.06946787  3.27227584  3.48942377  3.70452313  3.89503971  4.04048785
  4.11013907  4.07941059]","[ -5.29457191  -4.99564058  -4.61699425  -4.16261864  -3.64447102
  -3.06653713  -2.44077423  -1.7771467   -1.08561891  -0.380141
   0.32932267   1.03280771   1.71835687   2.37600578   2.9997758
   3.58568119   4.13172907   4.63791944   5.10823805   5.54467778
   5.9492315    6.32588496   6.67264529   6.98353387   7.25257205
   7.47178836   7.63121839   7.71491916   7.71691204   7.62922552
   7.44588098   7.17086416   6.8101537    6.37570685   5.87948086
   5.34140448   4.77742072   4.20347259   3.62952445   3.06753357
   2.52347856   2.00134519   1.50113345   1.02483621   0.57444635
   0.15195675  -0.24263259  -0.60334305  -0.92818175  -1.21515582
  -1.46227238  -1.66953143  -1.84091872  -1.98042     -2.09799965
  -2.2076078   -2.31920883  -2.45073861  -2.62013302  -2.84532795
  -3.13828065  -3.51294124  -3.97528834  -4.5313006   -5.1730065
  -5.89442742  -6.67962036  -7.50666368  -8.35562863  -9.20060783
 -10.01967965 -10.79291533 -11.50636475 -12.14807065 -12.71604016
 -13.21027327 -13.63276287 -13.99546621 -14.30236903 -14.56144284
 -14.78265202 -14.96798944 -15.12343372 -15.25297063 -15.35660015
 -15.43830805 -15.49610144 -15.53396607 -15.55389483 -15.55389483
 -15.53595895 -15.50008719 -15.4502653  -15.38450041 -15.30877114
 -15.22706325 -15.14535535 -15.07161896 -15.00983982 -14.96998231
 -14.95005356 -14.95403931 -14.97396806 -15.00784695 -15.04571158
 -15.07560471 -15.08556909 -15.06763321 -15.01781132 -14.9301248
 -14.80656652 -14.65510799 -14.4837207  -14.30834766 -14.13895324
 -13.99347333 -13.87987943 -13.80813591 -13.78422141 -13.80215729
 -13.8579578  -13.93767282 -14.02735222 -14.11105299 -14.17283213
 -14.19475376 -14.16884637 -14.08713848 -13.95361582 -13.77425703
 -13.55902648 -13.32785293 -13.0946865  -12.88144882 -12.70209003
 -12.57056025 -12.4928381  -12.47290935 -12.50479536 -12.57853175]",14.198043005532138,4.074483720698483,4.881465,0.8367499999999986
006,1,1,csp,41a.png,1,1,308,227,312,1,1,464,neg_feedback_onset,12,"[  0.37006178   0.75185578   1.0998451    1.40209867   1.65265098
   1.83559394   1.9429735    1.96087009   1.88132968   1.69242119
   1.39414463   0.98451149   0.46749879  -0.14496241  -0.84292955
  -1.60651754  -2.42379531  -3.27288925  -4.13789126  -5.0068703
  -5.85994126  -6.68915009  -7.47858871  -8.2222916   -8.9123047
  -9.54067399 -10.10739945 -10.61446959 -11.06784996 -11.47549459
 -11.84734603 -12.19533535 -12.5294051  -12.85750931 -13.1816365
 -13.50178668 -13.81398281 -14.10828234 -14.37275423 -14.5974559
 -14.76846779 -14.87982437 -14.92953713 -14.91561756 -14.84403119
 -14.72670907 -14.57160526 -14.39462784 -14.20571935 -14.01482236
 -13.83386791 -13.66484453 -13.51172923 -13.37452201 -13.25322288
 -13.14584332 -13.04840631 -12.96091185 -12.87739442 -12.79387698
 -12.70638252 -12.606957   -12.48565787 -12.33651959 -12.14562259
 -11.90700135 -11.61469032 -11.26073547 -10.84712531 -10.37783686
  -9.85684714  -9.2940987   -8.70351111  -8.09303842  -7.4766002
  -6.86016198  -6.25167781  -5.65114767  -5.05658306  -4.4699725
  -3.88336193  -3.29675137  -2.70616379  -2.11756471  -1.53095415
  -0.95826316  -0.40545727   0.11354394   0.58879793   1.01235064
   1.37823655   1.68247864   1.92507691   2.10801986   2.23727304
   2.31681345   2.34862962   2.33868707   2.2869858    2.19352581
   2.05631859   1.87138713   1.64071992   1.36232847   1.04217829
   0.68822344   0.31239498  -0.07138752  -0.44522748  -0.78526275
  -1.07359676  -1.28835588  -1.41363203  -1.43749416  -1.3499997
  -1.15114866  -0.84491806  -0.44125045   0.0479231    0.60669452
   1.2151787    1.85349053   2.49975641   3.13409122   3.73064434
   4.26754214   4.72092251   5.06493481   5.28367095   5.36321136
   5.29162499   5.07288885   4.71495698   4.23771449   3.667012
   3.03864272   2.38641132   1.75008799   1.16546594   0.6603843
   0.25671669  -0.02764029  -0.19069815  -0.23046835  -0.15689347
   0.01809544   0.28256733   0.61862558   1.01235064   1.45181143
   1.92507691   2.42618152   2.94319422   3.47014948   4.00108175
   4.53002551   5.04902672   5.55013134   6.03135085   6.48671973
   6.91424947   7.30996303   7.67783746   8.01588422   8.32808035
   8.61442585   8.87889773   9.12348451   9.34619767   9.54902573
   9.73196868   9.89701505  10.04217631  10.16745246  10.27483202
  10.3663035   10.44186689  10.50748774  10.56316603  10.61287879
  10.66060304  10.70832728  10.75804004  10.81172983  10.87536216
  10.95092555  11.03842001  11.14182255  11.26113317  11.39436337
  11.54151314  11.69661695  11.8596748   12.01875563  12.17385944
  12.3190207   12.44628536  12.55565343  12.64115938  12.70479171
  12.74655043  12.76643554  12.76842405  12.75251596  12.72268831
  12.67894108  12.62326279  12.55565343  12.472136    12.37867601
  12.27129645  12.15397434  12.02869818  11.90143352  11.77615736
  11.65485823  11.53753612  11.420214    11.29692636  11.15375361
  10.97279917  10.73616643  10.42198179  10.01234865   9.48937042
   8.84708156   8.07752804   7.18667539   6.18446615   5.08481991
   3.90762176   2.67275681   1.40806421   0.13342905  -1.12330952
  -2.33828936  -3.48367135  -4.54155887  -5.48808982  -6.3073561
  -6.98742665  -7.52830147  -7.93196908  -8.21036054  -8.38932647
  -8.48875199  -8.54045326  -8.57425794  -8.61601666  -8.68561452
  -8.79895961  -8.95804044  -9.16285701  -9.39948975  -9.64805355
  -9.89065181 -10.10143391 -10.26051475 -10.34999771 -10.3659058 ]","[-2.80216175 -2.52728312 -2.26370086 -1.99823588 -1.72335725 -1.42588585
 -1.10770442 -0.76504749 -0.40356326 -0.03266537  0.34011524  0.70159947
  1.03860821  1.3417278   1.60154459  1.80864493  1.96114609  2.05716534
  2.10046814  2.09858541  2.05528261  1.98373886  1.8933678   1.79170036
  1.68815019  1.58648275  1.49234623  1.40950609  1.33607961  1.27771497
  1.23252944  1.20805394  1.20617121  1.23441217  1.29654227  1.40009244
  1.54882814  1.74086664  1.97620794  2.24920384  2.54479251  2.84979483
  3.14726623  3.41649667  3.64054159  3.8024564   3.89094473  3.89847565
  3.82504916  3.67631346  3.46544766  3.2075136   2.92133858  2.63139811
  2.35275401  2.1042336   1.89525053  1.73710118  1.62790282  1.56765545
  1.54694541  1.5525936   1.57330364  1.59024821  1.59401367  1.56577271
  1.49611169  1.37373422  1.1929921   0.95011988  0.63946937  0.26857149
 -0.1644565  -0.64643547 -1.16795179 -1.7139436  -2.26934906 -2.81534086
 -3.33685718 -3.82071888 -4.25374687 -4.63029294 -4.94659165 -5.20076025
 -5.39844694 -5.53776898 -5.62625731 -5.66579465 -5.65826373 -5.60743001
 -5.51705895 -5.39656421 -5.2534767  -5.09909281 -4.94659165 -4.81291779
 -4.70936762 -4.65100298 -4.65288571 -4.72254673 -4.86563424 -5.08403096
 -5.37585417 -5.73357294 -6.14589089 -6.59774618 -7.06842878 -7.53911137
 -7.98531847 -8.38822277 -8.72899697 -8.99257922 -9.16955587 -9.25992693
 -9.26745785 -9.20156229 -9.07918482 -8.91727    -8.74029335 -8.56708215
 -8.41646372 -8.29973444 -8.22630796 -8.198067   -8.2168943  -8.27149349
 -8.35621635 -8.45976652 -8.57461308 -8.68945963 -8.80054072 -8.90032543
 -8.98693103 -9.06035751 -9.11872215 -9.16202495 -9.19026591 -9.20532775
 -9.20344502 -9.18085226]",11.888955614459622,2.2059481100681753,5.028890000000001,-0.4512900000000002
006,1,1,csm,6b.png,1,1,224,230,225,1,1,519,neu_feedback_onset,13,"[ 0.68931131  0.9150123   1.12429866  1.30075579  1.4300209   1.49567937
  1.49157571  1.40950263  1.25151194  1.01760365  0.71598507  0.35691532
 -0.04934644 -0.48843744 -0.94804671 -1.41996695 -1.89393901 -2.35970376
 -2.80905389 -3.22967845 -3.60926646 -3.93140332 -4.1796744  -4.33561326
 -4.38075345 -4.30073219 -4.08529035 -3.73237609 -3.24404124 -2.63875224
 -1.93497555 -1.16554038 -0.36327599  0.43488475  1.18995713  1.87321555
  2.4600381   2.93606199  3.29513173  3.54340281  3.69728984  3.77936293
  3.81219216  3.8224513   3.82860678  3.85117688  3.90042073  3.98249381
  4.10355161  4.25743864  4.44825856  4.66780406  4.91607514  5.19101997
  5.49058673  5.81067176  6.15332688  6.51444845  6.89198464  7.27977996
  7.67167894  8.06562974  8.45342506  8.8268576   9.17772003  9.49985689
  9.78506085 10.02512462 10.21184089 10.341106   10.40676446 10.40676446
 10.341106   10.21389272 10.02922828  9.79326816  9.51421967  9.1982383
  8.857635    8.49856526  8.12923638  7.75785568  7.39468228  7.04587167
  6.71757934  6.41596075  6.14306775  5.8968485   5.67935482  5.48648308
  5.31823325  5.17255353  5.0494439   4.95505986  4.88734956  4.85657216
  4.86272764  4.90991966  5.00225188  5.1397243   5.32028508  5.54188241
  5.80451628  6.10613486  6.44673816  6.82222252  7.23669159  7.67988625
  8.15180648  8.64219316  9.13873532  9.62296651 10.07847213 10.48883755
 10.83764815 11.11054116 11.30546473 11.41831522 11.45935177 11.44088532
 11.37727868 11.29110194 11.1967179  11.11259299 11.05103817 11.02436442
 11.03667538 11.08797106 11.18235511 11.31367204 11.48192186 11.67889727
 11.90049459 12.14055836 12.39088127 12.64120418 12.88331977 13.09876162
 13.27316692 13.39012107 13.43320944 13.38191376 13.2259749  12.95103007
 12.55092378 12.02360422 11.37317503 10.60989535  9.75223162  8.81865029
  7.83582511  6.83042983  5.83529368  4.8750386   3.97633833  3.15765932
  2.43951983  1.83217901  1.34384416  0.97246345  0.71803689  0.57646082
  0.53952794  0.60108275  0.75086613  0.97451528  1.26177108  1.59621889
  1.95939229  2.330773    2.68779091  3.00787594  3.27461346  3.46543338
  3.57212839  3.58649118  3.51057358  3.35463472  3.12893374  2.85604073
  2.55647398  2.25280357  1.96349594  1.70701756  1.49362754  1.33358502
  1.22894184  1.17969799  1.17969799  1.22483819  1.3089631   1.4300209
  1.57980428  1.75626141  1.95118498  2.164575    2.38617233  2.60776965
  2.81910785  3.00992777  3.17202211  3.29102808  3.36284203  3.38130847
  3.35053106  3.27461346  3.1638148   3.02839421  2.88476631  2.74524207
  2.62418427  2.53185205  2.47234907  2.44772714  2.45593445  2.49081551
  2.54416301  2.60776965  2.67137629  2.72267197  2.75755303  2.76576034
  2.74524207  2.69394639  2.61802879  2.52364474  2.41900156  2.32051386
  2.23844078  2.1871451   2.18304144  2.23228529  2.34308396  2.51133378
  2.73087928  2.98940949  3.26845798  3.54750647  3.80603668  4.02353035
  4.18152104  4.27385326  4.28821605  4.22871306  4.0953443   3.89631707
  3.63778686  3.33001279  2.98120219  2.60161417  2.19535241  1.77267602
  1.33563685  0.88833854  0.43693658 -0.01856904 -0.47202282 -0.92547661
 -1.37482675 -1.82007323]","[ -5.67856811  -5.35787041  -5.05129146  -4.74067859  -4.39779425
  -4.0004518   -3.52444765  -2.95566304  -2.28199615  -1.503447
  -0.62808344   0.33400969   1.35862879   2.42358722   3.50064745
   4.56762284   5.59829284   6.5704708    7.47407189   8.29296038
   9.02108537   9.65642989  10.19697697  10.64474358  10.99972973
  11.26395237  11.43741151  11.52414107  11.52010714  11.43136061
  11.2558845   11.00174669  10.67298112  10.27765564   9.82182116
   9.31556251   8.76694756   8.19009508   7.59105596   6.98193201
   6.37280806   5.77175198   5.18481466   4.62006398   4.0795169
   3.56317341   3.07103353   2.60108029   2.15129671   1.7156319
   1.29206888   0.87455677   0.46107859   0.04760041  -0.3699117
  -0.79347471  -1.22913952  -1.6789231   -2.14685938  -2.63899926
  -3.15735971  -3.70597466  -4.28887804  -4.90405289  -5.55149921
  -6.23323396  -6.94320625  -7.67738214  -8.43374466  -9.20422595
  -9.9827751  -10.76132426 -11.53583948 -12.292202   -13.02436092
 -13.72424838 -14.3777456  -14.97476775 -15.51128089 -15.97518324
 -16.36647479 -16.67910463 -16.9171067  -17.08249797 -17.18334631
 -17.22570261 -17.21763474 -17.16519361 -17.07846404 -16.959463
 -16.81222443 -16.64279923 -16.44917042 -16.23738892 -16.00745471
 -15.7654187  -15.51531483 -15.26521095 -15.02317495 -14.79525771
 -14.59356104 -14.41808493 -14.27488029 -14.16394712 -14.08326845
 -14.02275945 -13.97636922 -13.93199595 -13.87955482 -13.80694401
 -13.70609568 -13.56894194 -13.39144887 -13.17563343 -12.92351259
 -12.64315421 -12.34464314 -12.04008116 -11.73955312 -11.45516081
 -11.19497211 -10.9650379  -10.77140909 -10.60803479 -10.47491498
 -10.36398182 -10.26716741 -10.17438694 -10.07958951  -9.9706733
  -9.8436044   -9.69636583  -9.52290669  -9.32524395  -9.10337761
  -8.85730767  -8.59308503  -8.31474362  -8.02631738  -7.73184024]",9.844307359596012,6.674647131671627,4.873705000000001,0.012209999999998722
006,1,1,csp,25a.png,1,1,164,37,164,1,0,357,neg_feedback_onset,14,"[  4.42770227   4.18744337   3.90783172   3.58265372   3.2015534
   2.76660194   2.27572816   1.73721683   1.15521036   0.54213592
  -0.09165049  -0.73786408  -1.38200647  -2.01579288  -2.62679612
  -3.20673139  -3.74524272  -4.2381877   -4.67728155  -5.06252427
  -5.39805825  -5.68595469  -5.94485437  -6.18511327  -6.42744337
  -6.68841424  -6.99080906  -7.34498382  -7.7592233   -8.23559871
  -8.76789644  -9.34576052  -9.94640777 -10.54498382 -11.1187055
 -11.63443366 -12.07145631 -12.40699029 -12.62653722 -12.7197411
 -12.68245955 -12.52504854 -12.25165049 -11.88090615 -11.43145631
 -10.91779935 -10.36271845  -9.78278317  -9.1987055   -8.62291262
  -8.07197411  -7.55624595  -7.08815534  -6.67184466  -6.31352751
  -6.01941748  -5.78330097  -5.6031068   -5.47469256  -5.38563107
  -5.32763754  -5.29242718  -5.26757282  -5.24686084  -5.22407767
  -5.19508091  -5.15987055  -5.11430421  -5.06045307  -4.99624595
  -4.92582524  -4.84504854  -4.75391586  -4.65035599  -4.53436893
  -4.4038835   -4.26097087  -4.10563107  -3.94200647  -3.77631068
  -3.61268608  -3.46355987  -3.33721683  -3.23987055  -3.18187702
  -3.16323625  -3.19016181  -3.25851133  -3.36414239  -3.50084142
  -3.65825243  -3.82809061  -4.0020712   -4.17398058  -4.33760518
  -4.49294498  -4.63378641  -4.76220065  -4.8781877   -4.97967638
  -5.06252427  -5.12673139  -5.16608414  -5.17644013  -5.15158576
  -5.08737864  -4.98174757  -4.83676375  -4.65242718  -4.43080906
  -4.18019417  -3.90679612  -3.62097087  -3.32893204  -3.0368932
  -2.75106796  -2.46938511  -2.19391586  -1.9163754   -1.62640777
  -1.31365696  -0.9636246   -0.5597411   -0.09165049   0.45307443
   1.07443366   1.77656958   2.54705502   3.37553398   4.2371521
   5.11119741   5.96867314   6.78472492   7.53656958   8.20763754
   8.78964401   9.2763754    9.67404531   9.99093851  10.237411
  10.42381877  10.5605178   10.64957929  10.69100324  10.67236246
  10.58122977  10.4010356   10.11106796   9.69889968   9.15417476
   8.47067961   7.66084142   6.73915858   5.73255663   4.67624595
   3.60750809   2.56569579   1.59016181   0.71197411  -0.04194175
  -0.65501618  -1.1168932   -1.43378641  -1.61398058  -1.6761165
  -1.64711974  -1.55184466  -1.42343042  -1.28466019  -1.16660194
  -1.08582524  -1.05682848  -1.08996764  -1.18110032  -1.32815534
  -1.51456311  -1.72582524  -1.94122977  -2.13799353  -2.29333333
  -2.39275081  -2.41760518  -2.36375405  -2.22291262  -2.0033657
  -1.70925566  -1.3571521   -0.9636246   -0.54524272  -0.12478964
   0.27909385   0.65190939   0.97501618   1.24012945   1.4389644
   1.56737864   1.63158576   1.62951456   1.56944984   1.45967638
   1.31055016   1.12828479   0.92323625   0.70368932   0.4779288
   0.24802589   0.02019417  -0.20142395  -0.41889968  -0.63016181
  -0.83728155  -1.0361165   -1.23288026  -1.42343042  -1.60983819
  -1.79210356  -1.97022654  -2.14627832  -2.3181877   -2.49009709
  -2.66407767  -2.84634304  -3.0389644   -3.24608414  -3.46977346
  -3.71624595  -3.98343042  -4.26925566  -4.57372168  -4.88854369
  -5.21165049  -5.53268608  -5.84957929  -6.15404531  -6.43987055
  -6.70498382  -6.94317152  -7.15236246  -7.33255663  -7.48168285
  -7.6038835   -7.70122977  -7.78407767  -7.85449838  -7.9207767
  -7.98912621  -8.06161812  -8.14446602  -8.23352751  -8.32880259
  -8.42407767  -8.51106796  -8.58355987  -8.63326861  -8.65190939
  -8.6394822   -8.59184466  -8.51106796  -8.4012945   -8.26873786]","[  2.04384833   2.41969682   2.67747772   2.79357752   2.74438269
   2.52398986   2.13633461   1.60306267   0.95172315   0.22757528
  -0.51821832  -1.23449502  -1.86615661  -2.36597607  -2.69459752
  -2.82643966  -2.74969573  -2.46830131  -2.00586993  -1.39191847
  -0.66973839   0.10950769   0.89465715   1.63454736   2.2819513
   2.7994809    3.16352263   3.35636635   3.37604428   3.23436318
   2.94509759   2.53382882   2.03204158   1.46531715   0.86120466
   0.24331762  -0.37260163  -0.97474633  -1.55721309  -2.12000193
  -2.66114504  -3.18457801  -3.69226864  -4.18815251  -4.67222962
  -5.14843556  -5.61480253  -6.07133053  -6.51801957  -6.95093406
  -7.36810621  -7.76560042  -8.13948111  -8.4877805   -8.80656298
  -9.09779637  -9.36148065  -9.59761582  -9.81013748 -10.00101341
 -10.1781148  -10.33947383 -10.48902611 -10.62873942 -10.75664598
 -10.87274577 -10.97507101 -11.0636217  -11.13839784 -11.20333502
 -11.26236881 -11.31943481 -11.3804364  -11.44930916 -11.52802088
 -11.62247495 -11.73070357 -11.85073896 -11.97864551 -12.11048765
 -12.24232979 -12.37220413 -12.49420731 -12.60637152 -12.71263235
 -12.80708642 -12.89366931 -12.97041325 -13.0412538  -13.10422318
 -13.15932139 -13.20851622 -13.25180766 -13.28919573 -13.31674484
 -13.33839056 -13.35019732 -13.34822953 -13.33248718 -13.2990347
 -13.24590428 -13.17112815 -13.0688029  -12.94089635 -12.78544069
 -12.60046814 -12.38794648 -12.14787572 -11.88812702 -11.6087004
 -11.31943481 -11.02820143 -10.74483922 -10.48509052 -10.25879431
 -10.07775735  -9.95181859  -9.890817    -9.89672038  -9.97149652
 -10.11317762 -10.30798914 -10.5500277  -10.82355094 -11.11478432
 -11.40601771 -11.68347654 -11.93732185 -12.15771468 -12.34071944
 -12.48436834 -12.58669359 -12.65163076 -12.68311545 -12.68114766
 -12.65163076 -12.59259697 -12.50798186 -12.39975324 -12.26987889]",5.910006472491911,-0.7234591441870878,4.828125,-0.014204999999998691
006,2,1,csp,3a.png,1,1,296,124,297,1,0,399,neg_feedback_onset,1,"[-4.20003592e+00 -3.96260579e+00 -3.65704352e+00 -3.29986601e+00
 -2.89933169e+00 -2.46576361e+00 -2.00948482e+00 -1.53255993e+00
 -1.03911816e+00 -5.29159518e-01 -4.74860278e-03  5.34114582e-01
  1.08949465e+00  1.65932698e+00  2.24154697e+00  2.83615462e+00
  3.43282688e+00  4.02949915e+00  4.61171914e+00  5.16503459e+00
  5.67499324e+00  6.12094898e+00  6.48638493e+00  6.75065500e+00
  6.89930691e+00  6.92408223e+00  6.81672251e+00  6.58135699e+00
  6.22417947e+00  5.76377146e+00  5.22077906e+00  4.62204219e+00
  3.99440078e+00  3.36882398e+00  2.77628094e+00  2.24361158e+00
  1.79559123e+00  1.45080138e+00  1.22575890e+00  1.12872223e+00
  1.16382060e+00  1.33105400e+00  1.62629322e+00  2.03508598e+00
  2.54917385e+00  3.14791072e+00  3.80858589e+00  4.51261786e+00
  5.22903750e+00  5.93306948e+00  6.60200308e+00  7.21106301e+00
  7.74373236e+00  8.18762349e+00  8.53654256e+00  8.78842497e+00
  8.94533532e+00  9.01966128e+00  9.01553206e+00  8.94533532e+00
  8.81732951e+00  8.63977306e+00  8.42298902e+00  8.17730044e+00
  7.90890115e+00  7.63430804e+00  7.36590875e+00  7.12434939e+00
  6.92614684e+00  6.79194720e+00  6.73620273e+00  6.77336571e+00
  6.91169457e+00  7.14912471e+00  7.48152690e+00  7.90064271e+00
  8.38995526e+00  8.93088305e+00  9.50690922e+00  1.00973876e+01
  1.06775430e+01  1.12308585e+01  1.17346233e+01  1.21743852e+01
  1.25315627e+01  1.27917036e+01  1.29486139e+01  1.29940353e+01
  1.29279678e+01  1.27545406e+01  1.24799475e+01  1.21165761e+01
  1.16788788e+01  1.11813078e+01  1.06424447e+01  1.00767416e+01
  9.49865078e+00  8.92262461e+00  8.35692150e+00  7.81599371e+00
  7.30603506e+00  6.83530400e+00  6.41205897e+00  6.04662302e+00
  5.74518998e+00  5.51601828e+00  5.36323714e+00  5.29304041e+00
  5.30336346e+00  5.38801246e+00  5.54079359e+00  5.74931919e+00
  6.00533082e+00  6.29231160e+00  6.60613230e+00  6.93853450e+00
  7.28538896e+00  7.64463109e+00  8.01832548e+00  8.40647214e+00
  8.80287724e+00  9.20341156e+00  9.59775205e+00  9.97144645e+00
  1.03079779e+01  1.05928940e+01  1.08138073e+01  1.09624592e+01
  1.10450436e+01  1.10656897e+01  1.10471082e+01  1.10140744e+01
  1.09954930e+01  1.10243975e+01  1.11255634e+01  1.13217013e+01
  1.16293282e+01  1.20546378e+01  1.25914364e+01  1.32294009e+01
  1.39520143e+01  1.47345015e+01  1.55541516e+01  1.63799956e+01
  1.71913873e+01  1.79635514e+01  1.86758418e+01  1.93138063e+01
  1.98650571e+01  2.03234005e+01  2.06847072e+01  2.09510419e+01
  2.11224045e+01  2.12029243e+01  2.12029243e+01  2.11285984e+01
  2.09840757e+01  2.07817439e+01  2.05277969e+01  2.02366869e+01
  1.99166723e+01  1.95883994e+01  1.92642556e+01  1.89628226e+01
  1.87006171e+01  1.84941561e+01  1.83599565e+01  1.83042120e+01
  1.83310519e+01  1.84404763e+01  1.86200973e+01  1.88616567e+01
  1.91403790e+01  1.94376828e+01  1.97287928e+01  1.99951275e+01
  2.02139762e+01  2.03729511e+01  2.04637940e+01  2.04803108e+01
  2.04266310e+01  2.03110128e+01  2.01437794e+01  1.99393831e+01
  1.97164052e+01  1.94954919e+01  1.92952248e+01  1.91300560e+01
  1.90144378e+01  1.89545641e+01  1.89545641e+01  1.90082440e+01
  1.91052807e+01  1.92291572e+01  1.93592277e+01  1.94727812e+01
  1.95429780e+01  1.95429780e+01  1.94459413e+01  1.92353511e+01
  1.88926258e+01  1.84095071e+01  1.77901241e+01  1.70386061e+01
  1.61735346e+01  1.52196848e+01  1.42059614e+01  1.31633334e+01
  1.21268992e+01  1.11276280e+01  1.01944243e+01  9.35619269e+00
  8.63151462e+00  8.03277775e+00  7.56824052e+00  7.23170910e+00
  7.01698967e+00  6.91169457e+00  6.89724230e+00  6.95092216e+00
  7.05002343e+00  7.17390003e+00  7.29777662e+00  7.40307173e+00
  7.46707463e+00  7.47326846e+00  7.40307173e+00  7.23996754e+00
  6.97156826e+00  6.58961543e+00  6.08791522e+00  5.47059686e+00
  4.75004800e+00  3.94485014e+00  3.08803703e+00  2.21264243e+00
  1.36408776e+00  5.89859049e-01 -6.66868998e-02 -5.68387106e-01
 -8.84272421e-01 -9.93696746e-01 -8.92530861e-01 -5.89033205e-01
 -9.76560484e-02  5.48566851e-01  1.31660173e+00  2.17135023e+00
  3.07152015e+00  3.98201312e+00  4.87598921e+00  5.72660849e+00
  6.51528947e+00  7.23583832e+00  7.87586739e+00  8.43950590e+00
  8.92675383e+00  9.34380503e+00  9.69272411e+00  9.98589871e+00]","[nan nan nan nan nan nan nan nan nan nan nan nan nan nan nan nan nan nan
 nan nan nan nan nan nan nan nan nan nan nan nan nan nan nan nan nan nan
 nan nan nan nan nan nan nan nan nan nan nan nan nan nan nan nan nan nan
 nan nan nan nan nan nan nan nan nan nan nan nan nan nan nan nan nan nan
 nan nan nan nan nan nan nan nan nan nan nan nan nan nan nan nan nan nan
 nan nan nan nan nan nan nan nan nan nan nan nan nan nan nan nan nan nan
 nan nan nan nan nan nan nan nan nan nan nan nan nan nan nan nan nan nan
 nan nan nan nan nan nan nan nan nan nan nan nan nan nan]",17.76844574101943,,4.843530000000001,-0.14591000000000154
006,2,1,csp,15a.png,1,1,184,306,185,1,1,538,neg_feedback_onset,2,"[ -0.13751499  -0.42843048  -0.68106762  -0.87820115  -1.01408931
  -1.0887321   -1.10212952  -1.06002333  -0.9700692   -0.83609496
  -0.66001453  -0.44374182  -0.1815351    0.12469174   0.48068044
   0.88068924   1.31706248   1.77448882   2.23382907   2.67020231
   3.05298586   3.35921269   3.56400189   3.6520421    3.62141942
   3.47787559   3.23289412   2.91135594   2.53814199   2.1400471
   1.74578005   1.36873826   1.0280609    0.7256619    0.46536909
   0.23569897   0.03090977  -0.16239592  -0.35570161  -0.55857689
  -0.77676351  -1.01600322  -1.27438212  -1.54615843  -1.8236765
  -2.09928065  -2.36148738  -2.60455493  -2.82082764  -3.00647765
  -3.16533283  -3.29547923  -3.40648646  -3.50409626  -3.60170607
  -3.70697154  -3.83329011  -3.99214528  -4.19502056  -4.44957162
  -4.76345412  -5.13666808  -5.56729957  -6.045779    -6.55870895
  -7.08695024  -7.60944978  -8.10324055  -8.54535554  -8.9185695
  -9.20948499  -9.41236027  -9.52719534  -9.56355977  -9.53293709
  -9.45638038  -9.3511149   -9.24393551  -9.15206746  -9.09273601
  -9.07933859  -9.11953086  -9.21714066  -9.36642625  -9.56547369
  -9.80279949 -10.06883405 -10.35209387 -10.64109545 -10.92244136
 -11.18847592 -11.42580172 -11.62484916 -11.77413474 -11.86791671
 -11.89853939 -11.86217496 -11.76265124 -11.60379606 -11.39709295
 -11.1540254  -10.89564651 -10.63726761 -10.39611398 -10.18941087
 -10.02672786  -9.91380672  -9.85447527  -9.84107784  -9.86021702
  -9.90040929  -9.93868765  -9.95399899  -9.92529022  -9.83342217
  -9.66116958  -9.40279068  -9.05445766  -8.62191225  -8.12046581
  -7.56542967  -6.97977085  -6.38454243  -5.80462536  -5.25533098
  -4.75197062  -4.30602779  -3.91941641  -3.59022256  -3.31270449
  -3.08112045  -2.882073    -2.70790649  -2.54522348  -2.39019615
  -2.23516881  -2.07439972  -1.90788888  -1.73946412  -1.5748672
  -1.42175378  -1.28969346  -1.19591149  -1.15189138  -1.16720272
  -1.2514151   -1.41218419  -1.64568215  -1.94616724  -2.30406985
  -2.70407865  -3.12896839  -3.55768596  -3.97492002  -4.36727316
  -4.72134793  -5.03331652  -5.30317892  -5.53093513  -5.72806866
  -5.90223517  -6.06683209  -6.23334293  -6.41133728  -6.60655689
  -6.82282959  -7.05824147  -7.30705078  -7.56542967  -7.81806681
  -8.05347869  -8.26209572  -8.43052048  -8.5510973   -8.61999833
  -8.63530968  -8.60277308  -8.53387204  -8.43817615  -8.33482459
  -8.23721479  -8.15683025  -8.10706839  -8.09367096  -8.11663797
  -8.17214159  -8.25061221  -8.34248027  -8.4324344   -8.50707719
  -8.54918338  -8.5510973   -8.50133544  -8.39606996  -8.22955912
  -8.00371683  -7.72428484  -7.39317707  -7.02187704  -6.6180404
  -6.19506458  -5.76251918  -5.33571552  -4.92422321  -4.53761183
  -4.18927881  -3.88113805  -3.61893133  -3.40074471  -3.22275036
  -3.07920653  -2.95671579  -2.8495364   -2.74044309  -2.62369411
  -2.48589203  -2.32320903  -2.13373117  -1.91554455  -1.67439092
  -1.41601203  -1.1538053   -0.89734032  -0.66384236  -0.46862275
  -0.33082068  -0.26957531  -0.30019799  -0.44565574  -0.71360422
  -1.11361303  -1.64759607  -2.31172552  -3.09069003  -3.95769476
  -4.88785878  -5.84290372  -6.7807234   -7.66303947  -8.45348749
  -9.11378911  -9.62480514  -9.96356858 -10.1281655  -10.12242375
  -9.95591291  -9.64968607  -9.23053809  -8.72143597  -8.15108849
  -7.54437657  -6.92426723  -6.30607181  -5.70510164  -5.12901241
  -4.58545978  -4.07827158  -3.60936174  -3.18064417  -2.79403279]","[ -0.2741913   -0.09376632   0.07572382   0.22516673   0.33451521
   0.39830182   0.40194677   0.349095     0.24339148   0.09577104
  -0.07007415  -0.23227438  -0.3671375   -0.45097133  -0.46919608
  -0.41269937  -0.2814812   -0.08283147   0.16502507   0.44568616
   0.74092704   1.02887802   1.30042673   1.5464608    1.76698022
   1.96745243   2.15698978   2.34470466   2.54153192   2.75293897
   2.98074829   3.21766998   3.45094673   3.66053131   3.82273154
   3.9120328    3.90656537   3.78445958   3.53113561   3.144771
   2.62536575   1.9911446    1.25850982   0.46026595  -0.37624988
  -1.21458818  -2.02558937  -2.78373879  -3.46534428  -4.05947099
  -4.55700655  -4.95977343  -5.27506153  -5.51198323  -5.68511831
  -5.80722411  -5.89470289  -5.95666702  -6.00769631  -6.05690312
  -6.10793241  -6.1662516   -6.23550563  -6.31204956  -6.39770587
  -6.49065207  -6.58724322  -6.68565685  -6.782248    -6.87701668
  -6.96449546  -7.04286187  -7.10847095  -7.15767777  -7.18683736
  -7.19230478  -7.17225756  -7.12487322  -7.05197424  -6.95538309
  -6.83692224  -6.70752655  -6.5744859   -6.44691268  -6.33574173
  -6.25555285  -6.21910336  -6.23550563  -6.31933946  -6.47971722
  -6.72028387  -7.04468434  -7.45474112  -7.94134183  -8.49901905
  -9.11501546  -9.77292878 -10.46000169 -11.15983193 -11.85237227
 -12.52486539 -13.16090901 -13.75139078 -14.28355335 -14.75375179
 -15.15651867 -15.49185399 -15.76522518 -15.98209965 -16.15158979
 -16.28827538 -16.40673623 -16.52155213 -16.64730287 -16.80039074
 -16.98992809 -17.22320484 -17.50204345 -17.82462145 -18.18182647
 -18.56454613 -18.95637816 -19.34274277 -19.70723768 -20.03710558
 -20.32141162 -20.54922094 -20.71871107 -20.82805955 -20.87908884
 -20.87908884 -20.8317045  -20.74422572 -20.62211992 -20.47085453
 -20.2940745  -20.09542477 -19.87490535 -19.6343387  -19.37554731]",0.8563346370302977,0.4953485892680062,5.224885,0.3638400000000006
006,2,1,csp,18a.png,1,0,260,NaN,259,1,1,307,pos_feedback_onset,3,"[ 2.07026886e+00  2.27039451e+00  2.43750974e+00  2.55510934e+00
  2.60462497e+00  2.56542510e+00  2.42306768e+00  2.16723696e+00
  1.79380663e+00  1.30690299e+00  7.23031264e-01  5.86966456e-02
 -6.53090445e-01 -1.38344590e+00 -2.09935929e+00 -2.77194651e+00
 -3.37026030e+00 -3.87366914e+00 -4.27185728e+00 -4.55244581e+00
 -4.71749789e+00 -4.77113982e+00 -4.72162419e+00 -4.58339308e+00
 -4.37088853e+00 -4.10061575e+00 -3.78907995e+00 -3.45072319e+00
 -3.10205067e+00 -2.75544130e+00 -2.42121084e+00 -2.10348559e+00
 -1.80639185e+00 -1.53199277e+00 -1.28028835e+00 -1.04921544e+00
 -8.36710883e-01 -6.38648389e-01 -4.57091102e-01 -2.89975871e-01
 -1.39365849e-01 -3.19788403e-03  1.14401722e-01  2.11369819e-01
  2.87706405e-01  3.43411482e-01  3.80548200e-01  4.01179710e-01
  4.09432314e-01  4.11495465e-01  4.09432314e-01  4.11495465e-01
  4.21811220e-01  4.50695333e-01  5.00210957e-01  5.74484393e-01
  6.77641942e-01  8.09683605e-01  9.66483081e-01  1.15010352e+00
  1.35022916e+00  1.56273372e+00  1.77936457e+00  1.99393227e+00
  2.20024737e+00  2.39624672e+00  2.57367770e+00  2.73666663e+00
  2.88521350e+00  3.01519201e+00  3.13279162e+00  3.23594917e+00
  3.32260151e+00  3.39274864e+00  3.44020112e+00  3.46495893e+00
  3.45876947e+00  3.42163276e+00  3.34529617e+00  3.23182287e+00
  3.07708654e+00  2.88727665e+00  2.66651950e+00  2.41687823e+00
  2.14866860e+00  1.86808006e+00  1.58749153e+00  1.31309245e+00
  1.05726172e+00  8.26188813e-01  6.32252620e-01  4.85768900e-01
  3.90863955e-01  3.59916690e-01  3.92927106e-01  4.94021504e-01
  6.59073583e-01  8.75704437e-01  1.12947201e+00  1.39974479e+00
  1.66176496e+00  1.88871157e+00  2.05376365e+00  2.13422654e+00
  2.11565818e+00  1.99393227e+00  1.76904882e+00  1.45957617e+00
  1.08614584e+00  6.77641942e-01  2.69138046e-01 -1.08418584e-01
 -4.24080686e-01 -6.57216747e-01 -7.89258411e-01 -8.16079374e-01
 -7.41805938e-01 -5.74690708e-01 -3.31238891e-01 -3.41451489e-02
  2.98022160e-01  6.40505224e-01  9.76798836e-01  1.29039779e+00
  1.57098632e+00  1.81237499e+00  2.01250063e+00  2.17136326e+00
  2.29721547e+00  2.39830987e+00  2.48496221e+00  2.56955140e+00
  2.66033004e+00  2.76555074e+00  2.89140295e+00  3.03788667e+00
  3.20500190e+00  3.38862234e+00  3.57843223e+00  3.77030527e+00
  3.96011517e+00  4.14167245e+00  4.31910344e+00  4.49653442e+00
  4.68428116e+00  4.89678571e+00  5.15055329e+00  5.46208908e+00
  5.83964572e+00  6.28941263e+00  6.80726353e+00  7.38494581e+00
  8.00182795e+00  8.62902585e+00  9.23559224e+00  9.78439041e+00
  1.02424099e+01  1.05766404e+01  1.07643871e+01  1.07870818e+01
  1.06405981e+01  1.03269991e+01  9.86072699e+00  9.26035005e+00
  8.55475242e+00  7.77694449e+00  6.95581040e+00  6.12848685e+00
  5.32179482e+00  4.56049210e+00  3.86521022e+00  3.24832807e+00
  2.71809827e+00  2.27658396e+00  1.92378514e+00  1.64938606e+00
  1.44926041e+00  1.31102930e+00  1.22850326e+00  1.19342969e+00
  1.19549284e+00  1.23262956e+00  1.29865039e+00  1.39149218e+00
  1.50702864e+00  1.64113345e+00  1.79174348e+00  1.95060610e+00
  2.11359503e+00  2.27245766e+00  2.41481507e+00  2.53035153e+00
  2.61287757e+00  2.65414059e+00  2.64588799e+00  2.58811976e+00
  2.48702536e+00  2.34673109e+00  2.18374216e+00  2.01250063e+00
  1.85157485e+00  1.71540689e+00  1.62256509e+00  1.57923892e+00
  1.59368098e+00  1.66176496e+00  1.77730142e+00  1.92997459e+00
  2.10534243e+00  2.28689971e+00  2.46639385e+00  2.62731963e+00
  2.76348759e+00  2.87283459e+00  2.94917118e+00  2.99868680e+00
  3.02138147e+00  3.02344462e+00  3.00487626e+00  2.96980269e+00
  2.92028707e+00  2.85426624e+00  2.76761389e+00  2.65826689e+00
  2.52209893e+00  2.35704685e+00  2.15898435e+00  1.92584829e+00
  1.65557551e+00  1.35022916e+00  1.01393555e+00  6.52884130e-01
  2.75327499e-01 -1.10481735e-01 -4.90101517e-01 -8.51152940e-01
 -1.18332025e+00 -1.47422454e+00 -1.71561320e+00 -1.90542310e+00
 -2.04365421e+00 -2.13443286e+00 -2.18394848e+00 -2.20457999e+00
 -2.20664314e+00 -2.20045369e+00 -2.19839054e+00 -2.20664314e+00
 -2.22727465e+00 -2.26441137e+00 -2.31186384e+00 -2.36550577e+00
 -2.41502139e+00 -2.45215811e+00 -2.46453701e+00 -2.44184235e+00
 -2.37582152e+00 -2.25409561e+00 -2.06634887e+00 -1.80845500e+00]","[-1.90877551e+00 -1.58736802e+00 -1.26261252e+00 -9.41205027e-01
 -6.28167517e-01 -3.30195983e-01 -5.39864155e-02  1.92091199e-01
  4.04688867e-01  5.75436599e-01  7.02660400e-01  7.83012275e-01
  8.16492222e-01  8.01426246e-01  7.44510335e-01  6.49092484e-01
  5.18520689e-01  3.61164935e-01  1.80373218e-01 -1.71584731e-02
 -2.28082143e-01 -4.52397792e-01 -6.88431423e-01 -9.41205027e-01
 -1.21239260e+00 -1.51036414e+00 -1.83679363e+00 -2.19335507e+00
 -2.58339646e+00 -3.00189580e+00 -3.44717911e+00 -3.91255038e+00
 -4.38963963e+00 -4.87342487e+00 -5.35721012e+00 -5.83764736e+00
 -6.30971463e+00 -6.77341190e+00 -7.22873919e+00 -7.67737048e+00
 -8.11763180e+00 -8.55287111e+00 -8.98308844e+00 -9.40828378e+00
 -9.82845712e+00 -1.02436085e+01 -1.06520638e+01 -1.10504752e+01
 -1.14371686e+01 -1.18087960e+01 -1.21636835e+01 -1.24984829e+01
 -1.28131944e+01 -1.31061440e+01 -1.33773316e+01 -1.36284312e+01
 -1.38594428e+01 -1.40686925e+01 -1.42595282e+01 -1.44302759e+01
 -1.45809357e+01 -1.47098335e+01 -1.48236653e+01 -1.49224311e+01
 -1.50178490e+01 -1.51182888e+01 -1.52388167e+01 -1.53894764e+01
 -1.55853341e+01 -1.58347597e+01 -1.61427752e+01 -1.65060327e+01
 -1.69161620e+01 -1.73580973e+01 -1.78100766e+01 -1.82520119e+01
 -1.86571193e+01 -1.90053108e+01 -1.92815203e+01 -1.94740300e+01
 -1.95794919e+01 -1.95979058e+01 -1.95342939e+01 -1.93987001e+01
 -1.91944725e+01 -1.89333289e+01 -1.86186174e+01 -1.82553599e+01
 -1.78469046e+01 -1.73982733e+01 -1.69144880e+01 -1.64022448e+01
 -1.58732617e+01 -1.53359085e+01 -1.48069253e+01 -1.43013781e+01
 -1.38293109e+01 -1.34024415e+01 -1.30274661e+01 -1.27060586e+01
 -1.24382190e+01 -1.22155774e+01 -1.20314377e+01 -1.18774299e+01
 -1.17435101e+01 -1.16229823e+01 -1.15124985e+01 -1.14070366e+01
 -1.13099448e+01 -1.12212229e+01 -1.11475671e+01 -1.10923251e+01
 -1.10605192e+01 -1.10521492e+01 -1.10705632e+01 -1.11090651e+01
 -1.11626330e+01 -1.12228969e+01 -1.12831608e+01 -1.13317068e+01
 -1.13651867e+01 -1.13752307e+01 -1.13601647e+01 -1.13199888e+01
 -1.12547029e+01 -1.11676550e+01 -1.10655412e+01 -1.09500354e+01
 -1.08278336e+01 -1.07073057e+01 -1.05934739e+01 -1.04997301e+01
 -1.04327702e+01 -1.04059862e+01 -1.04294222e+01 -1.05131220e+01
 -1.06671298e+01 -1.08947934e+01 -1.12011350e+01 -1.15844804e+01]",6.107030083836152,-0.687751361169119,4.8469549999999995,1.272359999999999
006,2,1,csm,26b.png,1,1,4,222,4,1,1,344,neu_feedback_onset,4,"[ 2.3081434   1.95013848  1.62727514  1.33735705  1.07379514  0.83000037
  0.60158005  0.38414148  0.17329195 -0.02877217 -0.22424726 -0.41752599
 -0.60201932 -0.78211996 -0.9578279  -1.12694679 -1.29167298 -1.45420282
 -1.61673267 -1.78365521 -1.9571668  -2.14385648 -2.34592061 -2.56335918
 -2.7961722  -3.04216332 -3.29254713 -3.54293094 -3.77794031 -3.99098618
 -4.16889047 -4.30286777 -4.38632904 -4.41488158 -4.38632904 -4.30067142
 -4.16669412 -3.98659348 -3.77135126 -3.52975284 -3.27277999 -3.01361078
 -2.76542331 -2.54139569 -2.34811696 -2.20096156 -2.10871489 -2.07137696
 -2.0955368  -2.17899807 -2.31077902 -2.48429061 -2.68196204 -2.88622252
 -3.0816976  -3.25081649 -3.37381205 -3.44409522 -3.44848792 -3.38699014
 -3.26179824 -3.07510855 -2.84009919 -2.56555553 -2.26465569 -1.9483814
 -1.62991076 -1.31583282 -1.01273663 -0.72501488 -0.45047123 -0.19130202
  0.06127814  0.31166196  0.56863482  0.83878577  1.13090022  1.45376355
  1.81176848  2.20930769  2.64857753  3.12957802  3.65011278  4.20578914
  4.79001803  5.39621042  6.01338455  6.63495138  7.25212552  7.85172886
  8.4293687   8.97625966  9.48361633  9.94704602 10.35995968 10.7179646
 11.01886444 11.26046286 11.4405635  11.5613627  11.62505683 11.63384223
 11.58991524 11.50425762 11.37906572 11.22971397 11.06279143 10.89367254
 10.73333904 10.59277269 10.48515158 10.4192611  10.39729761 10.42585015
 10.49393698 10.59936174 10.72455365 10.85853095 10.98372286 11.08255857
 11.14405635 11.15943079 11.12209286 11.03863159 10.91343968 10.75749889
 10.58837999 10.42145745 10.27430206 10.16448459 10.10518316 10.11177221
 10.18864444 10.34238888 10.5708092  10.87170905 11.23630302 11.65360937
 12.10825366 12.58486144 13.05927288 13.51391717 13.92683082 14.28044305
 14.5593794  14.75485448 14.86027924 14.88004639 14.82074496 14.69116035
 14.51105972 14.29581749 14.05641543 13.81262066 13.57102225 13.34040558
 13.12516335 12.92749192 12.74739129 12.58705779 12.44429509 12.32569223
 12.23783827 12.18512588 12.17853684 12.22685652 12.33667398 12.51677462
 12.76496208 13.07904002 13.44802669 13.86313669 14.30460289 14.75485448
 15.19192798 15.59825258 15.95406116 16.24617561 16.46361418 16.60418053
 16.66567831 16.65908926 16.59539513 16.49216672 16.36917116 16.24178291
 16.1297691  16.04850418 16.00896989 16.01555894 16.07046767 16.16710703
 16.30108434 16.46361418 16.64371482 16.83260085 17.02368323 17.21256927
 17.4014553  17.59473403 17.79240546 18.00545134 18.23387166 18.48425547
 18.75879912 19.05091357 19.36279516 19.6856585  20.01730723 20.34675962
 20.67401565 20.99248629 21.29997518 21.59867868 21.88640043 22.16533678
 22.43548773 22.69685329 22.9516298  23.19322822 23.41945219 23.62371266
 23.7994206  23.9377906  24.02564457 24.05639346 24.01246648 23.87848918
 23.64128346 23.28547488 22.79788535 22.16753313 21.3900255  20.46536247
 19.40232945 18.21410452 16.92484752 15.5587183  14.1442694  12.7166424
 11.29999714  9.91849348  8.5940949   7.33339044  6.14516551  5.02722375
  3.97077977  2.97144087  2.01822531  1.10454403  0.22380799 -0.62398282
 -1.43223933 -2.19876521 -2.91257871 -3.56709078 -4.15571237 -4.66965809
 -5.10892794 -5.47791461]","[-7.91623529e-01 -4.66112997e-01 -1.74961911e-01  7.27877717e-02
  2.69902482e-01  4.14573830e-01  5.04993422e-01  5.42969651e-01
  5.32119300e-01  4.79675936e-01  3.89256344e-01  2.73519266e-01
  1.37889878e-01 -3.16468572e-03 -1.44219249e-01 -2.70806678e-01
 -3.73885013e-01 -4.44412295e-01 -4.78771740e-01 -4.69729781e-01
 -4.19094809e-01 -3.26866826e-01 -2.02087788e-01 -5.37996573e-02
  1.07147217e-01  2.69902482e-01  4.25424181e-01  5.61053569e-01
  6.73173863e-01  7.58168280e-01  8.16036819e-01  8.44971088e-01
  8.43162696e-01  8.10611643e-01  7.40084361e-01  6.22538892e-01
  4.45316491e-01  1.97566809e-01 -1.35177290e-01 -5.60149373e-01
 -1.08277462e+00 -1.69762784e+00 -2.39747548e+00 -3.16061684e+00
 -3.96896800e+00 -4.79901985e+00 -5.62907171e+00 -6.44103964e+00
 -7.22045653e+00 -7.96008879e+00 -8.65631965e+00 -9.31095750e+00
 -9.92581072e+00 -1.05044961e+01 -1.10488221e+01 -1.15605970e+01
 -1.20362040e+01 -1.24756432e+01 -1.28716810e+01 -1.32188923e+01
 -1.35136601e+01 -1.37523679e+01 -1.39368238e+01 -1.40688364e+01
 -1.41574476e+01 -1.42153162e+01 -1.42569092e+01 -1.42966938e+01
 -1.43527540e+01 -1.44395568e+01 -1.45661442e+01 -1.47415582e+01
 -1.49694156e+01 -1.52460995e+01 -1.55716101e+01 -1.59350968e+01
 -1.63293262e+01 -1.67452564e+01 -1.71720368e+01 -1.76006257e+01
 -1.80255978e+01 -1.84397195e+01 -1.88339489e+01 -1.92064777e+01
 -1.95446469e+01 -1.98466484e+01 -2.01034400e+01 -2.03059799e+01
 -2.04524596e+01 -2.05338373e+01 -2.05483044e+01 -2.04922443e+01
 -2.03656568e+01 -2.01685421e+01 -1.99063253e+01 -1.95808148e+01
 -1.91974357e+01 -1.87670384e+01 -1.82968566e+01 -1.77959320e+01
 -1.72787320e+01 -1.67579151e+01 -1.62425234e+01 -1.57452157e+01
 -1.52768422e+01 -1.48482533e+01 -1.44612575e+01 -1.41230882e+01
 -1.38319371e+01 -1.35859958e+01 -1.33780308e+01 -1.32026167e+01
 -1.30525202e+01 -1.29186992e+01 -1.28011538e+01 -1.26962670e+01
 -1.26076558e+01 -1.25425537e+01 -1.25081943e+01 -1.25172362e+01
 -1.25769132e+01 -1.26998838e+01 -1.28879566e+01 -1.31429398e+01
