sub,run,cat_cond,trial_type,picture,old,response_old,target_pos,response_pos,dot_resp_loc,cat_corr,TN_corr,TN_rt,feedback_type,trial,SP_timeseries,FB_timeseries,SP_peak_response,FB_peak_response,preStim_bl,anticipation
034,2,2,csm,17a.png,1,0,52,NaN,NaN,0,0,304,neu_feedback_onset,1,"[nan nan nan nan nan nan nan nan nan nan nan nan nan nan nan nan nan nan
 nan nan nan nan nan nan nan nan nan nan nan nan nan nan nan nan nan nan
 nan nan nan nan nan nan nan nan nan nan nan nan nan nan nan nan nan nan
 nan nan nan nan nan nan nan nan nan nan nan nan nan nan nan nan nan nan
 nan nan nan nan nan nan nan nan nan nan nan nan nan nan nan nan nan nan
 nan nan nan nan nan nan nan nan nan nan nan nan nan nan nan nan nan nan
 nan nan nan nan nan nan nan nan nan nan nan nan nan nan nan nan nan nan
 nan nan nan nan nan nan nan nan nan nan nan nan nan nan nan nan nan nan
 nan nan nan nan nan nan nan nan nan nan nan nan nan nan nan nan nan nan
 nan nan nan nan nan nan nan nan nan nan nan nan nan nan nan nan nan nan
 nan nan nan nan nan nan nan nan nan nan nan nan nan nan nan nan nan nan
 nan nan nan nan nan nan nan nan nan nan nan nan nan nan nan nan nan nan
 nan nan nan nan nan nan nan nan nan nan nan nan nan nan nan nan nan nan
 nan nan nan nan nan nan nan nan nan nan nan nan nan nan nan nan nan nan
 nan nan nan nan nan nan nan nan]","[nan nan nan nan nan nan nan nan nan nan nan nan nan nan nan nan nan nan
 nan nan nan nan nan nan nan nan nan nan nan nan nan nan nan nan nan nan
 nan nan nan nan nan nan nan nan nan nan nan nan nan nan nan nan nan nan
 nan nan nan nan nan nan nan nan nan nan nan nan nan nan nan nan nan nan
 nan nan nan nan nan nan nan nan nan nan nan nan nan nan nan nan nan nan
 nan nan nan nan nan nan nan nan nan nan nan nan nan nan nan nan nan nan
 nan nan nan nan nan nan nan nan nan nan nan nan nan nan nan nan nan nan
 nan nan nan nan nan nan nan nan nan nan nan nan nan nan]",,,4.71778,
034,2,2,csp,40b.png,1,1,192,180,191,1,1,335,pos_feedback_onset,2,"[-2.91120461 -2.57494256 -2.23656564 -1.89607388 -1.55981182 -1.22566462
 -0.89786199 -0.57428906 -0.25917557  0.05170822  0.35201773  0.64175296
  0.91879906  1.17681145  1.41367529  1.62516086  1.80703845  1.95296349
  2.06293599  2.13272623  2.16233421  2.15175993  2.10311825  2.02063888
  1.90855152  1.77320076  1.61881629  1.45174269  1.28043938  1.10702122
  0.93994762  0.78133344  0.63329354  0.49794277  0.37528114  0.2674235
  0.172255    0.08766077  0.01364082 -0.04980485 -0.1047911  -0.15343278
 -0.19572989 -0.2337973  -0.26763499 -0.29935782 -0.33108066 -0.35857378
 -0.38818176 -0.41778974 -0.44951258 -0.48335027 -0.51930282 -0.56371479
 -0.61658618 -0.67791699 -0.7540518  -0.84287574 -0.94861852 -1.07128015
 -1.21086063 -1.36735995 -1.53866326 -1.72477056 -1.923567   -2.13293771
 -2.348653   -2.57071284 -2.7970024  -3.02752167 -3.25804095 -3.49067507
 -3.72542406 -3.96017304 -4.19492202 -4.429671   -4.66441998 -4.89916897
 -5.13391795 -5.36866693 -5.60130106 -5.83605004 -6.06868417 -6.29708858
 -6.525493   -6.74543799 -6.95903842 -7.15783485 -7.33971244 -7.49621176
 -7.62098825 -7.70558248 -7.74153503 -7.72038647 -7.64213681 -7.50255633
 -7.3037599  -7.04997721 -6.75178256 -6.41763536 -6.06445446 -5.70281413
 -5.34540352 -5.00491175 -4.68979825 -4.40640759 -4.15685462 -3.94536905
 -3.76772117 -3.62391098 -3.50759392 -3.41665512 -3.34263517 -3.28130436
 -3.22843297 -3.17979128 -3.1311496  -3.08462278 -3.03809595 -2.99156913
 -2.94927201 -2.91120461 -2.87948178 -2.85621836 -2.84352923 -2.84141437
 -2.84564408 -2.85833322 -2.87736692 -2.89851548 -2.91966403 -2.93658288
 -2.95138687 -2.95773144 -2.95561658 -2.94292745 -2.91543432 -2.87525206
 -2.8160361  -2.73778644 -2.63627337 -2.51149688 -2.36134213 -2.18792396
 -1.98701267 -1.76706768 -1.53020384 -1.28065087 -1.02686818 -0.7730855
 -0.5298771  -0.30147268 -0.09421682  0.08766077  0.24204523  0.36470687
  0.45987537  0.52966561  0.57619243  0.60580041  0.62483412  0.63752325
  0.65232724  0.67136094  0.70308378  0.74749575  0.80671171  0.88073166
  0.96744074  1.06683896  1.17258174  1.27832453  1.3798376   1.47289125
  1.55114091  1.60612716  1.63573514  1.63362028  1.59555288  1.51518836
  1.39252673  1.22545313  1.01396756  0.75595517  0.45776052  0.12149846
 -0.24648643 -0.63561988 -1.04167217 -1.44983932 -1.85377676 -2.24291021
 -2.60666539 -2.93658288 -3.22420325 -3.46741166 -3.65986353 -3.799444
 -3.88615309 -3.92422049 -3.91787592 -3.8713491  -3.79521429 -3.69581608
 -3.58584358 -3.46952652 -3.35955402 -3.2601558  -3.17556157 -3.10577134
 -3.05078509 -3.00425826 -2.96619086 -2.92812346 -2.88159663 -2.82238067
 -2.74624587 -2.64684765 -2.52207116 -2.37191641 -2.19638339 -1.99758695
 -1.78187167 -1.55558211 -1.32506284 -1.09454357 -0.87459857 -0.66522786
 -0.4770057  -0.3099321  -0.16612192 -0.04557514  0.05382308  0.12995788
  0.1912887   0.23781552  0.27376807  0.30126119  0.32452461  0.34144345
  0.3583623   0.37316629  0.38797028  0.40277427  0.41757826  0.43026739
  0.44084167  0.44507138  0.43872681  0.4154634   0.36893658  0.29068692
  0.17436985  0.01575567 -0.19361504 -0.45162743 -0.76251122 -1.11992183
 -1.51962956 -1.95740469]","[-1.97166365e-01 -1.17120191e-01 -3.49675392e-02  4.92915914e-02
  1.27231287e-01  1.98851548e-01  2.55726461e-01  2.97856026e-01
  3.21027287e-01  3.23133766e-01  3.04175461e-01  2.59939418e-01
  1.94638592e-01  1.08272983e-01  2.94906957e-03 -1.21333148e-01
 -2.60360713e-01 -4.09920670e-01 -5.70013018e-01 -7.32211844e-01
 -8.96517149e-01 -1.05660950e+00 -1.20827593e+00 -1.34519702e+00
 -1.46315980e+00 -1.56005780e+00 -1.63167806e+00 -1.67802058e+00
 -1.69697889e+00 -1.69065945e+00 -1.65906228e+00 -1.60850680e+00
 -1.53688654e+00 -1.45262741e+00 -1.35362293e+00 -1.24619254e+00
 -1.13033624e+00 -1.01026698e+00 -8.88091236e-01 -7.63809018e-01
 -6.43739757e-01 -5.29989931e-01 -4.26772496e-01 -3.38300409e-01
 -2.68786626e-01 -2.20337626e-01 -1.97166365e-01 -1.97166365e-01
 -2.24550583e-01 -2.72999583e-01 -3.44619844e-01 -4.33091931e-01
 -5.36309366e-01 -6.52165670e-01 -7.74341410e-01 -9.04943062e-01
 -1.03765119e+00 -1.17457228e+00 -1.31149337e+00 -1.45052093e+00
 -1.59165498e+00 -1.73068254e+00 -1.87181658e+00 -2.01084415e+00
 -2.15197819e+00 -2.29311224e+00 -2.43213980e+00 -2.57327385e+00
 -2.71440789e+00 -2.85343546e+00 -2.99456950e+00 -3.13570354e+00
 -3.27473111e+00 -3.41586515e+00 -3.55489272e+00 -3.69602676e+00
 -3.83716080e+00 -3.97618837e+00 -4.11732241e+00 -4.25845646e+00
 -4.39748402e+00 -4.53861807e+00 -4.67975211e+00 -4.81877968e+00
 -4.95991372e+00 -5.09894128e+00 -5.24007533e+00 -5.38120937e+00
 -5.52023694e+00 -5.66137098e+00 -5.80039855e+00 -5.93942611e+00
 -6.07845368e+00 -6.21537476e+00 -6.35018937e+00 -6.48500398e+00
 -6.61560563e+00 -6.73988785e+00 -6.86206359e+00 -6.97581342e+00
 -7.08324381e+00 -7.18224829e+00 -7.27493333e+00 -7.35708598e+00
 -7.43081272e+00 -7.49822003e+00 -7.55720142e+00 -7.60986337e+00
 -7.65620590e+00 -7.69622898e+00 -7.73203911e+00 -7.75942333e+00
 -7.78048811e+00 -7.78891403e+00 -7.78259459e+00 -7.75521037e+00
 -7.70044194e+00 -7.61196985e+00 -7.48347468e+00 -7.30442403e+00
 -7.07692437e+00 -6.79465629e+00 -6.46393920e+00 -6.08898607e+00
 -5.67822281e+00 -5.24428828e+00 -4.79982137e+00 -4.36167389e+00
 -3.94248472e+00 -3.55278624e+00 -3.20521733e+00 -2.90399093e+00
 -2.65542650e+00 -2.46373698e+00 -2.32892237e+00 -2.24676972e+00
 -2.21727902e+00 -2.23413085e+00 -2.28889928e+00 -2.37315841e+00]",0.5324149219988072,-0.4322929219279739,4.728455000000001,-0.06144500000000175
034,2,2,csp,36b.png,1,1,124,230,124,1,1,578,neg_feedback_onset,3,"[-1.64905076e+00 -1.48317985e+00 -1.30261152e+00 -1.10314651e+00
 -8.91083704e-01 -6.68522741e-01 -4.39662883e-01 -2.10803025e-01
  1.17579377e-02  2.19621478e-01  4.08588334e-01  5.68160345e-01
  6.98337512e-01  7.94920571e-01  8.55809891e-01  8.85204735e-01
  8.83105103e-01  8.57909523e-01  8.11717625e-01  7.52927936e-01
  6.87839353e-01  6.22750770e-01  5.63961081e-01  5.13569920e-01
  4.77876181e-01  4.52680600e-01  4.42182441e-01  4.40082809e-01
  4.48481336e-01  4.61079127e-01  4.71577285e-01  4.79975812e-01
  4.82075444e-01  4.75776549e-01  4.58979495e-01  4.29584651e-01
  3.91791280e-01  3.43499750e-01  2.86809694e-01  2.21721110e-01
  1.54532895e-01  8.10457846e-02  3.35941076e-03 -7.43269631e-02
 -1.52013337e-01 -2.33898974e-01 -3.13684980e-01 -3.95570617e-01
 -4.75356622e-01 -5.57242260e-01 -6.37028265e-01 -7.18913903e-01
 -7.98699908e-01 -8.78485914e-01 -9.56172287e-01 -1.03385866e+00
 -1.10944540e+00 -1.18503215e+00 -1.25641962e+00 -1.32780710e+00
 -1.39709495e+00 -1.47058206e+00 -1.54826843e+00 -1.63645297e+00
 -1.74143455e+00 -1.86531282e+00 -2.01858594e+00 -2.20545316e+00
 -2.42801413e+00 -2.69046809e+00 -2.99281506e+00 -3.33295540e+00
 -3.70249058e+00 -4.09722135e+00 -4.50664953e+00 -4.92447625e+00
 -5.33810370e+00 -5.74123299e+00 -6.12336596e+00 -6.48240299e+00
 -6.80994554e+00 -7.10599361e+00 -7.36634794e+00 -7.59310817e+00
 -7.78627429e+00 -7.95214519e+00 -8.09072089e+00 -8.20830026e+00
 -8.30698296e+00 -8.39096822e+00 -8.46445533e+00 -8.52954392e+00
 -8.58623397e+00 -8.63452550e+00 -8.67651814e+00 -8.70801261e+00
 -8.72900893e+00 -8.73320820e+00 -8.71851077e+00 -8.68281703e+00
 -8.61562882e+00 -8.52114539e+00 -8.39096822e+00 -8.22929658e+00
 -8.03613046e+00 -7.81776876e+00 -7.57841075e+00 -7.32645494e+00
 -7.07659876e+00 -6.83724075e+00 -6.61887905e+00 -6.43411146e+00
 -6.29133650e+00 -6.19685307e+00 -6.15696007e+00 -6.16955786e+00
 -6.23674607e+00 -6.34802656e+00 -6.49920004e+00 -6.67766874e+00
 -6.87293449e+00 -7.07449913e+00 -7.26766525e+00 -7.44193468e+00
 -7.58680927e+00 -7.69599012e+00 -7.76527797e+00 -7.79047355e+00
 -7.77367650e+00 -7.71488681e+00 -7.61830375e+00 -7.49022621e+00
 -7.33905273e+00 -7.16898256e+00 -6.98631460e+00 -6.80154701e+00
 -6.61677942e+00 -6.43831072e+00 -6.27034018e+00 -6.11286780e+00
 -5.97009285e+00 -5.83991568e+00 -5.72443593e+00 -5.62155398e+00
 -5.52707055e+00 -5.44308528e+00 -5.36749854e+00 -5.29611106e+00
 -5.22682322e+00 -5.16173463e+00 -5.09664605e+00 -5.02945783e+00
 -4.96436925e+00 -4.89718103e+00 -4.83209245e+00 -4.76910350e+00
 -4.71031381e+00 -4.65572339e+00 -4.60953149e+00 -4.57173812e+00
 -4.54444290e+00 -4.52764585e+00 -4.51924732e+00 -4.51924732e+00
 -4.52344659e+00 -4.52974548e+00 -4.53394475e+00 -4.53604438e+00
 -4.53394475e+00 -4.52134696e+00 -4.50245027e+00 -4.47305543e+00
 -4.43736169e+00 -4.39536905e+00 -4.34707752e+00 -4.29668636e+00
 -4.24209594e+00 -4.18960514e+00 -4.13711435e+00 -4.08672319e+00
 -4.03843166e+00 -3.99643902e+00 -3.95864565e+00 -3.92715118e+00
 -3.89775633e+00 -3.87256075e+00 -3.84736517e+00 -3.82216959e+00
 -3.79067512e+00 -3.75288174e+00 -3.70668985e+00 -3.64999979e+00
 -3.58491121e+00 -3.51142410e+00 -3.43373772e+00 -3.35185209e+00
 -3.27206608e+00 -3.19647934e+00 -3.12719149e+00 -3.06420254e+00
 -3.01171175e+00 -2.96551985e+00 -2.92562685e+00 -2.88783347e+00
 -2.85213973e+00 -2.81434636e+00 -2.77025410e+00 -2.71776330e+00
 -2.65267472e+00 -2.57288872e+00 -2.47840529e+00 -2.36502517e+00
 -2.23484801e+00 -2.08787379e+00 -1.93040141e+00 -1.76033124e+00
 -1.58186254e+00 -1.39919458e+00 -1.21652662e+00 -1.03595829e+00
 -8.61688860e-01 -6.95817954e-01 -5.38345574e-01 -3.97670249e-01
 -2.69592713e-01 -1.58312232e-01 -6.59284362e-02  9.65830593e-03
  7.05476259e-02  1.14639892e-01  1.48234000e-01  1.71329949e-01
  1.88127003e-01  1.98625161e-01  2.07023688e-01  2.15422215e-01
  2.23820742e-01  2.34318900e-01  2.46916691e-01  2.59514481e-01
  2.72112272e-01  2.88909325e-01  3.03606747e-01  3.20403801e-01
  3.37200855e-01  3.53997909e-01  3.72894594e-01  3.89691648e-01
  4.06488702e-01  4.23285756e-01  4.42182441e-01  4.58979495e-01
  4.75776549e-01  4.94673234e-01  5.11470288e-01  5.28267342e-01
  5.45064396e-01  5.61861450e-01  5.76558872e-01  5.89156662e-01]","[-2.57284698 -2.32180639 -2.05374609 -1.76653863 -1.46443893 -1.15170192
 -0.83470998 -0.51346312 -0.19859864  0.10988345  0.40134583  0.67366105
  0.92257419  1.14170284  1.33317448  1.48847926  1.60974463  1.69484314
  1.74377478  1.75866702  1.73739239  1.68420582  1.59910732  1.48847926
  1.35019418  1.19063448  1.01192762  0.82045598  0.62260195  0.420493
  0.22263897  0.03542225 -0.13690222 -0.28795207 -0.4177273  -0.52197297
 -0.60281655 -0.66025804 -0.69642491 -0.71769953 -0.72408192 -0.72195446
 -0.71131714 -0.69429744 -0.67515028 -0.65387565 -0.63047356 -0.60494401
 -0.58154192 -0.55601237 -0.52835535 -0.49857088 -0.46665894 -0.42836461
 -0.38368789 -0.32837386 -0.2581676  -0.17094163 -0.06244103  0.06946166
  0.22902136  0.41623807  0.62685688  0.85662284  1.09915359  1.34168433
  1.57570523  1.79057896  1.97141328  2.10969836  2.19905179  2.23309119
  2.21181657  2.13097298  1.9990703   1.81610851  1.59059747  1.32679209
  1.03320225  0.71408285  0.37794374  0.03116733 -0.3262464  -0.68366013
 -1.03681893 -1.38146789 -1.7112246  -2.01970669 -2.30053176 -2.54731743
 -2.75368131 -2.9196234  -3.04088877 -3.12173235 -3.16640907 -3.18342877
 -3.18130131 -3.16853653 -3.15789922 -3.15364429 -3.16002668 -3.18130131
 -3.21534071 -3.26427235 -3.3238413  -3.38979265 -3.46212638 -3.53658757
 -3.61530369 -3.69189235 -3.768481   -3.84506966 -3.92165831 -3.99824697
 -4.07483563 -4.15142428 -4.22588548 -4.30247413 -4.37693533 -4.45352398
 -4.52798518 -4.60457383 -4.68116249 -4.75562368 -4.83221234 -4.90667353
 -4.98113472 -5.05772338 -5.13005711 -5.20239084 -5.27259711 -5.34067592
 -5.40024487 -5.45343144 -5.49598069 -5.52151024 -5.53002009 -5.51300039
 -5.46832368 -5.39173502]",0.2136825200859958,0.3098117514655817,4.762739999999999,
034,2,2,csp,37b.png,1,1,244,175,243,1,1,260,pos_feedback_onset,4,"[-1.61909413e+00 -1.47103994e+00 -1.28762952e+00 -1.07991170e+00
 -8.47886471e-01 -6.02602660e-01 -3.52899321e-01 -1.07615510e-01
  1.19990189e-01  3.23288482e-01  4.95650079e-01  6.32655451e-01
  7.32094834e-01  7.91758464e-01  8.16065869e-01  8.07226812e-01
  7.69660823e-01  7.09997194e-01  6.30445687e-01  5.39845361e-01
  4.38196214e-01  3.32127539e-01  2.23849100e-01  1.13360896e-01
  2.87269328e-03 -1.03195982e-01 -2.07054893e-01 -3.06494276e-01
 -3.94884838e-01 -4.74436344e-01 -5.36309738e-01 -5.80505019e-01
 -6.00392896e-01 -5.93763604e-01 -5.53987851e-01 -4.83275401e-01
 -3.81626254e-01 -2.49040410e-01 -9.43569255e-02  7.57949074e-02
  2.54785797e-01  4.33776686e-01  6.03928519e-01  7.58612003e-01
  8.93407611e-01  1.00831534e+00  1.09670590e+00  1.16741835e+00
  1.21603316e+00  1.25138939e+00  1.27348703e+00  1.28453585e+00
  1.28895538e+00  1.28895538e+00  1.28674561e+00  1.28232609e+00
  1.27569679e+00  1.26906750e+00  1.26022845e+00  1.25359915e+00
  1.24476010e+00  1.23813080e+00  1.22929175e+00  1.22266246e+00
  1.21382340e+00  1.20719411e+00  1.19835505e+00  1.18951600e+00
  1.18288670e+00  1.17404765e+00  1.16741835e+00  1.15857930e+00
  1.15195001e+00  1.14311095e+00  1.13427189e+00  1.12764260e+00
  1.11880355e+00  1.11217425e+00  1.10333520e+00  1.09670590e+00
  1.08786685e+00  1.08123756e+00  1.07239850e+00  1.06576921e+00
  1.05913992e+00  1.05472039e+00  1.05251062e+00  1.05251062e+00
  1.05913992e+00  1.07239850e+00  1.09670590e+00  1.13648166e+00
  1.19393552e+00  1.27348703e+00  1.37734594e+00  1.50772202e+00
  1.66461527e+00  1.84581592e+00  2.04469469e+00  2.25241251e+00
  2.46013033e+00  2.65900910e+00  2.83358046e+00  2.97721512e+00
  3.08107403e+00  3.13852790e+00  3.14736696e+00  3.10980097e+00
  3.02362017e+00  2.89766362e+00  2.73635084e+00  2.54410137e+00
  2.33196402e+00  2.10435832e+00  1.86570380e+00  1.62483952e+00
  1.38839476e+00  1.16299883e+00  9.55281005e-01  7.76290116e-01
  6.34865215e-01  5.37635597e-01  4.95650079e-01  5.13328192e-01
  5.99508990e-01  7.49772947e-01  9.59700533e-01  1.22266246e+00
  1.52319037e+00  1.84581592e+00  2.17507077e+00  2.49327679e+00
  2.78496565e+00  3.03687875e+00  3.24017705e+00  3.39265077e+00
  3.49209015e+00  3.54070496e+00  3.54512449e+00  3.50755850e+00
  3.43463628e+00  3.33740667e+00  3.22249893e+00  3.09212285e+00
  2.95732725e+00  2.82253164e+00  2.69215556e+00  2.57724783e+00
  2.48222797e+00  2.41372529e+00  2.38057883e+00  2.38499835e+00
  2.43361316e+00  2.52642325e+00  2.65900910e+00  2.82695117e+00
  3.02141040e+00  3.22691846e+00  3.43021676e+00  3.62025647e+00
  3.78377901e+00  3.91194532e+00  4.00254565e+00  4.05337022e+00
  4.06662881e+00  4.05116046e+00  4.01801400e+00  3.97381872e+00
  3.92962343e+00  3.89868674e+00  3.88542815e+00  3.89647697e+00
  3.93846249e+00  4.01359447e+00  4.11745338e+00  4.25224899e+00
  4.41356176e+00  4.59697218e+00  4.79585095e+00  5.01019806e+00
  5.23117447e+00  5.45657040e+00  5.68417610e+00  5.90957203e+00
  6.13496797e+00  6.35594438e+00  6.57471102e+00  6.79126790e+00
  7.00561501e+00  7.21775236e+00  7.42988971e+00  7.63760753e+00
  7.83869606e+00  8.03315530e+00  8.21656572e+00  8.38450779e+00
  8.53477174e+00  8.66514782e+00  8.76900673e+00  8.84634848e+00
  8.89717305e+00  8.92148045e+00  8.91927069e+00  8.89496328e+00
  8.85076800e+00  8.79110437e+00  8.72260169e+00  8.64746971e+00
  8.57454750e+00  8.50383505e+00  8.44196165e+00  8.39334684e+00
  8.35578085e+00  8.33368321e+00  8.32484416e+00  8.32705392e+00
  8.33589298e+00  8.34694180e+00  8.35578085e+00  8.36020038e+00
  8.35578085e+00  8.33589298e+00  8.30495628e+00  8.26076100e+00
  8.20330713e+00  8.13922398e+00  8.06851153e+00  7.99779907e+00
  7.92929639e+00  7.86742300e+00  7.81217889e+00  7.76577385e+00
  7.73041762e+00  7.70169069e+00  7.68180281e+00  7.66633447e+00
  7.65749541e+00  7.64865635e+00  7.64423682e+00  7.64202706e+00
  7.63981730e+00  7.63760753e+00  7.63539777e+00  7.63539777e+00
  7.63318800e+00  7.63318800e+00  7.63097824e+00  7.63097824e+00
  7.62876848e+00  7.62655871e+00  7.62655871e+00  7.62434895e+00
  7.62434895e+00  7.62213918e+00  7.62213918e+00  7.61992942e+00
  7.61992942e+00  7.61771966e+00  7.61771966e+00  7.61550989e+00]","[nan nan nan nan nan nan nan nan nan nan nan nan nan nan nan nan nan nan
 nan nan nan nan nan nan nan nan nan nan nan nan nan nan nan nan nan nan
 nan nan nan nan nan nan nan nan nan nan nan nan nan nan nan nan nan nan
 nan nan nan nan nan nan nan nan nan nan nan nan nan nan nan nan nan nan
 nan nan nan nan nan nan nan nan nan nan nan nan nan nan nan nan nan nan
 nan nan nan nan nan nan nan nan nan nan nan nan nan nan nan nan nan nan
 nan nan nan nan nan nan nan nan nan nan nan nan nan nan nan nan nan nan
 nan nan nan nan nan nan nan nan nan nan nan nan nan nan]",7.978518883538792,,4.525370000000001,0.3775750000000002
034,2,2,csp,64b.png,1,1,272,202,272,1,1,318,pos_feedback_onset,5,"[-5.28575636e-01 -4.60372328e-01 -3.98369321e-01 -3.36366314e-01
 -2.74363307e-01 -2.16493833e-01 -1.58624360e-01 -1.04888420e-01
 -5.11524809e-02 -1.55007518e-03  4.39187967e-02  8.73209017e-02
  1.28656240e-01  1.69991578e-01  2.13393683e-01  2.58862555e-01
  3.10531727e-01  3.68401201e-01  4.36604509e-01  5.13074884e-01
  6.01945861e-01  6.99083906e-01  8.06555785e-01  9.20227964e-01
  1.03596691e+00  1.15377262e+00  1.26331127e+00  1.36251608e+00
  1.44725353e+00  1.51132330e+00  1.55059187e+00  1.56299247e+00
  1.55059187e+00  1.51339007e+00  1.45552059e+00  1.37698345e+00
  1.28604571e+00  1.18684090e+00  1.07936902e+00  9.71897137e-01
  8.60291724e-01  7.50753078e-01  6.43281199e-01  5.35809320e-01
  4.28337441e-01  3.22932329e-01  2.19593984e-01  1.16255638e-01
  1.29172932e-02 -9.04210521e-02 -1.93759397e-01 -2.97097743e-01
 -3.98369321e-01 -5.01707666e-01 -6.05046011e-01 -7.08384357e-01
 -8.09655935e-01 -9.12994280e-01 -1.01633263e+00 -1.11760420e+00
 -1.22094255e+00 -1.32221413e+00 -1.42141894e+00 -1.52062375e+00
 -1.61569503e+00 -1.70869954e+00 -1.79343698e+00 -1.86990736e+00
 -1.93811067e+00 -1.98977984e+00 -2.02698164e+00 -2.04558254e+00
 -2.04558254e+00 -2.02698164e+00 -1.98771307e+00 -1.93397713e+00
 -1.86990736e+00 -1.79963728e+00 -1.73143397e+00 -1.67149773e+00
 -1.62602886e+00 -1.60122766e+00 -1.59916089e+00 -1.62396210e+00
 -1.67563127e+00 -1.75003488e+00 -1.84923969e+00 -1.96497863e+00
 -2.09725172e+00 -2.23779187e+00 -2.38866585e+00 -2.54367337e+00
 -2.69868089e+00 -2.85575517e+00 -3.01489622e+00 -3.16990374e+00
 -3.32491126e+00 -3.47785201e+00 -3.62872599e+00 -3.77546644e+00
 -3.91600659e+00 -4.05241321e+00 -4.17848599e+00 -4.29422494e+00
 -4.39549651e+00 -4.48436749e+00 -4.55670433e+00 -4.61044027e+00
 -4.64557531e+00 -4.66417621e+00 -4.66830975e+00 -4.65590914e+00
 -4.62904118e+00 -4.59183937e+00 -4.54223697e+00 -4.48436749e+00
 -4.41823095e+00 -4.34382734e+00 -4.26322343e+00 -4.17641922e+00
 -4.08548148e+00 -3.99247697e+00 -3.89947246e+00 -3.81060148e+00
 -3.72999757e+00 -3.65766073e+00 -3.59979126e+00 -3.55432238e+00
 -3.52332088e+00 -3.50678675e+00 -3.50471998e+00 -3.51712058e+00
 -3.53778825e+00 -3.56878975e+00 -3.60599156e+00 -3.64939366e+00
 -3.69692930e+00 -3.74446494e+00 -3.79406735e+00 -3.84573652e+00
 -3.89533892e+00 -3.94494133e+00 -3.99041020e+00 -4.03381231e+00
 -4.07308088e+00 -4.10821592e+00 -4.13508388e+00 -4.15575155e+00
 -4.17228569e+00 -4.18261952e+00 -4.19295336e+00 -4.20535396e+00
 -4.22808840e+00 -4.26735697e+00 -4.33349351e+00 -4.42856479e+00
 -4.56083787e+00 -4.73237952e+00 -4.94525651e+00 -5.19740207e+00
 -5.48054914e+00 -5.78849741e+00 -6.10884628e+00 -6.43126192e+00
 -6.74541049e+00 -7.03682462e+00 -7.29723725e+00 -7.51838131e+00
 -7.69612326e+00 -7.82632958e+00 -7.91106702e+00 -7.95033559e+00
 -7.95033559e+00 -7.91520055e+00 -7.84906401e+00 -7.76019304e+00
 -7.65272116e+00 -7.53284868e+00 -7.40470913e+00 -7.27036928e+00
 -7.13189590e+00 -6.98928898e+00 -6.84254853e+00 -6.69167455e+00
 -6.53253349e+00 -6.36719214e+00 -6.19358372e+00 -6.00757470e+00
 -5.81329861e+00 -5.60455515e+00 -5.38547786e+00 -5.15193320e+00
 -4.90598794e+00 -4.64557531e+00 -4.37069531e+00 -4.08548148e+00
 -3.78580028e+00 -3.47785201e+00 -3.16163667e+00 -2.84335457e+00
 -2.52713923e+00 -2.21505743e+00 -1.91537623e+00 -1.63636270e+00
 -1.38008360e+00 -1.15480601e+00 -9.66730220e-01 -8.15856236e-01
 -7.08384357e-01 -6.44314583e-01 -6.21580147e-01 -6.40181049e-01
 -6.95983755e-01 -7.82787965e-01 -9.00593679e-01 -1.03906706e+00
 -1.19614135e+00 -1.36354947e+00 -1.53715789e+00 -1.71076631e+00
 -1.88230796e+00 -2.04351578e+00 -2.19438976e+00 -2.32666284e+00
 -2.44033502e+00 -2.52920600e+00 -2.59534254e+00 -2.63461111e+00
 -2.65114525e+00 -2.64081141e+00 -2.61187668e+00 -2.56434104e+00
 -2.50027126e+00 -2.42586765e+00 -2.34113021e+00 -2.25019247e+00
 -2.15305442e+00 -2.05178284e+00 -1.94431097e+00 -1.83270555e+00
 -1.71489984e+00 -1.59089383e+00 -1.45862074e+00 -1.31808059e+00
 -1.16720661e+00 -1.00806556e+00 -8.42724205e-01 -6.73249319e-01
 -5.03774433e-01 -3.40499848e-01 -1.89625864e-01 -5.32192478e-02
  6.04529320e-02  1.47257142e-01  2.07193382e-01  2.38194886e-01
  2.40261653e-01  2.17527217e-01  1.72058345e-01  1.07988571e-01]","[-0.86964302 -0.91541918 -0.94038799 -0.93830726 -0.90709624 -0.8446742
 -0.74896041 -0.6220356  -0.46598051 -0.28287587 -0.08312535  0.12702885
  0.34134451  0.5514987   0.74916849  0.92603093  1.07792455  1.20068789
  1.29224021  1.35258152  1.3817118   1.38379253  1.36298519  1.3213705
  1.26310993  1.19444569  1.11537777  1.03006766  0.94059607  0.84904375
  0.75541069  0.6596969   0.56398311  0.46826932  0.37255553  0.27684174
  0.17904721  0.08333342 -0.01238037 -0.1101749  -0.20588869 -0.30160248
 -0.399397   -0.49511079 -0.59290532 -0.68861911 -0.7843329  -0.88212743
 -0.97784122 -1.07355501 -1.17134953 -1.26706332 -1.36277711 -1.46057164
 -1.55628543 -1.65199922 -1.74771301 -1.8434268  -1.93914059 -2.03485438
 -2.12848744 -2.22420123 -2.31575355 -2.40730588 -2.4988582  -2.58624905
 -2.67572064 -2.76103075 -2.84426014 -2.92748952 -3.0107189  -3.08978682
 -3.17093547 -3.25000338 -3.32699056 -3.40605847 -3.48304565 -3.56003283
 -3.63702001 -3.71608793 -3.79307511 -3.87006229 -3.94704947 -4.02403665
 -4.10102383 -4.17801101 -4.25499818 -4.33198536 -4.40897254 -4.48595972
 -4.5629469  -4.63993408 -4.71692126 -4.79390844 -4.87089562 -4.9478828
 -5.02486998 -5.09977643 -5.17468287 -5.24542785 -5.31201135 -5.37443339
 -5.42437102 -5.45974351 -5.47430865 -5.45974351 -5.40772514 -5.30993062
 -5.16219846 -4.95620574 -4.69403318 -4.37360006 -4.00739077 -3.60788973
 -3.18758134 -2.76935369 -2.36985265 -2.00780484 -1.69569465 -1.44392576
 -1.25874039 -1.13597705 -1.07147427 -1.0610706  -1.09020088 -1.14846145
 -1.22752937 -1.31700095 -1.41063401 -1.50426707 -1.59165792 -1.67280657
 -1.74979375 -1.81845799 -1.8850415  -1.9453828  -2.00364337 -2.05774247
 -2.11184156 -2.16385993]",0.7607252285069199,0.39357094628690853,4.838475,0.13147999999999982
034,2,2,csp,54b.png,1,1,140,177,141,1,1,230,pos_feedback_onset,6,"[-0.55201815 -0.28516879 -0.03738009  0.18499438  0.37136537  0.51961502
  0.62550762  0.68268963  0.69327889  0.6530397   0.56832562  0.43913664
  0.27182632  0.07698392 -0.14115484 -0.37200072 -0.60496446 -0.82945678
 -1.03912414 -1.22549513 -1.38009833 -1.50293375 -1.58976569 -1.64271199
 -1.66177266 -1.65330125 -1.61729777 -1.56435147 -1.4965802  -1.42457323
 -1.3504484  -1.28479499 -1.22761298 -1.18737379 -1.16195956 -1.15772386
 -1.17254882 -1.20643446 -1.25726291 -1.32079847 -1.39704115 -1.48175523
 -1.57494073 -1.67236192 -1.77401883 -1.87567573 -1.98156833 -2.08746094
 -2.19335354 -2.29924615 -2.40725661 -2.51314921 -2.61904182 -2.72705228
 -2.83294488 -2.94095534 -3.04684795 -3.15274055 -3.26075101 -3.36664362
 -3.47465408 -3.58054668 -3.68643929 -3.79444974 -3.90034235 -4.00835281
 -4.11424541 -4.22225587 -4.32814848 -4.43404108 -4.54205154 -4.64794415
 -4.75595461 -4.86184721 -4.96773982 -5.07575028 -5.18164288 -5.28965334
 -5.39554595 -5.50143855 -5.60944901 -5.71534161 -5.82123422 -5.92712683
 -6.03301943 -6.13679419 -6.23633324 -6.33587229 -6.42693993 -6.51377186
 -6.58789669 -6.6493144  -6.69590714 -6.71920352 -6.72132137 -6.69590714
 -6.64296084 -6.56248246 -6.454472   -6.32104732 -6.16644412 -5.99066239
 -5.8000557  -5.59250619 -5.37648528 -5.1498751  -4.91479351 -4.67335837
 -4.42768753 -4.17989883 -3.93211013 -3.69067499 -3.45771126 -3.23957249
 -3.04049439 -2.86683052 -2.72069872 -2.60633471 -2.52373847 -2.47291002
 -2.44961365 -2.4474958  -2.46232076 -2.48561714 -2.50891351 -2.52797418
 -2.53432774 -2.52162062 -2.48561714 -2.42419943 -2.33736749 -2.22512133
 -2.08957879 -1.93285773 -1.76131171 -1.57917643 -1.39280544 -1.20643446
 -1.02429918 -0.85275315 -0.6960321  -0.55625386 -0.43553629 -0.33599724
 -0.25763671 -0.2004547  -0.16021551 -0.13691914 -0.12421203 -0.11997632
 -0.11997632 -0.12209417 -0.12209417 -0.11574062 -0.10091565 -0.07761928
 -0.04161579  0.0070948   0.06427681  0.13416593  0.21040861  0.29300484
  0.37771893  0.46243301  0.54291139  0.61703621  0.68480748  0.74410734
  0.79493579  0.83729283  0.87117847  0.89871055  0.92200692  0.94318544
  0.96012826  0.97283537  0.98766033  1.00036745  1.01095671  1.02154597
  1.03213523  1.04272449  1.04907805  1.0554316   1.05754945  1.05331375
  1.04272449  1.01942812  0.98554248  0.93471403  0.86694276  0.78011083
  0.67421822  0.55350065  0.42431167  0.29300484  0.17016942  0.06639466
 -0.00984801 -0.0500872  -0.04373365  0.00921266  0.10875171  0.25276565
  0.43490093  0.64033259  0.86482491  1.09143509  1.31169171  1.51500551
  1.69502294  1.851744    1.97881513  2.08258988  2.16518611  2.23083953
  2.28590368  2.33673213  2.38544273  2.43838903  2.49557104  2.55910661
  2.62476002  2.69041344  2.753949    2.81324886  2.86195946  2.9000808
  2.92337717  2.93184858  2.92761287  2.91067006  2.88102013  2.84501664
  2.80054175  2.75183115  2.7010027   2.64805639  2.59511009  2.54216379
  2.48709963  2.43415333  2.38120703  2.32826072  2.27531442  2.22236812
  2.16942182  2.11647551  2.06352921  2.01058291  1.9576366   1.9046903
  1.851744    1.7987977   1.74585139  1.69290509  1.63995879  1.58701248
  1.53406618  1.48111988]","[ 0.0344676   0.04272331  0.05923474  0.08400187  0.10876901  0.13353615
  0.15417543  0.166559    0.16862293  0.16036721  0.14179186  0.10876901
  0.06749045  0.01382832 -0.04808952 -0.11826308 -0.19462842 -0.27512162
 -0.35974267 -0.44849158 -0.53724049 -0.63011725 -0.72093009 -0.81380685
 -0.90668362 -1.00162431 -1.09450108 -1.18737784 -1.28231853 -1.3751953
 -1.47013599 -1.56301276 -1.65795345 -1.75083022 -1.84577091 -1.93864767
 -2.03358837 -2.12646513 -2.22140582 -2.31428259 -2.40922328 -2.50210005
 -2.59704074 -2.6899175  -2.7848582  -2.87773496 -2.97267566 -3.06555242
 -3.16049311 -3.25336988 -3.34831057 -3.44118734 -3.5340641  -3.62900479
 -3.72188156 -3.81682225 -3.90969902 -4.00463971 -4.09751648 -4.19245717
 -4.28533393 -4.38027463 -4.47315139 -4.56602816 -4.65684099 -4.74765383
 -4.83433881 -4.91895986 -4.9953252  -5.0613709  -5.11503303 -5.15218374
 -5.16663124 -5.15424767 -5.11503303 -5.04485948 -4.943727   -4.81989131
 -4.67541635 -4.52062174 -4.36582713 -4.22135216 -4.09545255 -3.996384
 -3.92621044 -3.89112366 -3.88699581 -3.91382687 -3.96542508 -4.03766256
 -4.12641147 -4.22754395 -4.33693214 -4.45251211 -4.57015601 -4.68986384
 -4.80957167 -4.9292795  -5.04898733 -5.16250338 -5.27189157 -5.37096012
 -5.45558117 -5.52162687 -5.5608415  -5.56703329 -5.53194651 -5.44938939
 -5.31317013 -5.12328875 -4.88180916 -4.59285922 -4.26882251 -3.92208259
 -3.56708695 -3.2182831  -2.89631032 -2.60942431 -2.37000865 -2.18631905
 -2.0583555  -1.99024588 -1.97373445 -2.0067573  -2.08105871 -2.18838297
 -2.32047437 -2.4690772  -2.62593573 -2.78279427 -2.93758888 -3.08206385
 -3.21621917 -3.34211879 -3.45357091 -3.55676731 -3.651708   -3.73839298
 -3.82095011 -3.89937938]",2.465021024976898,-0.2461529117160499,4.7217649999999995,
034,2,2,csm,45a.png,1,1,264,NaN,NaN,0,1,262,neu_feedback_onset,7,"[-3.35238543e-01 -2.56107276e-01 -1.85530741e-01 -1.23508937e-01
 -7.00418647e-02 -2.72682069e-02  6.95071940e-03  3.47535970e-02
  5.40017430e-02  6.89725233e-02  7.75272548e-02  8.39433035e-02
  8.60819864e-02  8.82206693e-02  8.82206693e-02  8.60819864e-02
  8.39433035e-02  8.18046206e-02  7.96659377e-02  7.75272548e-02
  7.32498891e-02  7.11112062e-02  6.68338404e-02  6.46951575e-02
  6.25564746e-02  5.82791088e-02  5.61404259e-02  5.18630601e-02
  4.97243772e-02  4.75856944e-02  4.33083286e-02  4.11696457e-02
  3.68922799e-02  3.47535970e-02  3.26149141e-02  2.83375483e-02
  2.61988654e-02  2.40601825e-02  1.97828168e-02  1.76441339e-02
  1.55054510e-02  1.33667681e-02  1.12280852e-02  9.08940229e-03
  9.08940229e-03  9.08940229e-03  1.33667681e-02  1.76441339e-02
  2.40601825e-02  3.26149141e-02  4.54470115e-02  6.04177917e-02
  7.75272548e-02  1.01052767e-01  1.24578278e-01  1.52381156e-01
  1.82322717e-01  2.12264277e-01  2.46483203e-01  2.80702130e-01
  3.14921056e-01  3.51278665e-01  3.87636274e-01  4.26132566e-01
  4.62490175e-01  4.98847785e-01  5.30928028e-01  5.63008271e-01
  5.86533783e-01  6.01504563e-01  6.03643246e-01  5.88672466e-01
  5.52314857e-01  4.88154370e-01  3.89774957e-01  2.55037935e-01
  7.53885719e-02 -1.49173132e-01 -4.25063225e-01 -7.50143024e-01
 -1.12441253e+00 -1.54787174e+00 -2.01838198e+00 -2.52738851e+00
 -3.07061396e+00 -3.64164229e+00 -4.23191877e+00 -4.83074998e+00
 -5.43171988e+00 -6.02413504e+00 -6.60157942e+00 -7.15335960e+00
 -7.67519823e+00 -8.15854056e+00 -8.59910924e+00 -8.99048821e+00
 -9.33053879e+00 -9.61712230e+00 -9.84596136e+00 -1.00170560e+01
 -1.01346836e+01 -1.01988440e+01 -1.02159535e+01 -1.01881506e+01
 -1.01239901e+01 -1.00298881e+01 -9.90798317e+00 -9.76896878e+00
 -9.61498361e+00 -9.45030503e+00 -9.27707172e+00 -9.09956104e+00
 -8.91991167e+00 -8.73598494e+00 -8.54991953e+00 -8.36171544e+00
 -8.17137266e+00 -7.97889120e+00 -7.78427106e+00 -7.58537355e+00
 -7.38647604e+00 -7.18543985e+00 -6.98440366e+00 -6.78978351e+00
 -6.60157942e+00 -6.42834610e+00 -6.27436093e+00 -6.14603996e+00
 -6.04766055e+00 -5.98563874e+00 -5.96211323e+00 -5.98136138e+00
 -6.04124450e+00 -6.14603996e+00 -6.28719303e+00 -6.46470371e+00
 -6.67215595e+00 -6.90741107e+00 -7.16619170e+00 -7.43994311e+00
 -7.72866530e+00 -8.02380354e+00 -8.32535783e+00 -8.62905080e+00
 -8.93060509e+00 -9.22788201e+00 -9.51874288e+00 -9.79677166e+00
 -1.00619683e+01 -1.03121942e+01 -1.05431720e+01 -1.07527629e+01
 -1.09388283e+01 -1.10992295e+01 -1.12296892e+01 -1.13323460e+01
 -1.14007838e+01 -1.14371414e+01 -1.14371414e+01 -1.14007838e+01
 -1.13280686e+01 -1.12189958e+01 -1.10735653e+01 -1.08917773e+01
 -1.06779090e+01 -1.04340992e+01 -1.01603477e+01 -9.86734819e+00
 -9.55510049e+00 -9.23215937e+00 -8.90707958e+00 -8.58413846e+00
 -8.27616812e+00 -7.98744593e+00 -7.72866530e+00 -7.50838096e+00
 -7.32873160e+00 -7.20041063e+00 -7.12127936e+00 -7.09561517e+00
 -7.11914068e+00 -7.19185590e+00 -7.30520609e+00 -7.45063653e+00
 -7.61745379e+00 -7.79496447e+00 -7.97247515e+00 -8.13715373e+00
 -8.27830680e+00 -8.38737963e+00 -8.45581748e+00 -8.48148168e+00
 -8.46009485e+00 -8.39593436e+00 -8.28900022e+00 -8.14784715e+00
 -7.97675252e+00 -7.78640974e+00 -7.58323486e+00 -7.37792131e+00
 -7.18116248e+00 -6.99723575e+00 -6.83683454e+00 -6.70637488e+00
 -6.60799547e+00 -6.54597366e+00 -6.52458683e+00 -6.53955761e+00
 -6.59088600e+00 -6.67429464e+00 -6.78764483e+00 -6.92238185e+00
 -7.07208965e+00 -7.22821350e+00 -7.38219867e+00 -7.52976779e+00
 -7.66236613e+00 -7.77357764e+00 -7.85912496e+00 -7.91686940e+00
 -7.94681096e+00 -7.94894964e+00 -7.92542413e+00 -7.87623442e+00
 -7.80993525e+00 -7.72652662e+00 -7.63242457e+00 -7.52976779e+00
 -7.42283365e+00 -7.31376082e+00 -7.20254931e+00 -7.09133780e+00
 -6.97798761e+00 -6.86249873e+00 -6.74273249e+00 -6.62082756e+00
 -6.49250659e+00 -6.35776957e+00 -6.21661650e+00 -6.06904738e+00
 -5.91506221e+00 -5.75679967e+00 -5.59212109e+00 -5.42316514e+00
 -5.24993183e+00 -5.07669852e+00 -4.89918784e+00 -4.71953847e+00
 -4.53775043e+00 -4.35596238e+00 -4.16989697e+00 -3.98383156e+00
 -3.79348878e+00 -3.59886864e+00 -3.39997113e+00 -3.19465757e+00
 -2.98506665e+00 -2.76692099e+00 -2.54663665e+00 -2.32421363e+00]","[-1.82392501e+00 -1.67957340e+00 -1.50974798e+00 -1.31657156e+00
 -1.10428979e+00 -8.83516745e-01 -6.56375246e-01 -4.31356565e-01
 -2.12706338e-01 -4.67019904e-03  1.92751851e-01  3.75314177e-01
  5.49385232e-01  7.14965016e-01  8.76299164e-01  1.03763331e+00
  1.20109028e+00  1.37303852e+00  1.55560084e+00  1.74665444e+00
  1.94832212e+00  2.15635826e+00  2.36227158e+00  2.56393927e+00
  2.75287005e+00  2.92481829e+00  3.07341553e+00  3.19653896e+00
  3.29206576e+00  3.36211874e+00  3.40457510e+00  3.42580327e+00
  3.42792609e+00  3.41518919e+00  3.39183819e+00  3.35999592e+00
  3.32390802e+00  3.28145167e+00  3.23899531e+00  3.19229332e+00
  3.14771415e+00  3.10101216e+00  3.05218735e+00  3.00548536e+00
  2.95878337e+00  2.91208138e+00  2.86325657e+00  2.81655458e+00
  2.76985259e+00  2.72315060e+00  2.67644861e+00  2.62762380e+00
  2.58304463e+00  2.53634264e+00  2.49176347e+00  2.44718429e+00
  2.40260512e+00  2.36227158e+00  2.32406087e+00  2.28585015e+00
  2.25188506e+00  2.21791998e+00  2.18607771e+00  2.15211263e+00
  2.11390191e+00  2.07144555e+00  2.02049793e+00  1.96105903e+00
  1.89100605e+00  1.80821615e+00  1.71481217e+00  1.60867129e+00
  1.48979349e+00  1.36454725e+00  1.22868691e+00  1.08858094e+00
  9.44229332e-01  7.95632090e-01  6.44912030e-01  4.92069153e-01
  3.39226275e-01  1.84260580e-01  3.14177026e-02 -1.23547993e-01
 -2.76390870e-01 -4.29233748e-01 -5.82076625e-01 -7.32796685e-01
 -8.83516745e-01 -1.03211399e+00 -1.18071123e+00 -1.32930847e+00
 -1.48002853e+00 -1.63499423e+00 -1.79845119e+00 -1.97039943e+00
 -2.15720739e+00 -2.36312071e+00 -2.59238503e+00 -2.84287752e+00
 -3.11672101e+00 -3.41179268e+00 -3.72384689e+00 -4.04439236e+00
 -4.36918348e+00 -4.68760614e+00 -4.98904626e+00 -5.26713538e+00
 -5.51550506e+00 -5.72566402e+00 -5.89973507e+00 -6.03347259e+00
 -6.12899939e+00 -6.19056110e+00 -6.21815773e+00 -6.22028055e+00
 -6.20117519e+00 -6.16296447e+00 -6.11201685e+00 -6.05257795e+00
 -5.98677060e+00 -5.91459480e+00 -5.84241899e+00 -5.76599755e+00
 -5.68957612e+00 -5.61527749e+00 -5.53885606e+00 -5.46668025e+00
 -5.39450445e+00 -5.32869710e+00 -5.26501257e+00 -5.20769649e+00
 -5.15887168e+00 -5.11641533e+00 -5.08669588e+00 -5.06546770e+00
 -5.05909925e+00 -5.06334488e+00 -5.08032742e+00 -5.11216969e+00]",-0.6653442477450222,2.620087799741841,4.675775,
034,2,2,csm,1a.png,1,1,88,238,88,1,1,320,neu_feedback_onset,8,"[-3.06955248e-01 -2.54698652e-01 -1.98261528e-01 -1.33463348e-01
 -6.44846402e-02  8.67459504e-03  8.18338303e-02  1.52902802e-01
  2.15610718e-01  2.65777050e-01  2.97131008e-01  3.07582328e-01
  2.90860217e-01  2.46964676e-01  1.73805440e-01  7.34727748e-02
 -5.19430570e-02 -1.98261528e-01 -3.63392373e-01 -5.43155065e-01
 -7.31278813e-01 -9.27763616e-01 -1.12633868e+00 -1.32282349e+00
 -1.51512776e+00 -1.69907098e+00 -1.87047262e+00 -2.02724241e+00
 -2.16310956e+00 -2.27598381e+00 -2.36377489e+00 -2.42021202e+00
 -2.45156597e+00 -2.45783677e+00 -2.44320492e+00 -2.41394122e+00
 -2.37840674e+00 -2.34496252e+00 -2.31778909e+00 -2.30524750e+00
 -2.30733777e+00 -2.33033067e+00 -2.37004568e+00 -2.42857307e+00
 -2.49964204e+00 -2.58325260e+00 -2.67522421e+00 -2.77346661e+00
 -2.87797980e+00 -2.98458326e+00 -3.09327698e+00 -3.20197070e+00
 -3.31275469e+00 -3.42353867e+00 -3.53432266e+00 -3.64510664e+00
 -3.75589062e+00 -3.86667461e+00 -3.97745859e+00 -4.08824258e+00
 -4.19902656e+00 -4.30981055e+00 -4.42059453e+00 -4.53137852e+00
 -4.64216250e+00 -4.75294649e+00 -4.86373047e+00 -4.97451446e+00
 -5.08738871e+00 -5.19817269e+00 -5.30895668e+00 -5.42183092e+00
 -5.53261491e+00 -5.64757942e+00 -5.76045367e+00 -5.87750845e+00
 -5.99874375e+00 -6.12206932e+00 -6.25166568e+00 -6.38753283e+00
 -6.53176104e+00 -6.68435030e+00 -6.84739088e+00 -7.02088278e+00
 -7.20482600e+00 -7.39922054e+00 -7.60615666e+00 -7.81936358e+00
 -8.04093155e+00 -8.27086057e+00 -8.50287986e+00 -8.74116994e+00
 -8.98155029e+00 -9.22193063e+00 -9.46440124e+00 -9.70478158e+00
 -9.94307166e+00 -1.01750910e+01 -1.04008394e+01 -1.06140464e+01
 -1.08105312e+01 -1.09882036e+01 -1.11407929e+01 -1.12641184e+01
 -1.13519095e+01 -1.14062564e+01 -1.14229785e+01 -1.14041661e+01
 -1.13539998e+01 -1.12766600e+01 -1.11784176e+01 -1.10697239e+01
 -1.09547594e+01 -1.08356143e+01 -1.07227401e+01 -1.06119561e+01
 -1.05053526e+01 -1.04008394e+01 -1.02963263e+01 -1.01834520e+01
 -1.00643070e+01 -9.93053008e+00 -9.78003108e+00 -9.61071971e+00
 -9.42259596e+00 -9.21565984e+00 -8.99409187e+00 -8.75789205e+00
 -8.51333118e+00 -8.26249952e+00 -8.01166785e+00 -7.76292645e+00
 -7.52254611e+00 -7.28843656e+00 -7.06477832e+00 -6.84948114e+00
 -6.64045476e+00 -6.43560890e+00 -6.23285330e+00 -6.02591718e+00
 -5.81480053e+00 -5.59114230e+00 -5.35912301e+00 -5.11456214e+00
 -4.86164021e+00 -4.60453775e+00 -4.34534503e+00 -4.09242311e+00
 -3.85622329e+00 -3.64092611e+00 -3.45489263e+00 -3.30439363e+00
 -3.19569991e+00 -3.12672120e+00 -3.09954777e+00 -3.10790883e+00
 -3.14971410e+00 -3.21242202e+00 -3.28976178e+00 -3.37546260e+00
 -3.45489263e+00 -3.52596160e+00 -3.58030846e+00 -3.61166242e+00
 -3.62211374e+00 -3.60957215e+00 -3.57612793e+00 -3.52178107e+00
 -3.45071210e+00 -3.36710155e+00 -3.27094941e+00 -3.16852648e+00
 -3.05774249e+00 -2.94486825e+00 -2.82781347e+00 -2.70866843e+00
 -2.58534286e+00 -2.45992703e+00 -2.32824041e+00 -2.19237325e+00
 -2.04814505e+00 -1.89346552e+00 -1.72624441e+00 -1.54648172e+00
 -1.35208718e+00 -1.14097053e+00 -9.15222033e-01 -6.76931953e-01
 -4.32371080e-01 -1.81539417e-01  6.72019832e-02  3.07582328e-01
  5.37511353e-01  7.46537739e-01  9.36751751e-01  1.10188260e+00
  1.24402054e+00  1.36316558e+00  1.46349824e+00  1.54919906e+00
  1.62444856e+00  1.69551753e+00  1.76867677e+00  1.84392627e+00
  1.92962709e+00  2.02368896e+00  2.12820215e+00  2.24107640e+00
  2.36440197e+00  2.49190807e+00  2.62150443e+00  2.75110079e+00
  2.87860688e+00  2.99775192e+00  3.10644564e+00  3.20050752e+00
  3.28202781e+00  3.34264546e+00  3.38654100e+00  3.40953390e+00
  3.41580469e+00  3.40326311e+00  3.37817994e+00  3.33846493e+00
  3.29247913e+00  3.23604200e+00  3.17751461e+00  3.11271643e+00
  3.04791825e+00  2.98102981e+00  2.91414137e+00  2.84725292e+00
  2.78036448e+00  2.71347604e+00  2.64658759e+00  2.57969915e+00
  2.51281070e+00  2.44592226e+00  2.37903382e+00  2.31214537e+00
  2.24525693e+00  2.17836849e+00  2.11148004e+00  2.04459160e+00
  1.97770316e+00  1.91290498e+00  1.84601653e+00  1.77912809e+00
  1.71223964e+00  1.64535120e+00  1.57846276e+00  1.51157431e+00
  1.44468587e+00  1.37988769e+00  1.31299925e+00  1.24820107e+00
  1.18340289e+00  1.12069497e+00  1.05798705e+00  9.97369403e-01]","[ 0.85137659  0.75768144  0.66815052  0.58278383  0.50990982  0.44328216
  0.38498296  0.33084798  0.27046666  0.203839    0.12055443  0.02061293
 -0.1001497  -0.23965137 -0.39164572 -0.55613276 -0.72478403 -0.89135319
 -1.04751177 -1.19325978 -1.32443299 -1.43894928 -1.53889077 -1.62633958
 -1.69921359 -1.76584125 -1.82414045 -1.87827543 -1.92824617 -1.9761348
 -2.02402344 -2.06982995 -2.11563647 -2.16144299 -2.20516739 -2.25097391
 -2.29678043 -2.34258694 -2.38631135 -2.43211786 -2.47792438 -2.5237309
 -2.5674553  -2.61326182 -2.65906834 -2.70279274 -2.74859926 -2.79440577
 -2.84021229 -2.8839367  -2.92974321 -2.97554973 -3.02135625 -3.06508065
 -3.11088717 -3.15669369 -3.2025002  -3.24622461 -3.29203112 -3.33783764
 -3.38364416 -3.42736856 -3.47317508 -3.5189816  -3.562706   -3.60851252
 -3.65223692 -3.69804344 -3.73968573 -3.78132801 -3.82088819 -3.85836625
 -3.88959796 -3.91666545 -3.93540448 -3.94581505 -3.94789717 -3.93956871
 -3.9229118  -3.90209065 -3.87918739 -3.85836625 -3.84379145 -3.84587356
 -3.86253048 -3.90417277 -3.96871831 -4.05824923 -4.17068341 -4.30810296
 -4.46217943 -4.63291282 -4.81613889 -5.00769341 -5.20341217 -5.40329515
 -5.60109603 -5.79681478 -5.98628719 -6.16534904 -6.33191819 -6.48391254
 -6.61508575 -6.7233557  -6.80872239 -6.87118583 -6.910746   -6.92740292
 -6.92740292 -6.90866389 -6.87535006 -6.82746142 -6.76708011 -6.69212399
 -6.60259307 -6.50056946 -6.38188894 -6.25071573 -6.10496772 -5.94672702
 -5.78223998 -5.60734237 -5.42828053 -5.24713657 -5.0639105  -4.88276655
 -4.70162259 -4.52464287 -4.35390948 -4.18525821 -4.0249354  -3.86877682
 -3.71470035 -3.56478811 -3.41279376 -3.25871729 -3.09839448 -2.92974321
 -2.74859926 -2.55912684]",2.740074643322596,-2.0305979120394114e-14,4.784085,0.21588500000000188
034,2,2,csp,48b.png,1,1,164,179,164,1,0,204,neg_feedback_onset,9,"[-2.48188802e-01 -1.67426488e-01 -8.45933462e-02 -3.83103282e-03
  7.27896235e-02  1.41126966e-01  1.97039336e-01  2.38455907e-01
  2.61235021e-01  2.65376679e-01  2.48810050e-01  2.13605965e-01
  1.57693594e-01  8.52145948e-02  2.38145283e-03 -9.08058319e-02
 -1.86063945e-01 -2.81322058e-01 -3.70367686e-01 -4.51129999e-01
 -5.19467341e-01 -5.73308884e-01 -6.12654626e-01 -6.37504569e-01
 -6.47858712e-01 -6.47858712e-01 -6.39575397e-01 -6.23008769e-01
 -6.02300483e-01 -5.77450541e-01 -5.50529770e-01 -5.25679827e-01
 -5.04971542e-01 -4.86334085e-01 -4.75979942e-01 -4.73909113e-01
 -4.84263256e-01 -5.09113199e-01 -5.50529770e-01 -6.08512969e-01
 -6.85133625e-01 -7.80391739e-01 -8.90145652e-01 -1.01646619e+00
 -1.15314088e+00 -1.29809888e+00 -1.44512770e+00 -1.59629819e+00
 -1.74332701e+00 -1.88828501e+00 -2.02703053e+00 -2.16370521e+00
 -2.29416741e+00 -2.42255878e+00 -2.54473766e+00 -2.66691655e+00
 -2.78702460e+00 -2.90506183e+00 -3.02309906e+00 -3.14113628e+00
 -3.25710268e+00 -3.37513991e+00 -3.49110631e+00 -3.60914354e+00
 -3.72510994e+00 -3.84107633e+00 -3.95911356e+00 -4.07507996e+00
 -4.19104636e+00 -4.30908359e+00 -4.42504998e+00 -4.54101638e+00
 -4.65905361e+00 -4.77502001e+00 -4.89098641e+00 -5.00902364e+00
 -5.12499003e+00 -5.24095643e+00 -5.35692283e+00 -5.47288923e+00
 -5.58885563e+00 -5.70275120e+00 -5.81664677e+00 -5.92640068e+00
 -6.03201294e+00 -6.13555437e+00 -6.23081248e+00 -6.31985811e+00
 -6.39854959e+00 -6.46688693e+00 -6.52279930e+00 -6.56628670e+00
 -6.59527830e+00 -6.60977410e+00 -6.61184493e+00 -6.60149079e+00
 -6.58078250e+00 -6.54972008e+00 -6.51244516e+00 -6.46895776e+00
 -6.42132871e+00 -6.36955799e+00 -6.31571645e+00 -6.25980408e+00
 -6.20389171e+00 -6.14590851e+00 -6.08792531e+00 -6.02787128e+00
 -5.96781725e+00 -5.90569240e+00 -5.83942588e+00 -5.77108854e+00
 -5.69653871e+00 -5.61577640e+00 -5.52673077e+00 -5.42526017e+00
 -5.31343543e+00 -5.18711489e+00 -5.04629855e+00 -4.88684475e+00
 -4.71289515e+00 -4.52237893e+00 -4.31529607e+00 -4.09371742e+00
 -3.86178462e+00 -3.62156851e+00 -3.37306908e+00 -3.12249883e+00
 -2.86985774e+00 -2.62342915e+00 -2.38735469e+00 -2.16163438e+00
 -1.95455153e+00 -1.76817696e+00 -1.60872316e+00 -1.47826096e+00
 -1.37679036e+00 -1.30638219e+00 -1.26910728e+00 -1.25875313e+00
 -1.27324893e+00 -1.30431136e+00 -1.34986959e+00 -1.39956947e+00
 -1.44719853e+00 -1.48447345e+00 -1.50518173e+00 -1.50311090e+00
 -1.47826096e+00 -1.42441942e+00 -1.34365710e+00 -1.23597402e+00
 -1.10551182e+00 -9.54341337e-01 -7.90745881e-01 -6.18867112e-01
 -4.42846685e-01 -2.68897087e-01 -1.05301632e-01  4.79396809e-02
  1.86685194e-01  3.08864078e-01  4.14476334e-01  5.01451133e-01
  5.69788475e-01  6.23630017e-01  6.65046588e-01  6.91967360e-01
  7.08533988e-01  7.14746474e-01  7.14746474e-01  7.08533988e-01
  6.98179845e-01  6.85754874e-01  6.71259074e-01  6.58834103e-01
  6.46409132e-01  6.38125817e-01  6.31913332e-01  6.23630017e-01
  6.17417532e-01  6.04992561e-01  5.86355104e-01  5.57363504e-01
  5.11805276e-01  4.45538762e-01  3.56493135e-01  2.42597564e-01
  9.97103946e-02 -7.00975464e-02 -2.64755430e-01 -4.78050771e-01
 -7.05841911e-01 -9.41916365e-01 -1.17799082e+00 -1.40992362e+00
 -1.63150227e+00 -1.84065596e+00 -2.03531384e+00 -2.21340509e+00
 -2.38114221e+00 -2.53438352e+00 -2.67934152e+00 -2.81601620e+00
 -2.94854923e+00 -3.07486977e+00 -3.20119031e+00 -3.32544003e+00
 -3.44761891e+00 -3.56979779e+00 -3.69197668e+00 -3.81208473e+00
 -3.93426362e+00 -4.05644250e+00 -4.17655056e+00 -4.29872944e+00
 -4.42090833e+00 -4.54101638e+00 -4.66319527e+00 -4.78537415e+00
 -4.90548221e+00 -5.02766109e+00 -5.14983998e+00 -5.26994803e+00
 -5.39212692e+00 -5.51430580e+00 -5.63441386e+00 -5.75659274e+00
 -5.87670080e+00 -5.99887968e+00 -6.12105857e+00 -6.24116662e+00
 -6.36334551e+00 -6.48552439e+00 -6.60563245e+00 -6.72781133e+00
 -6.84999022e+00 -6.97009827e+00 -7.09227716e+00 -7.21445604e+00
 -7.33456410e+00 -7.45674298e+00 -7.57685104e+00 -7.69902992e+00
 -7.82120880e+00 -7.94131686e+00 -8.06349574e+00 -8.18567463e+00
 -8.30578269e+00 -8.42796157e+00 -8.55014045e+00 -8.67024851e+00
 -8.79242739e+00 -8.91460628e+00 -9.03471433e+00 -9.15689322e+00
 -9.27700127e+00 -9.39918016e+00 -9.52135904e+00 -9.64353793e+00]","[-0.93664161 -0.88733387 -0.82569919 -0.75173758 -0.66750353 -0.57094254
 -0.4641091  -0.34905771 -0.22578836 -0.09635554  0.03513176  0.16456458
  0.2939974   0.41932124  0.5405361   0.65558749  0.76652991  0.87130885
  0.96786984  1.06032186  1.14250142  1.21646303  1.27809771  1.32945994
  1.36849523  1.3931491   1.40958501  1.41369399  1.40958501  1.39931257
  1.38082217  1.36027727  1.3356234   1.31096953  1.28220669  1.25344384
  1.22468099  1.19591814  1.1651008   1.13633796  1.10552062  1.07675777
  1.04594043  1.01717758  0.98636025  0.9575974   0.92678006  0.89801721
  0.86719988  0.83843703  0.80761969  0.77885684  0.7480395   0.71927666
  0.68845932  0.65969647  0.63093362  0.60011628  0.57135344  0.54259059
  0.51382774  0.48506489  0.45835653  0.43164817  0.40493981  0.37823145
  0.3515231   0.32276025  0.2939974   0.26318006  0.22825375  0.18921845
  0.14607418  0.09882093  0.04540421 -0.01212149 -0.07375616 -0.13744532
 -0.20318898 -0.27304161 -0.34083975 -0.41069238 -0.48054501 -0.54834316
 -0.6161413  -0.68188495 -0.74762861 -0.81131777 -0.87500693 -0.9386961
 -1.00033077 -1.06196545 -1.12154563 -1.18112582 -1.23865152 -1.29206823
 -1.34343046 -1.38862922 -1.42561003 -1.45437288 -1.47286328 -1.47902675
 -1.47491777 -1.45848186 -1.43588248 -1.40917412 -1.38452025 -1.37219331
 -1.37630229 -1.40711963 -1.4687543  -1.56942427 -1.70912953 -1.88787009
 -2.10359145 -2.35013015 -2.62337721 -2.91306018 -3.21096111 -3.50886204
 -3.79854501 -4.07384656 -4.32860321 -4.558706   -4.76004594 -4.93262303
 -5.07232829 -5.18121622 -5.26134129 -5.31270352 -5.33941188 -5.34557535
 -5.3353029  -5.31270352 -5.28188619 -5.24901436 -5.21614253 -5.18327071
 -5.15450786 -5.12985399]",0.19605569286302305,0.9556456334914355,4.8289849999999985,0.5614300000000005
034,2,2,csm,66a.png,1,1,240,242,240,1,1,269,neu_feedback_onset,10,"[ 2.10951787e+00  1.90196529e+00  1.67746964e+00  1.44450245e+00
  1.20094585e+00  9.53153476e-01  7.01125337e-01  4.46979316e-01
  1.94951177e-01 -5.49590772e-02 -2.98515681e-01 -5.31482868e-01
 -7.49624870e-01 -9.48705920e-01 -1.12237237e+00 -1.26427056e+00
 -1.36804686e+00 -1.42946548e+00 -1.44640855e+00 -1.41675818e+00
 -1.34263225e+00 -1.22826654e+00 -1.08425047e+00 -9.16937668e-01
 -7.36917569e-01 -5.56897470e-01 -3.85348905e-01 -2.32861292e-01
 -1.03670398e-01 -4.12987285e-03  6.15245161e-02  9.54106523e-02
  9.75285358e-02  6.78781666e-02  1.28131953e-02 -6.55484948e-02
 -1.62971136e-01 -2.70983196e-01 -3.87466789e-01 -5.08186149e-01
 -6.28905510e-01 -7.45389103e-01 -8.57636929e-01 -9.61413221e-01
 -1.06095375e+00 -1.15202274e+00 -1.23885596e+00 -1.31933554e+00
 -1.39557934e+00 -1.46758738e+00 -1.53747754e+00 -1.60736769e+00
 -1.67302208e+00 -1.73655859e+00 -1.79797721e+00 -1.85516006e+00
 -1.91022504e+00 -1.96105424e+00 -2.00764768e+00 -2.05000535e+00
 -2.08812725e+00 -2.12624915e+00 -2.16225317e+00 -2.20037508e+00
 -2.24273275e+00 -2.28932618e+00 -2.34227327e+00 -2.40369189e+00
 -2.47358205e+00 -2.54982586e+00 -2.63665908e+00 -2.72772807e+00
 -2.82515071e+00 -2.92469124e+00 -3.02634965e+00 -3.13012594e+00
 -3.22966647e+00 -3.32708911e+00 -3.41815810e+00 -3.49651979e+00
 -3.56429206e+00 -3.61300338e+00 -3.64265375e+00 -3.64688952e+00
 -3.62782857e+00 -3.58758878e+00 -3.52617016e+00 -3.45204423e+00
 -3.37580043e+00 -3.30591027e+00 -3.25508107e+00 -3.23178435e+00
 -3.24872742e+00 -3.31014604e+00 -3.41815810e+00 -3.57488148e+00
 -3.77608041e+00 -4.01328337e+00 -4.27801880e+00 -4.56181520e+00
 -4.85831889e+00 -5.15905835e+00 -5.45767992e+00 -5.75630150e+00
 -6.04856942e+00 -6.34083735e+00 -6.63098739e+00 -6.92537320e+00
 -7.22399477e+00 -7.52897000e+00 -7.84453464e+00 -8.16857082e+00
 -8.50107853e+00 -8.83993989e+00 -9.18515491e+00 -9.53036992e+00
 -9.87134917e+00 -1.02038569e+01 -1.05194215e+01 -1.08095716e+01
 -1.10615997e+01 -1.12670344e+01 -1.14131684e+01 -1.14830585e+01
 -1.14724691e+01 -1.13729286e+01 -1.11802012e+01 -1.08985227e+01
 -1.05363646e+01 -1.01085521e+01 -9.63202833e+00 -9.13008994e+00
 -8.62179789e+00 -8.12621315e+00 -7.66239666e+00 -7.24305572e+00
 -6.87666188e+00 -6.56533300e+00 -6.31118698e+00 -6.10998804e+00
 -5.95114678e+00 -5.82830954e+00 -5.72876901e+00 -5.63981790e+00
 -5.55086680e+00 -5.45132627e+00 -5.33060691e+00 -5.18447295e+00
 -5.00445285e+00 -4.79266450e+00 -4.54699001e+00 -4.27166515e+00
 -3.96880781e+00 -3.64688952e+00 -3.31014604e+00 -2.96493103e+00
 -2.62183390e+00 -2.28509042e+00 -1.96105424e+00 -1.65819690e+00
 -1.37651839e+00 -1.12237237e+00 -8.99994599e-01 -7.07267200e-01
 -5.44190169e-01 -4.10763508e-01 -3.04869332e-01 -2.18036108e-01
 -1.48145952e-01 -8.88452134e-02 -3.58981256e-02  1.91668458e-02
  8.05854677e-02  1.50475624e-01  2.30955197e-01  3.26259955e-01
  4.32154131e-01  5.46519841e-01  6.67239201e-01  7.92194329e-01
  9.10795805e-01  1.02516152e+00  1.12893781e+00  1.21577103e+00
  1.28777907e+00  1.33860828e+00  1.37037653e+00  1.38096595e+00
  1.37249441e+00  1.34284404e+00  1.29836849e+00  1.23483198e+00
  1.16070606e+00  1.07599072e+00  9.87039612e-01  8.95970621e-01
  8.11255280e-01  7.37129357e-01  6.75710735e-01  6.31235181e-01
  6.07938463e-01  6.07938463e-01  6.26999414e-01  6.65121318e-01
  7.15950522e-01  7.75251260e-01  8.34551999e-01  8.87499087e-01
  9.25620990e-01  9.40446175e-01  9.23503106e-01  8.72673902e-01
  7.81604911e-01  6.50296133e-01  4.78747568e-01  2.66959217e-01
  2.34026128e-02 -2.45568593e-01 -5.33600751e-01 -8.32222327e-01
 -1.12872602e+00 -1.41675818e+00 -1.68572938e+00 -1.93140387e+00
 -2.14531011e+00 -2.32744809e+00 -2.47358205e+00 -2.58582988e+00
 -2.66419157e+00 -2.71502077e+00 -2.74255326e+00 -2.74678902e+00
 -2.73831749e+00 -2.71713865e+00 -2.68960617e+00 -2.65572003e+00
 -2.61759813e+00 -2.58159411e+00 -2.54347221e+00 -2.50535030e+00
 -2.46722840e+00 -2.42910650e+00 -2.39310248e+00 -2.35709846e+00
 -2.32109444e+00 -2.28509042e+00 -2.24908640e+00 -2.21520026e+00
 -2.17919624e+00 -2.14319222e+00 -2.10718820e+00 -2.07330207e+00
 -2.03729805e+00 -2.00129403e+00 -1.96529001e+00 -1.93140387e+00
 -1.89539985e+00 -1.85939583e+00 -1.82550970e+00 -1.78950568e+00]","[nan nan nan nan nan nan nan nan nan nan nan nan nan nan nan nan nan nan
 nan nan nan nan nan nan nan nan nan nan nan nan nan nan nan nan nan nan
 nan nan nan nan nan nan nan nan nan nan nan nan nan nan nan nan nan nan
 nan nan nan nan nan nan nan nan nan nan nan nan nan nan nan nan nan nan
 nan nan nan nan nan nan nan nan nan nan nan nan nan nan nan nan nan nan
 nan nan nan nan nan nan nan nan nan nan nan nan nan nan nan nan nan nan
 nan nan nan nan nan nan nan nan nan nan nan nan nan nan nan nan nan nan
 nan nan nan nan nan nan nan nan nan nan nan nan nan nan]",-2.5346391652192325e-14,,4.721695000000001,0.21871499999999955
034,2,2,csm,48a.png,1,0,44,NaN,45,1,1,508,neu_feedback_onset,11,"[-0.53683836 -0.51145594 -0.49241911 -0.4754975  -0.45223027 -0.42050223
 -0.37185258 -0.30839651 -0.22590361 -0.1286043  -0.01861378  0.09983755
  0.22040409  0.33674022  0.43826993  0.51864762  0.57364289  0.60114052
  0.59479491  0.55883647  0.4974956   0.4107723   0.30924259  0.19925206
  0.08503114 -0.02707459 -0.13494991 -0.23224922 -0.32320292 -0.40569582
 -0.4797279  -0.54741438 -0.61087045 -0.67221132 -0.72932178 -0.78643225
 -0.84142751 -0.89642277 -0.95141803 -1.00429809 -1.05929335 -1.11428862
 -1.16716867 -1.22216394 -1.275044   -1.33003926 -1.38291932 -1.43791458
 -1.49290984 -1.5457899  -1.60078516 -1.65366522 -1.70866048 -1.76365575
 -1.81653581 -1.87153107 -1.92441113 -1.97940639 -2.03440165 -2.08728171
 -2.14227697 -2.19515703 -2.25015229 -2.30303235 -2.35802762 -2.41302288
 -2.46590294 -2.5208982  -2.57377826 -2.62877352 -2.68376878 -2.73664884
 -2.7916441  -2.84452416 -2.89951943 -2.95451469 -3.00739475 -3.06239001
 -3.11527007 -3.17026533 -3.22314539 -3.27814065 -3.33313591 -3.38601597
 -3.44101124 -3.4938913  -3.54888656 -3.60388182 -3.65676188 -3.71175714
 -3.7646372  -3.81963246 -3.87251252 -3.92750778 -3.98038784 -4.03538311
 -4.08826317 -4.13902802 -4.18979288 -4.23844253 -4.28497699 -4.32305063
 -4.35689387 -4.38016109 -4.39073711 -4.3843915  -4.35900907 -4.31035942
 -4.23844253 -4.14114322 -4.01423108 -3.86405171 -3.68848991 -3.49177609
 -3.28025585 -3.0581596  -2.83394815 -2.6076215  -2.38975565 -2.18246582
 -1.9899824  -1.8144206  -1.65789563 -1.52252267 -1.40830175 -1.31100244
 -1.23485515 -1.17351428 -1.12909503 -1.09525179 -1.07409977 -1.06352376
 -1.05929335 -1.05929335 -1.06140856 -1.06352376 -1.06140856 -1.05294775
 -1.03602613 -1.00641329 -0.96199404 -0.89853797 -0.81604508 -0.71028496
 -0.58337282 -0.43107825 -0.25763165 -0.06514823  0.146372    0.37269866
  0.60748612  0.84650399  1.08129146  1.30973332  1.52125355  1.70950657
  1.86814674  1.99294368  2.07543658  2.11139502  2.10081901  2.04159334
  1.93371802  1.78353865  1.59317043  1.37107418  1.12359551  0.86131041
  0.59479491  0.33462502  0.08926154 -0.13283471 -0.32108772 -0.46915189
 -0.57279681 -0.62779207 -0.63202247 -0.58337282 -0.4818431  -0.32954853
 -0.13071951  0.11464397  0.39808109  0.71536145  1.06225464  1.43241505
  1.81949709  2.21503994  2.61269798  3.00824083  3.38897726  3.75490727
  4.09545485  4.4063896   4.68348112  4.92461419  5.12555841  5.2905442
  5.41957154  5.51264045  5.57821172  5.61840057  5.63532219  5.63743739
  5.62686138  5.60782456  5.58244213  5.55071409  5.51687085  5.48091241
  5.44495397  5.40688033  5.36880669  5.33073304  5.2926594   5.25458576
  5.21439691  5.17632327  5.13824963  5.10017598  5.06210234  5.0240287
  4.98383985  4.94576621  4.90769257  4.86961893  4.83154528  4.79135644
  4.75328279  4.71520915  4.67713551  4.63906187  4.60098822  4.56079938
  4.52272573  4.48465209  4.44657845  4.40850481  4.36831596  4.33024232
  4.29216867  4.25409503  4.21602139  4.17794775  4.1377589   4.09968526
  4.06161161  4.02353797  3.98546433  3.94527548  3.90720184  3.8691282
  3.83105456  3.79298091  3.75702247  3.72106403  3.68510559  3.65337756
  3.62587992  3.6047279 ]","[-1.30518656 -1.21361594 -1.107801   -0.98367194 -0.84326366 -0.68861106
 -0.51971414 -0.34267761 -0.16157127  0.02156997  0.2006414   0.36953832
  0.52419092  0.6605294   0.77448395  0.86401967  0.92506674  0.95559028
  0.95355538  0.91692713  0.84570554  0.7398906   0.60151722  0.4305854
  0.23116494  0.01139545 -0.22465325 -0.47087647 -0.7211695  -0.96535782
 -1.20140652 -1.42728072 -1.63687569 -1.83019144 -2.01129778 -2.1781598
 -2.3348473  -2.48339519 -2.62583838 -2.76421176 -2.90055024 -3.03281891
 -3.16508758 -3.29735625 -3.42759002 -3.55782379 -3.68805756 -3.81829133
 -3.9464902  -4.07468907 -4.20085303 -4.32294719 -4.44300645 -4.55492609
 -4.65870613 -4.75231165 -4.83370776 -4.90085954 -4.95173211 -4.98836036
 -5.00667448 -5.01277919 -5.00870938 -4.99446506 -4.97615094 -4.95783682
 -4.93952269 -4.92527837 -4.91713876 -4.91306896 -4.91306896 -4.91713876
 -4.92120857 -4.92731328 -4.93138308 -4.93341799 -4.93341799 -4.93138308
 -4.92934818 -4.92731328 -4.92731328 -4.93138308 -4.93952269 -4.95376701
 -4.97615094 -5.00667448 -5.04330273 -5.08603568 -5.13283845 -5.18574591
 -5.24068829 -5.29970046 -5.35871264 -5.41975972 -5.4787719  -5.53981898
 -5.59883115 -5.65580843 -5.7087159  -5.75551866 -5.79621671 -5.82877515
 -5.84708928 -5.85115908 -5.83691476 -5.80639122 -5.75551866 -5.68836687
 -5.61104057 -5.52353975 -5.43807384 -5.35667774 -5.28952595 -5.24272319
 -5.21830436 -5.22033926 -5.24272319 -5.28545614 -5.34243342 -5.4075503
 -5.47470209 -5.53371427 -5.58458683 -5.62121508 -5.64563391 -5.65173862
 -5.64563391 -5.62528489 -5.59679625 -5.560168   -5.51743505 -5.47063228
 -5.41975972 -5.36685225 -5.31394478 -5.25900241 -5.20406004 -5.14708276
 -5.09010549 -5.03109331]",4.577509476106686,-0.32815830090689296,4.727679999999999,-0.034869999999999735
034,2,2,csm,4a.png,1,1,224,20,225,1,0,313,neu_feedback_onset,12,"[ 1.09915151  1.14859505  1.1765414   1.17224196  1.13569673  1.06260628
  0.95082087  0.80463995  0.62406353  0.41554075  0.18122134 -0.07029582
 -0.3347113  -0.60557594 -0.87644058 -1.14085606 -1.38807379 -1.6116446
 -1.8008199  -1.94270138 -2.02654044 -2.03943875 -1.97709689 -1.83306569
 -1.60519544 -1.30423473 -0.93878244 -0.53033576 -0.09824217  0.3317017
  0.73799865  1.10130123  1.40226193  1.63228191  1.78491198  1.86230188
  1.86660132  1.80640917  1.68817461  1.52694566  1.32917148  1.10130123
  0.85623322  0.59611718  0.32740226  0.05008846 -0.22937506 -0.51098829
 -0.79475125 -1.0785142  -1.36227715 -1.64604011 -1.93195278 -2.21571574
 -2.50162841 -2.78539137 -3.07130404 -3.35291728 -3.63668023 -3.91614375
 -4.19345754 -4.46432218 -4.72658794 -4.97595539 -5.20382564 -5.40804898
 -5.58002653 -5.70900969 -5.7885493  -5.81434594 -5.78210015 -5.68966221
 -5.54563102 -5.35645571 -5.13718434 -4.90286493 -4.67284496 -4.46217246
 -4.2880452  -4.16336147 -4.09886989 -4.09886989 -4.16121175 -4.28374576
 -4.46002274 -4.68144384 -4.93726044 -5.21887368 -5.51768467 -5.82509453
 -6.13680384 -6.44636343 -6.75592301 -7.05903344 -7.35569471 -7.64805655
 -7.93396922 -8.21128302 -8.4756985  -8.72506594 -8.95293619 -9.15286009
 -9.31408905 -9.43017389 -9.48821631 -9.48176716 -9.40652698 -9.25604662
 -9.03462553 -8.74871286 -8.40690748 -8.02210771 -7.6093616  -7.18586689
 -6.76882133 -6.37112325 -6.00352124 -5.67891362 -5.39730038 -5.16513069
 -4.98240455 -4.84482251 -4.74808514 -4.68359356 -4.64489861 -4.62340141
 -4.60620366 -4.58900591 -4.56320927 -4.52021489 -4.45787302 -4.37188425
 -4.26009884 -4.12681624 -3.97418617 -3.80435834 -3.62593163 -3.43890605
 -3.25403019 -3.07345376 -2.90147621 -2.7445467  -2.6005155  -2.47583178
 -2.36619609 -2.27160844 -2.19206883 -2.12112809 -2.05878623 -1.99644436
 -1.93195278 -1.86101204 -1.77932271 -1.68043562 -1.56435077 -1.42461902
 -1.26339006 -1.08066392 -0.87429086 -0.65072005 -0.4121012  -0.16058404
  0.09523257  0.35319889  0.60471605  0.84763434  1.07765431  1.28832681
  1.47965183  1.65162938  1.80210973  1.93324262  2.05147718  2.15896315
  2.26214968  2.36533621  2.47497189  2.59320646  2.72863878  2.87911913
  3.05109668  3.24027198  3.44879476  3.67021585  3.90023582  4.13670495
  4.37102436  4.59674489  4.80956711  5.00304185  5.17286968  5.3190506
  5.43728516  5.53187281  5.60066383  5.65010738  5.68235317  5.69955092
  5.70385036  5.70170064  5.69310177  5.68020345  5.66085598  5.63935878
  5.61141243  5.5748672   5.53187281  5.47383039  5.40073993  5.30400256
  5.18146856  5.02883849  4.83966318  4.61394265  4.34952717  4.04856646
  3.71535996  3.35420711  2.97370678  2.58030814  2.18261006  1.78921142
  1.40441165  1.03036049  0.67135735  0.3209531  -0.02085228 -0.35405878
 -0.68726528 -1.01617234 -1.34292968 -1.66538758 -1.97924661 -2.27590788
 -2.55322168 -2.80473884 -3.02830965 -3.21748496 -3.37226475 -3.49479875
 -3.58938641 -3.65602771 -3.69902209 -3.72696844 -3.73771704 -3.73771704
 -3.73126788 -3.72051929 -3.70332153 -3.68612378 -3.6667763  -3.64527911
 -3.62378192 -3.60228472 -3.58078753 -3.55929033 -3.53564342 -3.51414623
 -3.49264903 -3.47115184]","[nan nan nan nan nan nan nan nan nan nan nan nan nan nan nan nan nan nan
 nan nan nan nan nan nan nan nan nan nan nan nan nan nan nan nan nan nan
 nan nan nan nan nan nan nan nan nan nan nan nan nan nan nan nan nan nan
 nan nan nan nan nan nan nan nan nan nan nan nan nan nan nan nan nan nan
 nan nan nan nan nan nan nan nan nan nan nan nan nan nan nan nan nan nan
 nan nan nan nan nan nan nan nan nan nan nan nan nan nan nan nan nan nan
 nan nan nan nan nan nan nan nan nan nan nan nan nan nan nan nan nan nan
 nan nan nan nan nan nan nan nan nan nan nan nan nan nan]",4.80091449061325,,4.65177,0.0338800000000008
034,2,2,csm,63a.png,1,1,196,209,197,1,1,276,neu_feedback_onset,13,"[-7.77570435e-01 -6.36035632e-01 -4.85790994e-01 -3.31191440e-01
 -1.76591885e-01 -2.63472480e-02  1.08655180e-01  2.28415398e-01
  3.24223573e-01  3.93902245e-01  4.30919040e-01  4.35273957e-01
  4.04789538e-01  3.45998158e-01  2.58899817e-01  1.52204350e-01
  2.80892148e-02 -1.00380837e-01 -2.28850890e-01 -3.48611108e-01
 -4.55306575e-01 -5.44582374e-01 -6.12083588e-01 -6.57810217e-01
 -6.83939719e-01 -6.92649553e-01 -6.86117178e-01 -6.66520051e-01
 -6.38213090e-01 -6.03373754e-01 -5.64179501e-01 -5.20630331e-01
 -4.74903702e-01 -4.29177073e-01 -3.83450444e-01 -3.35546357e-01
 -2.87642270e-01 -2.39738182e-01 -1.91834095e-01 -1.43930008e-01
 -9.82033790e-02 -5.02992917e-02 -2.39520437e-03  4.55088829e-02
  9.34129702e-02  1.41317058e-01  1.89221145e-01  2.37125232e-01
  2.85029319e-01  3.30755948e-01  3.78660036e-01  4.26564123e-01
  4.74468210e-01  5.22372298e-01  5.70276385e-01  6.18180472e-01
  6.66084559e-01  7.13988647e-01  7.61892734e-01  8.07619363e-01
  8.55523450e-01  9.03427537e-01  9.51331625e-01  9.99235712e-01
  1.04713980e+00  1.09504389e+00  1.14294797e+00  1.19085206e+00
  1.23657869e+00  1.28448278e+00  1.33238686e+00  1.38029095e+00
  1.42819504e+00  1.47609913e+00  1.52400321e+00  1.57190730e+00
  1.61981139e+00  1.66553802e+00  1.71344210e+00  1.76134619e+00
  1.80925028e+00  1.85715437e+00  1.90505845e+00  1.95296254e+00
  2.00086663e+00  2.04877072e+00  2.09449734e+00  2.14240143e+00
  2.19030552e+00  2.23820961e+00  2.28611369e+00  2.33401778e+00
  2.38192187e+00  2.42982596e+00  2.47773004e+00  2.52563413e+00
  2.57353822e+00  2.62361976e+00  2.67370131e+00  2.72378286e+00
  2.77821932e+00  2.83701070e+00  2.90015699e+00  2.96983567e+00
  3.05040163e+00  3.13967743e+00  3.23984052e+00  3.35089091e+00
  3.47065113e+00  3.59694372e+00  3.72323631e+00  3.84735145e+00
  3.96057929e+00  4.05856492e+00  4.13259851e+00  4.18050260e+00
  4.20009973e+00  4.19138989e+00  4.15655056e+00  4.09775918e+00
  4.01937067e+00  3.92573995e+00  3.82557686e+00  3.72105885e+00
  3.62089576e+00  3.53161996e+00  3.45976383e+00  3.41185975e+00
  3.39661754e+00  3.41403720e+00  3.47065113e+00  3.56210438e+00
  3.68404206e+00  3.82339940e+00  3.96493421e+00  4.09558172e+00
  4.19574481e+00  4.25235873e+00  4.25453619e+00  4.20227719e+00
  4.09993664e+00  3.96057929e+00  3.79944736e+00  3.63831543e+00
  3.49895809e+00  3.39444008e+00  3.33782616e+00  3.33129378e+00
  3.37484295e+00  3.45540892e+00  3.56210438e+00  3.67750968e+00
  3.78420515e+00  3.87348095e+00  3.93444979e+00  3.96493421e+00
  3.96493421e+00  3.94315962e+00  3.90832029e+00  3.86912603e+00
  3.83646416e+00  3.81686703e+00  3.81468957e+00  3.83428670e+00
  3.87783587e+00  3.93880471e+00  4.01937067e+00  4.11300139e+00
  4.21969685e+00  4.33727961e+00  4.46139475e+00  4.59421972e+00
  4.73575452e+00  4.88382170e+00  5.03624380e+00  5.19519827e+00
  5.35850766e+00  5.52399450e+00  5.69165881e+00  5.85932312e+00
  6.02698742e+00  6.19465173e+00  6.36231603e+00  6.53215780e+00
  6.70417702e+00  6.87837370e+00  7.05910276e+00  7.23983181e+00
  7.42491579e+00  7.61217722e+00  7.79943865e+00  7.98452262e+00
  8.16307422e+00  8.33291599e+00  8.49404792e+00  8.64211510e+00
  8.77929498e+00  8.90776503e+00  9.03188017e+00  9.15599531e+00
  9.28446536e+00  9.42382270e+00  9.57842226e+00  9.75261894e+00
  9.94859020e+00  1.01598037e+01  1.03797270e+01  1.06018278e+01
  1.08108638e+01  1.09937703e+01  1.11353051e+01  1.12202260e+01
  1.12376456e+01  1.11832092e+01  1.10547391e+01  1.08522355e+01
  1.05844081e+01  1.02643217e+01  9.90721849e+00  9.52616325e+00
  9.14293055e+00  8.76840769e+00  8.41565941e+00  8.09557301e+00
  7.81468086e+00  7.57298297e+00  7.37265678e+00  7.20499248e+00
  7.06781259e+00  6.95458475e+00  6.85877657e+00  6.77385569e+00
  6.69546718e+00  6.61925614e+00  6.54304509e+00  6.46683404e+00
  6.38844553e+00  6.30570211e+00  6.22295869e+00  6.13803781e+00
  6.05093946e+00  5.96384112e+00  5.87456532e+00  5.78746698e+00
  5.69819119e+00  5.60891539e+00  5.51963959e+00  5.43036379e+00
  5.34326545e+00  5.25398965e+00  5.16471385e+00  5.07543805e+00
  4.98616225e+00  4.89688645e+00  4.80978811e+00  4.72051231e+00
  4.63123651e+00  4.54196071e+00  4.45268492e+00  4.36340912e+00]","[ 0.96392284  1.00432619  1.01644719  0.99826569  0.9477615   0.86493464
  0.74776494  0.60231289  0.43261883  0.2427231   0.0386862  -0.1714112
 -0.37948843 -0.58150517 -0.76736056 -0.93705462 -1.08452683 -1.21179737
 -1.31886624 -1.4077536  -1.47845946 -1.53704431 -1.58552833 -1.62593168
 -1.66027452 -1.69461737 -1.72491988 -1.75522239 -1.78350473 -1.81380724
 -1.84208958 -1.87239209 -1.9026946  -1.93299711 -1.96329962 -1.99360213
 -2.02390464 -2.05420715 -2.08450966 -2.11481217 -2.14511468 -2.17541719
 -2.2057197  -2.23602221 -2.26632472 -2.29662723 -2.32692974 -2.35723225
 -2.38753476 -2.41783727 -2.44813978 -2.47844229 -2.5087448  -2.53904731
 -2.56934982 -2.59965233 -2.62995484 -2.66025735 -2.69055986 -2.72086237
 -2.75116488 -2.78146739 -2.8117699  -2.84207241 -2.87237492 -2.90267743
 -2.93095977 -2.95924211 -2.98752446 -3.01176646 -3.03398831 -3.05014964
 -3.05823031 -3.05823031 -3.04408914 -3.01378663 -2.96530262 -2.89863709
 -2.81379007 -2.71480187 -2.60369266 -2.49258346 -2.38551459 -2.29460706
 -2.22996171 -2.19763903 -2.2057197  -2.25218355 -2.34309108 -2.47238179
 -2.63399517 -2.82591107 -3.04004881 -3.26832772 -3.50468729 -3.74912754
 -3.99356779 -4.23800803 -4.47840795 -4.71678769 -4.9511271  -5.18142618
 -5.41172525 -5.63596383 -5.8602024  -6.08040064 -6.29655854 -6.50867611
 -6.71473318 -6.91068941 -7.09250447 -7.25815819 -7.40159007 -7.51875978
 -7.60562697 -7.66219166 -7.6844135  -7.67633283 -7.64198999 -7.5854253
 -7.51471944 -7.43997325 -7.37330773 -7.31876321 -7.2884607  -7.28644054
 -7.31472288 -7.37734807 -7.47027576 -7.59350597 -7.74097819 -7.90865207
 -8.0924873  -8.2844032  -8.4823796  -8.68035599 -8.87631222 -9.06620795
 -9.25004318 -9.42579774]",9.236234651639304,-0.13706835337170373,4.59251,-0.05195499999999953
034,2,2,csp,25b.png,1,0,280,NaN,280,1,1,325,pos_feedback_onset,14,"[ 0.84114322  0.7560139   0.65342214  0.53773357  0.41113099  0.27797999
  0.14482899  0.01822641 -0.09964497 -0.20005392 -0.28081763 -0.33975332
 -0.37467817 -0.38777499 -0.38340939 -0.36594696 -0.33975332 -0.31137688
 -0.28736604 -0.26990362 -0.26335521 -0.26990362 -0.28954885 -0.32010809
 -0.36158135 -0.40960302 -0.46417311 -0.52310879 -0.58422728 -0.64534577
 -0.70864707 -0.77194836 -0.83524965 -0.89855095 -0.96185224 -1.02297073
 -1.08627202 -1.14957332 -1.21069181 -1.2739931  -1.33729439 -1.39841288
 -1.46171418 -1.52501547 -1.58613396 -1.64943525 -1.71273655 -1.77385504
 -1.83715633 -1.90045762 -1.96157611 -2.02487741 -2.0881787  -2.14929719
 -2.21259849 -2.27589978 -2.33701827 -2.40031956 -2.46143805 -2.52037374
 -2.57930943 -2.63606231 -2.68844959 -2.73428846 -2.76921331 -2.79104134
 -2.79540695 -2.77576172 -2.72992285 -2.65134193 -2.54001897 -2.39377115
 -2.21478129 -2.00523218 -1.77603784 -1.53374668 -1.28490712 -1.03825035
 -0.80469041 -0.58641009 -0.38559219 -0.20441952 -0.04070928  0.10553854
  0.23650673  0.35874371  0.47224948  0.57920683  0.68398139  0.78439034
  0.88261648  0.98302543  1.08125158  1.17729492  1.27552106  1.37374721
  1.47197335  1.56801669  1.66624284  1.76446898  1.86269513  1.95873847
  2.05696462  2.15519076  2.2512341   2.34946025  2.44768639  2.54372973
  2.64195588  2.74018202  2.83840817  2.93663431  3.03486046  3.13526941
  3.23786116  3.34045291  3.44741027  3.55655043  3.6700562   3.78792757
  3.91234735  4.04113274  4.17428374  4.30961754  4.44495134  4.57810234
  4.70470492  4.82039349  4.91861964  4.99501775  5.04522223  5.06486745
  5.04740503  4.99501775  4.90334002  4.77892023  4.6217584   4.44276854
  4.24849905  4.04331555  3.83594924  3.63294854  3.43867905  3.25314078
  3.08069933  2.92135469  2.77510688  2.64195588  2.5219017   2.41712715
  2.33418062  2.27306213  2.24250289  2.2468685   2.28834176  2.37347108
  2.50225647  2.67469793  2.88642984  3.1309038   3.4015714   3.68751862
  3.97783145  4.26377867  4.53662908  4.78765145  5.01248018  5.20674966
  5.37045991  5.5014281   5.59747144  5.66295554  5.69788039  5.7044288
  5.68478357  5.64331031  5.58219182  5.5036109   5.41629877  5.32025543
  5.22202929  5.12380314  5.03212541  4.94917888  4.87278077  4.80947948
  4.7549094   4.70907053  4.66978007  4.63048961  4.59119916  4.54317748
  4.4842418   4.41002649  4.31616595  4.19829458  4.05422956  3.88615372
  3.68970143  3.4670555   3.22476434  2.96064515  2.68561194  2.39966472
  2.1137175   1.82777028  1.55273707  1.28861788  1.03977831  0.80840117
  0.59448646  0.39366856  0.20594748  0.02914042 -0.14548383 -0.31574249
 -0.49036674 -0.66935661 -0.85271208 -1.04261596 -1.23688545 -1.43333774
 -1.62760722 -1.8153283  -1.99431816 -2.16021121 -2.31082463 -2.43961002
 -2.54875018 -2.63606231 -2.70372921 -2.75393368 -2.78449293 -2.80195536
 -2.80632096 -2.80195536 -2.78885854 -2.77139611 -2.74738527 -2.72337444
 -2.694998   -2.66662156 -2.63606231 -2.60550307 -2.57494382 -2.54438458
 -2.51164253 -2.47890048 -2.44834123 -2.41559918 -2.38285714 -2.35011509
 -2.31737304 -2.28463099 -2.25407175 -2.2213297  -2.18640485 -2.1536628
 -2.11873795 -2.0838131 ]","[nan nan nan nan nan nan nan nan nan nan nan nan nan nan nan nan nan nan
 nan nan nan nan nan nan nan nan nan nan nan nan nan nan nan nan nan nan
 nan nan nan nan nan nan nan nan nan nan nan nan nan nan nan nan nan nan
 nan nan nan nan nan nan nan nan nan nan nan nan nan nan nan nan nan nan
 nan nan nan nan nan nan nan nan nan nan nan nan nan nan nan nan nan nan
 nan nan nan nan nan nan nan nan nan nan nan nan nan nan nan nan nan nan
 nan nan nan nan nan nan nan nan nan nan nan nan nan nan nan nan nan nan
 nan nan nan nan nan nan nan nan nan nan nan nan nan nan]",4.551362996901507,,4.581265,
034,3,2,csp,46b.png,1,1,136,40,NaN,0,1,369,neg_feedback_onset,1,"[nan nan nan nan nan nan nan nan nan nan nan nan nan nan nan nan nan nan
 nan nan nan nan nan nan nan nan nan nan nan nan nan nan nan nan nan nan
 nan nan nan nan nan nan nan nan nan nan nan nan nan nan nan nan nan nan
 nan nan nan nan nan nan nan nan nan nan nan nan nan nan nan nan nan nan
 nan nan nan nan nan nan nan nan nan nan nan nan nan nan nan nan nan nan
 nan nan nan nan nan nan nan nan nan nan nan nan nan nan nan nan nan nan
 nan nan nan nan nan nan nan nan nan nan nan nan nan nan nan nan nan nan
 nan nan nan nan nan nan nan nan nan nan nan nan nan nan nan nan nan nan
 nan nan nan nan nan nan nan nan nan nan nan nan nan nan nan nan nan nan
 nan nan nan nan nan nan nan nan nan nan nan nan nan nan nan nan nan nan
 nan nan nan nan nan nan nan nan nan nan nan nan nan nan nan nan nan nan
 nan nan nan nan nan nan nan nan nan nan nan nan nan nan nan nan nan nan
 nan nan nan nan nan nan nan nan nan nan nan nan nan nan nan nan nan nan
 nan nan nan nan nan nan nan nan nan nan nan nan nan nan nan nan nan nan
 nan nan nan nan nan nan nan nan]","[-0.39401784 -0.43927178 -0.45984176 -0.45778476 -0.43721478 -0.39813184
 -0.3487639  -0.28911098 -0.22328706 -0.15129215 -0.07312626  0.00915364
  0.09554753  0.1901694   0.28890528  0.39175514  0.502833    0.61596785
  0.7311597   0.84635156  0.95948641  1.06645027  1.16518614  1.25158003
  1.32768893  1.38734186  1.43465279  1.46756475  1.49019172  1.50047671
  1.50253371  1.49841971  1.48813473  1.47579274  1.45933676  1.44288078
  1.42436781  1.40379783  1.38528486  1.36471488  1.34620191  1.32563194
  1.30506196  1.28449199  1.26597901  1.24540904  1.22483907  1.20426909
  1.18575612  1.16518614  1.14461617  1.12610319  1.10553322  1.08496325
  1.06439327  1.0458803   1.02531032  1.00474035  0.98417038  0.9656574
  0.94508743  0.92451745  0.90600448  0.8854345   0.86486453  0.84429456
  0.82578158  0.80521161  0.78464164  0.76612866  0.74555869  0.72704571
  0.70853273  0.69001976  0.67562078  0.66122179  0.65299381  0.64887981
  0.65299381  0.66533579  0.69207675  0.72910271  0.78258464  0.85046555
  0.93274544  1.02531032  1.1240462   1.22483907  1.32151794  1.40585483
  1.47373574  1.52104668  1.54367365  1.54161666  1.51281869  1.45727977
  1.38117086  1.28654899  1.17547113  1.05205129  0.92040346  0.78052764
  0.63653783  0.49049102  0.34033021  0.1901694   0.0379516  -0.1122092
 -0.26442701 -0.41664481 -0.56886261 -0.72108042 -0.87329822 -1.02551602
 -1.17773383 -1.32995163 -1.48011244 -1.63233024 -1.78043405 -1.93059485
 -2.07664166 -2.22063148 -2.3605073  -2.49626912 -2.62585995 -2.75133679
 -2.87064264 -2.98583449 -3.09691234 -3.20387621 -3.30672607 -3.40957594
 -3.51242581 -3.61116168 -3.70578356 -3.79629144 -3.87651434 -3.94850924
 -4.00816217 -4.0554731 ]",,0.7675685571500457,4.715734999999999,
034,3,2,csm,29a.png,1,1,344,238,345,1,1,268,neu_feedback_onset,2,"[-2.81473506e-01 -2.79422697e-01 -2.75321080e-01 -2.67117845e-01
 -2.54812992e-01 -2.32254095e-01 -2.05593581e-01 -1.68679023e-01
 -1.27662847e-01 -8.04942449e-02 -2.92240252e-02  2.40970033e-02
  7.94688405e-02  1.34840678e-01  1.90212515e-01  2.45584352e-01
  3.00956190e-01  3.54277218e-01  4.09649055e-01  4.62970084e-01
  5.16291112e-01  5.69612141e-01  6.22933169e-01  6.78305007e-01
  7.33676844e-01  7.89048681e-01  8.44420518e-01  8.97741547e-01
  9.51062575e-01  1.00028199e+00  1.04539978e+00  1.08231434e+00
  1.11102566e+00  1.12948294e+00  1.13563537e+00  1.12743213e+00
  1.10487323e+00  1.07000948e+00  1.02284088e+00  9.63367428e-01
  8.95690738e-01  8.19810813e-01  7.37778461e-01  6.51644492e-01
  5.61408906e-01  4.71173319e-01  3.76836115e-01  2.82498911e-01
  1.86110897e-01  9.17736933e-02 -4.61431977e-03 -1.01002333e-01
 -1.97390346e-01 -2.91727550e-01 -3.88115563e-01 -4.84503576e-01
 -5.80891589e-01 -6.77279602e-01 -7.73667615e-01 -8.68004819e-01
 -9.64392832e-01 -1.05873004e+00 -1.15306724e+00 -1.24740445e+00
 -1.33764003e+00 -1.42582481e+00 -1.50785716e+00 -1.58578790e+00
 -1.65551539e+00 -1.71498885e+00 -1.76215745e+00 -1.79702120e+00
 -1.81958010e+00 -1.82983414e+00 -1.82778333e+00 -1.81547848e+00
 -1.79907201e+00 -1.78061473e+00 -1.76420826e+00 -1.75190341e+00
 -1.74780179e+00 -1.74985260e+00 -1.76215745e+00 -1.78471635e+00
 -1.81342767e+00 -1.84829142e+00 -1.88930760e+00 -1.93442539e+00
 -1.97954318e+00 -2.02466098e+00 -2.06772796e+00 -2.10874414e+00
 -2.14155708e+00 -2.16821759e+00 -2.18462406e+00 -2.18872568e+00
 -2.18257325e+00 -2.16001436e+00 -2.12720142e+00 -2.08208362e+00
 -2.02876259e+00 -1.97133995e+00 -1.91391730e+00 -1.86059627e+00
 -1.81342767e+00 -1.77446230e+00 -1.74780179e+00 -1.73139532e+00
 -1.72729370e+00 -1.73139532e+00 -1.74575098e+00 -1.76625907e+00
 -1.79086877e+00 -1.82163091e+00 -1.85034223e+00 -1.87905355e+00
 -1.90571407e+00 -1.92417135e+00 -1.93647620e+00 -1.93647620e+00
 -1.92212054e+00 -1.88930760e+00 -1.84008818e+00 -1.77036069e+00
 -1.67807429e+00 -1.56527981e+00 -1.43402804e+00 -1.28636981e+00
 -1.12435592e+00 -9.58240406e-01 -7.92124894e-01 -6.34212618e-01
 -4.94757620e-01 -3.81963137e-01 -3.06083212e-01 -2.77371889e-01
 -2.99930785e-01 -3.79912328e-01 -5.17316517e-01 -7.08041734e-01
 -9.43884745e-01 -1.21459150e+00 -1.49965393e+00 -1.78266554e+00
 -2.04516906e+00 -2.26665641e+00 -2.43277192e+00 -2.53121075e+00
 -2.55376964e+00 -2.50455023e+00 -2.38355251e+00 -2.20308134e+00
 -1.97339076e+00 -1.71088723e+00 -1.42582481e+00 -1.13666077e+00
 -8.51598349e-01 -5.80891589e-01 -3.30692917e-01 -1.05103950e-01
  9.38245020e-02  2.66092440e-01  4.11699864e-01  5.34748391e-01
  6.37288831e-01  7.23422800e-01  7.93150299e-01  8.54674562e-01
  9.10046400e-01  9.63367428e-01  1.01873927e+00  1.07821272e+00
  1.14178779e+00  1.21356610e+00  1.29149683e+00  1.37352919e+00
  1.45966315e+00  1.54784793e+00  1.63398190e+00  1.71806506e+00
  1.79599580e+00  1.86777410e+00  1.92724756e+00  1.97646697e+00
  2.01338153e+00  2.04004204e+00  2.05644851e+00  2.06875336e+00
  2.07900741e+00  2.09541388e+00  2.12002358e+00  2.16309057e+00
  2.22666564e+00  2.31690123e+00  2.43379733e+00  2.57735394e+00
  2.74346946e+00  2.93419467e+00  3.14132636e+00  3.36076290e+00
  3.59045349e+00  3.82219488e+00  4.05598708e+00  4.28362686e+00
  4.50306340e+00  4.71429670e+00  4.91117434e+00  5.09369633e+00
  5.25981184e+00  5.40747007e+00  5.54077264e+00  5.65766874e+00
  5.76020918e+00  5.85044477e+00  5.92837550e+00  6.00015381e+00
  6.06783050e+00  6.12935476e+00  6.19087903e+00  6.25445410e+00
  6.31802917e+00  6.38775667e+00  6.46363660e+00  6.54771976e+00
  6.64000615e+00  6.74049578e+00  6.85329027e+00  6.97633879e+00
  7.10759056e+00  7.24089313e+00  7.37214489e+00  7.49314261e+00
  7.59568305e+00  7.67156297e+00  7.71257915e+00  7.71462996e+00
  7.67156297e+00  7.58747981e+00  7.46238048e+00  7.30651901e+00
  7.12604784e+00  6.92917019e+00  6.72614012e+00  6.52516086e+00
  6.33238483e+00  6.15191366e+00  5.98579815e+00  5.83403830e+00
  5.69868492e+00  5.57563639e+00  5.46079110e+00  5.35619985e+00
  5.25776103e+00  5.16137302e+00  5.06908662e+00  4.97885103e+00
  4.88861545e+00  4.80043067e+00  4.71224589e+00  4.62406111e+00]","[-0.70912935 -0.65382832 -0.60065425 -0.54748019 -0.49430612 -0.43900509
 -0.3815771  -0.31989518 -0.24970542 -0.17313476 -0.08805625  0.0055301
  0.10975127  0.22460726  0.35009805  0.4840967   0.63085712  0.7861254
  0.94777456  1.11793157  1.29021555  1.46037256  1.62627565  1.78154392
  1.92192345  2.04316033  2.14100061  2.2154443   2.26436444  2.28988799
  2.29414192  2.27925318  2.2494757   2.20480949  2.15376238  2.09420743
  2.03039855  1.96446271  1.89427294  1.82408317  1.75389341  1.68157667
  1.60925994  1.53907018  1.46675345  1.39443672  1.32211999  1.24980326
  1.17961349  1.10729676  1.03498003  0.9626633   0.89034657  0.8201568
  0.74784007  0.67552334  0.60320661  0.53088988  0.46070011  0.38838338
  0.31606665  0.24374992  0.17143319  0.10124342  0.02892669 -0.04339004
 -0.11570677 -0.1880235  -0.25821327 -0.33053    -0.40284673 -0.47303649
 -0.54322626 -0.61341603 -0.68147883 -0.74741468 -0.80909659 -0.86865155
 -0.92182561 -0.97074576 -1.01115805 -1.04306249 -1.06858604 -1.08560174
 -1.09198263 -1.09198263 -1.0877287  -1.07709389 -1.06220515 -1.04944337
 -1.03880856 -1.0366816  -1.04306249 -1.06645908 -1.10899833 -1.17706113
 -1.27277445 -1.40039221 -1.56204137 -1.75346801 -1.97679909 -2.22565372
 -2.49152405 -2.77015616 -3.04878827 -3.31891253 -3.56989412 -3.7932252
 -3.98252487 -4.13141226 -4.23776039 -4.30156927 -4.3228389  -4.30795016
 -4.25903002 -4.18245936 -4.08461908 -3.96763614 -3.84001838 -3.70389277
 -3.55925931 -3.41462585 -3.26573846 -3.11685107 -2.97009065 -2.82333023
 -2.67869677 -2.53831723 -2.40006466 -2.26606601 -2.13419433 -2.00870353
 -1.8853397  -1.76835675 -1.65775469 -1.55140656 -1.45569324 -1.37061473
 -1.30042497 -1.2472509 ]",6.567407521341229,1.4723898977781835,4.876125,
034,3,2,csm,42a.png,1,0,72,NaN,73,1,1,268,neu_feedback_onset,3,"[ 0.96584833  0.72749746  0.4954745   0.27188873  0.06306806 -0.12676891
 -0.29551289 -0.43261737 -0.53386375 -0.59503344 -0.61190784 -0.58237764
 -0.50644286 -0.38832207 -0.2343432  -0.05294342  0.14954935  0.35837002
  0.56508139  0.76335556  0.94264603  1.09873421  1.22529219  1.32231998
  1.38770827  1.42145706  1.42567566  1.40669196  1.36661527  1.31177348
  1.24638519  1.1767783   1.10717141  1.04178312  0.98483203  0.93420883
  0.89413214  0.86460194  0.84350895  0.82874385  0.82030665  0.81819735
  0.81819735  0.82241595  0.82663455  0.83296245  0.83929035  0.84561825
  0.85405545  0.86038334  0.86882054  0.87514844  0.88358564  0.88991354
  0.89835074  0.90467864  0.91311584  0.91944374  0.92788093  0.93420883
  0.94264603  0.94897393  0.95741113  0.96373903  0.97217623  0.97850413
  0.98694133  0.99326922  1.00170642  1.01014362  1.01647152  1.02490872
  1.03123662  1.03967382  1.04600172  1.05443892  1.06076681  1.06920401
  1.07553191  1.08396911  1.09029701  1.09662491  1.10295281  1.10928071
  1.11560861  1.12193651  1.12404581  1.1282644   1.1282644   1.1282644
  1.12615511  1.12193651  1.11560861  1.10717141  1.09662491  1.08607841
  1.07131331  1.05865752  1.04178312  1.02701802  1.01014362  0.99115992
  0.97428553  0.95741113  0.93842743  0.92155304  0.90467864  0.88780424
  0.87092984  0.85405545  0.83929035  0.82452525  0.81186945  0.79921365
  0.78866715  0.78022996  0.77179276  0.76335556  0.75069976  0.73382536
  0.71062307  0.67687427  0.63257898  0.57351859  0.4996931   0.41532111
  0.31618402  0.20860974  0.09470756 -0.02130393 -0.13520611 -0.24488969
 -0.34824538 -0.44316387 -0.52753585 -0.60136134 -0.66674963 -0.72581002
 -0.77854252 -0.82705641 -0.8713517  -0.915647   -0.95572369 -0.99369108
 -1.02954918 -1.06118867 -1.08650027 -1.10337467 -1.10970257 -1.10337467
 -1.08017237 -1.03798638 -0.97259809 -0.8840075  -0.77221462 -0.63089154
 -0.46425686 -0.27231059 -0.05716202  0.17907954  0.43219551  0.69796727
  0.97006693  1.24638519  1.51848485  1.78636591  2.04370047  2.28837924
  2.5204022   2.73555077  2.93382494  3.11733401  3.28185939  3.42740107
  3.55817765  3.67207983  3.76910762  3.85137031  3.9209772   3.98003759
  4.03066078  4.07284677  4.11292347  4.15300016  4.19518616  4.24159075
  4.29643254  4.35760223  4.42931842  4.50947181  4.5980624   4.69509018
  4.79633657  4.89969225  5.00515724  5.10429432  5.19710351  5.2772569
  5.34264519  5.38694048  5.40592418  5.39959628  5.36373819  5.29834989
  5.20765001  5.08952923  4.95242475  4.79844587  4.63181119  4.46095792
  4.29221394  4.12557927  3.96949109  3.82394941  3.69317283  3.57294275
  3.46536846  3.37044998  3.28185939  3.2038153   3.12788051  3.05827362
  2.99288533  2.92749704  2.86421805  2.80093906  2.73766007  2.67649038
  2.61321139  2.5520417   2.48876271  2.42759301  2.36431402  2.30314433
  2.24197464  2.17869565  2.11752596  2.05424697  1.99307728  1.93190759
  1.8686286   1.80745891  1.74417991  1.68301022  1.62184053  1.55856154
  1.49739185  1.43622216  1.37505247  1.31388278  1.25271309  1.1936527
  1.1345923   1.07975051  1.02701802  0.98061343  0.93842743  0.90467864
  0.87936704  0.86249264]","[-3.51258329e-01 -3.61662900e-01 -3.65824729e-01 -3.67905643e-01
 -3.65824729e-01 -3.57501072e-01 -3.47096500e-01 -3.28368272e-01
 -3.01316386e-01 -2.61779015e-01 -2.07675244e-01 -1.36924159e-01
 -4.74448454e-02  6.28436110e-02  1.93941210e-01  3.45847952e-01
  5.14402008e-01  6.99603378e-01  8.93128405e-01  1.09081526e+00
  1.28850212e+00  1.47994623e+00  1.65682394e+00  1.81497343e+00
  1.95231377e+00  2.06468314e+00  2.14791971e+00  2.20410440e+00
  2.23115628e+00  2.23531811e+00  2.21658988e+00  2.17913342e+00
  2.12502965e+00  2.06052131e+00  1.98352748e+00  1.90237183e+00
  1.81497343e+00  1.72341320e+00  1.63185297e+00  1.53613091e+00
  1.44248977e+00  1.34676772e+00  1.25104566e+00  1.15532360e+00
  1.05960155e+00  9.63879490e-01  8.66076519e-01  7.70354463e-01
  6.74632406e-01  5.78910350e-01  4.83188294e-01  3.87466237e-01
  2.91744181e-01  1.96022124e-01  9.82191536e-02  2.49709712e-03
 -9.32249593e-02 -1.88947016e-01 -2.84669072e-01 -3.80391129e-01
 -4.76113185e-01 -5.71835242e-01 -6.69638212e-01 -7.65360269e-01
 -8.61082325e-01 -9.56804382e-01 -1.05252644e+00 -1.14824849e+00
 -1.24397055e+00 -1.33969261e+00 -1.43541466e+00 -1.53113672e+00
 -1.62477786e+00 -1.71841900e+00 -1.80997923e+00 -1.89945855e+00
 -1.98685695e+00 -2.06593169e+00 -2.14084460e+00 -2.20535294e+00
 -2.26153763e+00 -2.30523683e+00 -2.33645054e+00 -2.35725969e+00
 -2.36558334e+00 -2.36558334e+00 -2.35725969e+00 -2.34685511e+00
 -2.33436963e+00 -2.32188414e+00 -2.30939866e+00 -2.29691317e+00
 -2.27818494e+00 -2.25321397e+00 -2.21367660e+00 -2.15749192e+00
 -2.08049809e+00 -1.97645237e+00 -1.84951660e+00 -1.69760986e+00
 -1.52073215e+00 -1.32720712e+00 -1.11703478e+00 -8.98538782e-01
 -6.73800041e-01 -4.49061300e-01 -2.28484387e-01 -1.41502170e-02
  1.87698467e-01  3.77061666e-01  5.51858465e-01  7.07927035e-01
  8.45267377e-01  9.61798576e-01  1.05960155e+00  1.13451446e+00
  1.19278006e+00  1.23023652e+00  1.25520749e+00  1.26769297e+00
  1.27185480e+00  1.27185480e+00  1.27393572e+00  1.28017846e+00
  1.29682577e+00  1.32387766e+00  1.36341503e+00  1.41959972e+00
  1.48826989e+00  1.57150646e+00  1.66722851e+00  1.77335514e+00
  1.88780543e+00  2.01057937e+00  2.13751514e+00  2.26861274e+00
  2.40179125e+00  2.53705068e+00  2.67439102e+00  2.80965045e+00]",4.502722051251736,1.761761476093565,4.740910000000001,
034,3,2,csm,53a.png,1,1,76,312,76,1,1,287,neu_feedback_onset,4,"[ 2.46729584  1.95529327  1.48113438  1.05149744  0.67083466  0.33914605
  0.05865769 -0.17508262 -0.36207486 -0.50677123 -0.61362394 -0.68708518
 -0.73160714 -0.74941593 -0.75164203 -0.73605934 -0.71379836 -0.68708518
 -0.6625981  -0.64701541 -0.64256322 -0.65369371 -0.68485908 -0.73605934
 -0.81174667 -0.90746889 -1.0209999  -1.15233968 -1.29480996 -1.44173244
 -1.59088101 -1.73335129 -1.86469108 -1.98044818 -2.0761704  -2.14963164
 -2.20083189 -2.22977117 -2.23644946 -2.22531897 -2.19860579 -2.15630993
 -2.10510967 -2.04723112 -1.98267428 -1.91366524 -1.8424301  -1.76896886
 -1.69550762 -1.62204639 -1.54635905 -1.47289781 -1.39721048 -1.32152314
 -1.24583581 -1.17237457 -1.09668723 -1.0209999  -0.94753866 -0.87185132
 -0.79616399 -0.72047665 -0.64701541 -0.57132808 -0.49564074 -0.41995341
 -0.34649217 -0.27080483 -0.1951175  -0.11943016 -0.04596893  0.02971841
  0.10540575  0.18109308  0.25455432  0.33024165  0.40592899  0.47939023
  0.55507756  0.6307649   0.70645223  0.77991347  0.85560081  0.93128814
  1.00697548  1.08043672  1.15612405  1.23181139  1.30749872  1.38095996
  1.4566473   1.53233463  1.60802197  1.6814832   1.75717054  1.83285788
  1.90854521  1.98200645  2.05769378  2.13338112  2.20906846  2.28475579
  2.36044313  2.43613046  2.5140439   2.58973123  2.66764467  2.743332
  2.81901934  2.89025448  2.95703742  3.01491597  3.06166403  3.0928294
  3.10841209  3.1017338   3.07502062  3.02827256  2.95926352  2.87689789
  2.78340177  2.68545345  2.59195733  2.5095917   2.44503486  2.40719119
  2.39828679  2.42499997  2.48510462  2.58082684  2.70994053  2.8657674
  3.04830744  3.24643017  3.45790949  3.67384101  3.88977253  4.09902575
  4.29937458  4.48414072  4.65555027  4.80915104  4.94939522  5.07628282
  5.18981382  5.29444043  5.39016265  5.47698048  5.55712001  5.62835515
  5.69513809  5.75079054  5.7997647   5.84206057  5.87545204  5.90439131
  5.92887839  5.95781767  5.99120914  6.0357311   6.09583575  6.17374918
  6.2739236   6.39635899  6.54328147  6.71246493  6.90168326  7.10648429
  7.3246419   7.55393001  7.78767031  8.02363671  8.25960311  8.49334341
  8.72485761  8.94969352  9.17230333  9.39268705  9.60861856  9.82232398
 10.0315772  10.23860433 10.43895316 10.63262369 10.81738983 10.98879939
 11.14462625 11.28264434 11.40062754 11.49634976 11.56981099 11.61878515
 11.64549833 11.65440272 11.64327223 11.61655905 11.57871539 11.52974123
 11.47186268 11.40953193 11.34497508 11.27596604 11.2047309  11.13349576
 11.06226062 10.98879939 10.91756425 10.84410301 10.77064177 10.69940663
 10.6259454  10.55248416 10.47902292 10.40778778 10.33432654 10.26086531
 10.18963017 10.11616893 10.04270769  9.96924645  9.89801132  9.82455008
  9.75108884  9.6798537   9.60639246  9.53515732  9.46169609  9.39046095
  9.31699971  9.24576457  9.17452943  9.10106819  9.02760696  8.94969352
  8.86955399  8.78273616  8.68924004  8.58461343  8.46663023  8.33751654
  8.19282017  8.0347672   7.86335765  7.6808176   7.49159926  7.30015483
  7.11093649  6.92394425  6.74808249  6.58335123  6.43420266  6.29618458
  6.17597528  6.06912257  5.97785255  5.89771302  5.82870398  5.76859933
  5.71962517  5.6795554 ]","[-0.59265808 -0.63563398 -0.64995928 -0.63358751 -0.59265808 -0.527171
 -0.44326568 -0.34094211 -0.23043266 -0.11173733  0.01105094  0.12974628
  0.24639514  0.35485812  0.45718168  0.55336583  0.63931762  0.71913
  0.7907565   0.85624358  0.91559125  0.96470656  1.00563598  1.03428658
  1.04861188  1.05065835  1.03633305  1.00563598  0.95856714  0.89512653
  0.8194071   0.73140883  0.63317821  0.5267617   0.41625226  0.29960339
  0.18090806  0.05811978 -0.06466849 -0.18745677 -0.31024504 -0.43507979
 -0.55991454 -0.68270282 -0.80753756 -0.93237231 -1.05720706 -1.17999533
 -1.30483008 -1.42966483 -1.55449958 -1.67933432 -1.8021226  -1.92695735
 -2.05179209 -2.17662684 -2.29941512 -2.42424987 -2.54908461 -2.67391936
 -2.79875411 -2.92154238 -3.04637713 -3.17121188 -3.29604663 -3.4188349
 -3.54366965 -3.6685044  -3.79333915 -3.91817389 -4.04096217 -4.16579692
 -4.29063166 -4.41546641 -4.53825469 -4.66308943 -4.78792418 -4.91275893
 -5.03759368 -5.16038195 -5.2852167  -5.40800498 -5.53283972 -5.65358153
 -5.77432333 -5.89301867 -6.00557459 -6.10994462 -6.2040823  -6.28594115
 -6.34528882 -6.3821253  -6.38826472 -6.36166059 -6.30026645 -6.2040823
 -6.07310814 -5.91757632 -5.74157979 -5.55739738 -5.37526144 -5.20131138
 -5.04373309 -4.91071246 -4.80020301 -4.71425122 -4.65081061 -4.60578824
 -4.57509117 -4.55462646 -4.5443941  -4.53620822 -4.53211527 -4.5300688
 -4.52802233 -4.52597586 -4.52392939 -4.51983645 -4.51165056 -4.5014182
 -4.48709291 -4.46253525 -4.42979171 -4.38476934 -4.32542168 -4.24765577
 -4.14942515 -4.03277628 -3.89361624 -3.73603795 -3.56004142 -3.36767312
 -3.16302599 -2.94814651 -2.72712761 -2.50201577 -2.27485746 -2.04769915
 -1.82054084 -1.60156842]",10.756839964694086,0.34094211351367726,4.492165,-0.005664999999999587
034,3,2,csp,34b.png,1,1,228,160,229,1,1,217,pos_feedback_onset,5,"[nan nan nan nan nan nan nan nan nan nan nan nan nan nan nan nan nan nan
 nan nan nan nan nan nan nan nan nan nan nan nan nan nan nan nan nan nan
 nan nan nan nan nan nan nan nan nan nan nan nan nan nan nan nan nan nan
 nan nan nan nan nan nan nan nan nan nan nan nan nan nan nan nan nan nan
 nan nan nan nan nan nan nan nan nan nan nan nan nan nan nan nan nan nan
 nan nan nan nan nan nan nan nan nan nan nan nan nan nan nan nan nan nan
 nan nan nan nan nan nan nan nan nan nan nan nan nan nan nan nan nan nan
 nan nan nan nan nan nan nan nan nan nan nan nan nan nan nan nan nan nan
 nan nan nan nan nan nan nan nan nan nan nan nan nan nan nan nan nan nan
 nan nan nan nan nan nan nan nan nan nan nan nan nan nan nan nan nan nan
 nan nan nan nan nan nan nan nan nan nan nan nan nan nan nan nan nan nan
 nan nan nan nan nan nan nan nan nan nan nan nan nan nan nan nan nan nan
 nan nan nan nan nan nan nan nan nan nan nan nan nan nan nan nan nan nan
 nan nan nan nan nan nan nan nan nan nan nan nan nan nan nan nan nan nan
 nan nan nan nan nan nan nan nan]","[nan nan nan nan nan nan nan nan nan nan nan nan nan nan nan nan nan nan
 nan nan nan nan nan nan nan nan nan nan nan nan nan nan nan nan nan nan
 nan nan nan nan nan nan nan nan nan nan nan nan nan nan nan nan nan nan
 nan nan nan nan nan nan nan nan nan nan nan nan nan nan nan nan nan nan
 nan nan nan nan nan nan nan nan nan nan nan nan nan nan nan nan nan nan
 nan nan nan nan nan nan nan nan nan nan nan nan nan nan nan nan nan nan
 nan nan nan nan nan nan nan nan nan nan nan nan nan nan nan nan nan nan
 nan nan nan nan nan nan nan nan nan nan nan nan nan nan]",,,4.6965900000000005,
034,3,2,csp,23b.png,1,1,324,278,NaN,0,0,336,neg_feedback_onset,6,"[ 0.56443693  0.49562859  0.42682024  0.3580119   0.28920355  0.22248031
  0.15367197  0.08694873  0.02231058 -0.04232756 -0.1027955  -0.15909323
 -0.20913566 -0.25500789 -0.29045461 -0.31339073 -0.32798644 -0.32590134
 -0.31130563 -0.28211421 -0.23832708 -0.18202935 -0.113221   -0.03398715
  0.0535871   0.14950177  0.24958663  0.35384169  0.46226696  0.57069223
  0.6812026   0.79379807  0.90430844  1.01690392  1.12949939  1.24209486
  1.35469033  1.4672858   1.57988127  1.69247675  1.80507222  1.91766769
  2.03026316  2.14285863  2.2554541   2.36804958  2.48064505  2.59324052
  2.70583599  2.81843146  2.93102693  3.0436224   3.15621788  3.26881335
  3.38140882  3.49400429  3.60659976  3.71919523  3.83179071  3.94438618
  4.05698165  4.16957712  4.28217259  4.39476806  4.50736354  4.61995901
  4.73255448  4.84514995  4.95774542  5.06825579  5.18085126  5.29136163
  5.401872    5.50821217  5.61246724  5.710467    5.80221146  5.88144531
  5.94608345  5.99195568  6.01697689  6.01280669  5.97944507  5.91272183
  5.81055186  5.67502028  5.50612707  5.30595734  5.0828515   4.83680954
  4.57408678  4.3009385   4.01944983  3.73796115  3.45647247  3.18123909
  2.91226102  2.65162336  2.4014112   2.15745434  1.92183789  1.69039164
  1.4652007   1.24000976  1.01898902  0.80005338  0.58320284  0.37469271
  0.17243788 -0.01730634 -0.19453995 -0.35092255 -0.48853924 -0.60530491
 -0.70121958 -0.77628322 -0.83466606 -0.87428299 -0.9013893  -0.91598501
 -0.92432542 -0.92432542 -0.92015521 -0.91389991 -0.90555951 -0.8993042
 -0.895134   -0.8972191  -0.90555951 -0.92224032 -0.95143173 -0.99521886
 -1.0515166  -1.12241004 -1.2099843  -1.31423937 -1.43309014 -1.56653663
 -1.71457882 -1.87930182 -2.06070564 -2.25879027 -2.4756408  -2.71542746
 -2.98023532 -3.26797931 -3.58074451 -3.92061602 -4.28342365 -4.6649972
 -5.06742175 -5.48235692 -5.90563248 -6.33516336 -6.76469423 -7.1879698
 -7.59664966 -7.98656361 -8.34937124 -8.67673215 -8.96239103 -9.19800748
 -9.37941129 -9.49826207 -9.55873001 -9.55664491 -9.49826207 -9.3877517
 -9.2355393  -9.05205038 -8.84562535 -8.63085992 -8.42234978 -8.22635026
 -8.05537195 -7.91567016 -7.80932999 -7.73843655 -7.69881962 -7.68839412
 -7.69673452 -7.71550043 -7.73426635 -7.74469185 -7.73635145 -7.70507493
 -7.64460699 -7.55286253 -7.42567135 -7.26720365 -7.07745943 -6.86060889
 -6.61873714 -6.35392927 -6.07452569 -5.78261151 -5.48235692 -5.17793212
 -4.87350733 -4.57325274 -4.28342365 -4.00610518 -3.74546751 -3.50568086
 -3.29091542 -3.1011712  -2.9406184  -2.80925702 -2.70708705 -2.6320234
 -2.58406607 -2.55904486 -2.55695976 -2.57155546 -2.60283198 -2.64661911
 -2.70083175 -2.75921458 -2.82385273 -2.88849087 -2.95312901 -3.01568205
 -3.07197978 -3.12410732 -3.16789444 -3.20334117 -3.23253258 -3.2554687
 -3.27006441 -3.27840481 -3.28048992 -3.28048992 -3.27631971 -3.27214951
 -3.26797931 -3.2638091  -3.261724   -3.2638091  -3.26797931 -3.27423461
 -3.28466012 -3.29717073 -3.31176644 -3.32844725 -3.34304296 -3.35763866
 -3.36806417 -3.37640458 -3.37848968 -3.37431948 -3.36389397 -3.34512806
 -3.31593664 -3.27840481 -3.23461769 -3.18249015 -3.13036262 -3.08032019
 -3.03861816 -3.01568205]","[nan nan nan nan nan nan nan nan nan nan nan nan nan nan nan nan nan nan
 nan nan nan nan nan nan nan nan nan nan nan nan nan nan nan nan nan nan
 nan nan nan nan nan nan nan nan nan nan nan nan nan nan nan nan nan nan
 nan nan nan nan nan nan nan nan nan nan nan nan nan nan nan nan nan nan
 nan nan nan nan nan nan nan nan nan nan nan nan nan nan nan nan nan nan
 nan nan nan nan nan nan nan nan nan nan nan nan nan nan nan nan nan nan
 nan nan nan nan nan nan nan nan nan nan nan nan nan nan nan nan nan nan
 nan nan nan nan nan nan nan nan nan nan nan nan nan nan]",4.78734051581236,,4.79593,
034,3,2,csp,31b.png,1,0,352,NaN,352,1,0,443,neg_feedback_onset,7,"[nan nan nan nan nan nan nan nan nan nan nan nan nan nan nan nan nan nan
 nan nan nan nan nan nan nan nan nan nan nan nan nan nan nan nan nan nan
 nan nan nan nan nan nan nan nan nan nan nan nan nan nan nan nan nan nan
 nan nan nan nan nan nan nan nan nan nan nan nan nan nan nan nan nan nan
 nan nan nan nan nan nan nan nan nan nan nan nan nan nan nan nan nan nan
 nan nan nan nan nan nan nan nan nan nan nan nan nan nan nan nan nan nan
 nan nan nan nan nan nan nan nan nan nan nan nan nan nan nan nan nan nan
 nan nan nan nan nan nan nan nan nan nan nan nan nan nan nan nan nan nan
 nan nan nan nan nan nan nan nan nan nan nan nan nan nan nan nan nan nan
 nan nan nan nan nan nan nan nan nan nan nan nan nan nan nan nan nan nan
 nan nan nan nan nan nan nan nan nan nan nan nan nan nan nan nan nan nan
 nan nan nan nan nan nan nan nan nan nan nan nan nan nan nan nan nan nan
 nan nan nan nan nan nan nan nan nan nan nan nan nan nan nan nan nan nan
 nan nan nan nan nan nan nan nan nan nan nan nan nan nan nan nan nan nan
 nan nan nan nan nan nan nan nan]","[-0.82388295 -0.74788278 -0.67599072 -0.60409867 -0.53631473 -0.47058485
 -0.40485497 -0.33707104 -0.26517898 -0.18301663 -0.09263805  0.01006489
  0.12714623  0.25860599  0.40033604  0.55233639  0.71255297  0.87276955
  1.02887801  1.1788243   1.31850029  1.44174381  1.54650081  1.63071722
  1.69439304  1.73958233  1.76833915  1.77860944  1.77655538  1.76423103
  1.74369045  1.71493362  1.68412274  1.64920374  1.61428475  1.57525763
  1.53828457  1.49925746  1.46023034  1.42120323  1.38217611  1.343149
  1.30412188  1.26509476  1.22606765  1.18704053  1.14801342  1.1089863
  1.06995919  1.03093207  0.99190495  0.95287784  0.91385072  0.87482361
  0.83579649  0.79676938  0.75774226  0.71871515  0.67968803  0.64066091
  0.6016338   0.56260668  0.52357957  0.48455245  0.44552534  0.40649822
  0.3674711   0.32844399  0.28941687  0.25038976  0.21136264  0.17233553
  0.13330841  0.0942813   0.05525418  0.01622706 -0.02074599 -0.05977311
 -0.09880022 -0.13782734 -0.17685446 -0.21588157 -0.25490869 -0.2939358
 -0.33296292 -0.37199003 -0.41101715 -0.45004426 -0.48907138 -0.5280985
 -0.56712561 -0.60615273 -0.64517984 -0.68420696 -0.72323407 -0.76226119
 -0.80128831 -0.84031542 -0.87934254 -0.91836965 -0.95739677 -0.99642388
 -1.035451   -1.07447812 -1.11350523 -1.15253235 -1.19155946 -1.23058658
 -1.26961369 -1.30864081 -1.34766792 -1.38669504 -1.42572216 -1.46474927
 -1.50377639 -1.5428035  -1.58183062 -1.62085773 -1.65988485 -1.69891197
 -1.73793908 -1.7769662  -1.81599331 -1.85502043 -1.89404754 -1.93307466
 -1.97210177 -2.01112889 -2.05015601 -2.08918312 -2.12821024 -2.16723735
 -2.20626447 -2.24529158 -2.28226464 -2.32129176 -2.36031887 -2.39934599
 -2.43631904 -2.47534616]",,1.1369728515059336,4.573635,
034,3,2,csp,32b.png,1,1,0,54,1,1,1,277,pos_feedback_onset,8,"[nan nan nan nan nan nan nan nan nan nan nan nan nan nan nan nan nan nan
