sub,run,cat_cond,trial_type,picture,old,response_old,target_pos,response_pos,dot_resp_loc,cat_corr,TN_corr,TN_rt,feedback_type,trial,SP_timeseries,FB_timeseries,SP_peak_response,FB_peak_response,preStim_bl,anticipation
042,1,2,csp,21b.png,1,1,44,42,42,1,1,215,pos_feedback_onset,1,"[nan nan nan nan nan nan nan nan nan nan nan nan nan nan nan nan nan nan
 nan nan nan nan nan nan nan nan nan nan nan nan nan nan nan nan nan nan
 nan nan nan nan nan nan nan nan nan nan nan nan nan nan nan nan nan nan
 nan nan nan nan nan nan nan nan nan nan nan nan nan nan nan nan nan nan
 nan nan nan nan nan nan nan nan nan nan nan nan nan nan nan nan nan nan
 nan nan nan nan nan nan nan nan nan nan nan nan nan nan nan nan nan nan
 nan nan nan nan nan nan nan nan nan nan nan nan nan nan nan nan nan nan
 nan nan nan nan nan nan nan nan nan nan nan nan nan nan nan nan nan nan
 nan nan nan nan nan nan nan nan nan nan nan nan nan nan nan nan nan nan
 nan nan nan nan nan nan nan nan nan nan nan nan nan nan nan nan nan nan
 nan nan nan nan nan nan nan nan nan nan nan nan nan nan nan nan nan nan
 nan nan nan nan nan nan nan nan nan nan nan nan nan nan nan nan nan nan
 nan nan nan nan nan nan nan nan nan nan nan nan nan nan nan nan nan nan
 nan nan nan nan nan nan nan nan nan nan nan nan nan nan nan nan nan nan
 nan nan nan nan nan nan nan nan]","[nan nan nan nan nan nan nan nan nan nan nan nan nan nan nan nan nan nan
 nan nan nan nan nan nan nan nan nan nan nan nan nan nan nan nan nan nan
 nan nan nan nan nan nan nan nan nan nan nan nan nan nan nan nan nan nan
 nan nan nan nan nan nan nan nan nan nan nan nan nan nan nan nan nan nan
 nan nan nan nan nan nan nan nan nan nan nan nan nan nan nan nan nan nan
 nan nan nan nan nan nan nan nan nan nan nan nan nan nan nan nan nan nan
 nan nan nan nan nan nan nan nan nan nan nan nan nan nan nan nan nan nan
 nan nan nan nan nan nan nan nan nan nan nan nan nan nan]",,,6.726965,
042,1,2,csp,26b.png,1,1,36,23,39,1,1,243,pos_feedback_onset,2,"[nan nan nan nan nan nan nan nan nan nan nan nan nan nan nan nan nan nan
 nan nan nan nan nan nan nan nan nan nan nan nan nan nan nan nan nan nan
 nan nan nan nan nan nan nan nan nan nan nan nan nan nan nan nan nan nan
 nan nan nan nan nan nan nan nan nan nan nan nan nan nan nan nan nan nan
 nan nan nan nan nan nan nan nan nan nan nan nan nan nan nan nan nan nan
 nan nan nan nan nan nan nan nan nan nan nan nan nan nan nan nan nan nan
 nan nan nan nan nan nan nan nan nan nan nan nan nan nan nan nan nan nan
 nan nan nan nan nan nan nan nan nan nan nan nan nan nan nan nan nan nan
 nan nan nan nan nan nan nan nan nan nan nan nan nan nan nan nan nan nan
 nan nan nan nan nan nan nan nan nan nan nan nan nan nan nan nan nan nan
 nan nan nan nan nan nan nan nan nan nan nan nan nan nan nan nan nan nan
 nan nan nan nan nan nan nan nan nan nan nan nan nan nan nan nan nan nan
 nan nan nan nan nan nan nan nan nan nan nan nan nan nan nan nan nan nan
 nan nan nan nan nan nan nan nan nan nan nan nan nan nan nan nan nan nan
 nan nan nan nan nan nan nan nan]","[nan nan nan nan nan nan nan nan nan nan nan nan nan nan nan nan nan nan
 nan nan nan nan nan nan nan nan nan nan nan nan nan nan nan nan nan nan
 nan nan nan nan nan nan nan nan nan nan nan nan nan nan nan nan nan nan
 nan nan nan nan nan nan nan nan nan nan nan nan nan nan nan nan nan nan
 nan nan nan nan nan nan nan nan nan nan nan nan nan nan nan nan nan nan
 nan nan nan nan nan nan nan nan nan nan nan nan nan nan nan nan nan nan
 nan nan nan nan nan nan nan nan nan nan nan nan nan nan nan nan nan nan
 nan nan nan nan nan nan nan nan nan nan nan nan nan nan]",,,6.360035000000001,
042,1,2,csp,22b.png,1,1,20,6,18,1,1,348,pos_feedback_onset,3,"[nan nan nan nan nan nan nan nan nan nan nan nan nan nan nan nan nan nan
 nan nan nan nan nan nan nan nan nan nan nan nan nan nan nan nan nan nan
 nan nan nan nan nan nan nan nan nan nan nan nan nan nan nan nan nan nan
 nan nan nan nan nan nan nan nan nan nan nan nan nan nan nan nan nan nan
 nan nan nan nan nan nan nan nan nan nan nan nan nan nan nan nan nan nan
 nan nan nan nan nan nan nan nan nan nan nan nan nan nan nan nan nan nan
 nan nan nan nan nan nan nan nan nan nan nan nan nan nan nan nan nan nan
 nan nan nan nan nan nan nan nan nan nan nan nan nan nan nan nan nan nan
 nan nan nan nan nan nan nan nan nan nan nan nan nan nan nan nan nan nan
 nan nan nan nan nan nan nan nan nan nan nan nan nan nan nan nan nan nan
 nan nan nan nan nan nan nan nan nan nan nan nan nan nan nan nan nan nan
 nan nan nan nan nan nan nan nan nan nan nan nan nan nan nan nan nan nan
 nan nan nan nan nan nan nan nan nan nan nan nan nan nan nan nan nan nan
 nan nan nan nan nan nan nan nan nan nan nan nan nan nan nan nan nan nan
 nan nan nan nan nan nan nan nan]","[nan nan nan nan nan nan nan nan nan nan nan nan nan nan nan nan nan nan
 nan nan nan nan nan nan nan nan nan nan nan nan nan nan nan nan nan nan
 nan nan nan nan nan nan nan nan nan nan nan nan nan nan nan nan nan nan
 nan nan nan nan nan nan nan nan nan nan nan nan nan nan nan nan nan nan
 nan nan nan nan nan nan nan nan nan nan nan nan nan nan nan nan nan nan
 nan nan nan nan nan nan nan nan nan nan nan nan nan nan nan nan nan nan
 nan nan nan nan nan nan nan nan nan nan nan nan nan nan nan nan nan nan
 nan nan nan nan nan nan nan nan nan nan nan nan nan nan]",,,6.866854999999999,
042,1,2,csm,32a.png,1,1,72,63,74,1,1,234,neu_feedback_onset,4,"[nan nan nan nan nan nan nan nan nan nan nan nan nan nan nan nan nan nan
 nan nan nan nan nan nan nan nan nan nan nan nan nan nan nan nan nan nan
 nan nan nan nan nan nan nan nan nan nan nan nan nan nan nan nan nan nan
 nan nan nan nan nan nan nan nan nan nan nan nan nan nan nan nan nan nan
 nan nan nan nan nan nan nan nan nan nan nan nan nan nan nan nan nan nan
 nan nan nan nan nan nan nan nan nan nan nan nan nan nan nan nan nan nan
 nan nan nan nan nan nan nan nan nan nan nan nan nan nan nan nan nan nan
 nan nan nan nan nan nan nan nan nan nan nan nan nan nan nan nan nan nan
 nan nan nan nan nan nan nan nan nan nan nan nan nan nan nan nan nan nan
 nan nan nan nan nan nan nan nan nan nan nan nan nan nan nan nan nan nan
 nan nan nan nan nan nan nan nan nan nan nan nan nan nan nan nan nan nan
 nan nan nan nan nan nan nan nan nan nan nan nan nan nan nan nan nan nan
 nan nan nan nan nan nan nan nan nan nan nan nan nan nan nan nan nan nan
 nan nan nan nan nan nan nan nan nan nan nan nan nan nan nan nan nan nan
 nan nan nan nan nan nan nan nan]","[nan nan nan nan nan nan nan nan nan nan nan nan nan nan nan nan nan nan
 nan nan nan nan nan nan nan nan nan nan nan nan nan nan nan nan nan nan
 nan nan nan nan nan nan nan nan nan nan nan nan nan nan nan nan nan nan
 nan nan nan nan nan nan nan nan nan nan nan nan nan nan nan nan nan nan
 nan nan nan nan nan nan nan nan nan nan nan nan nan nan nan nan nan nan
 nan nan nan nan nan nan nan nan nan nan nan nan nan nan nan nan nan nan
 nan nan nan nan nan nan nan nan nan nan nan nan nan nan nan nan nan nan
 nan nan nan nan nan nan nan nan nan nan nan nan nan nan]",,,6.405880000000001,
042,1,2,csm,40a.png,1,1,40,50,33,1,1,327,neu_feedback_onset,5,"[nan nan nan nan nan nan nan nan nan nan nan nan nan nan nan nan nan nan
 nan nan nan nan nan nan nan nan nan nan nan nan nan nan nan nan nan nan
 nan nan nan nan nan nan nan nan nan nan nan nan nan nan nan nan nan nan
 nan nan nan nan nan nan nan nan nan nan nan nan nan nan nan nan nan nan
 nan nan nan nan nan nan nan nan nan nan nan nan nan nan nan nan nan nan
 nan nan nan nan nan nan nan nan nan nan nan nan nan nan nan nan nan nan
 nan nan nan nan nan nan nan nan nan nan nan nan nan nan nan nan nan nan
 nan nan nan nan nan nan nan nan nan nan nan nan nan nan nan nan nan nan
 nan nan nan nan nan nan nan nan nan nan nan nan nan nan nan nan nan nan
 nan nan nan nan nan nan nan nan nan nan nan nan nan nan nan nan nan nan
 nan nan nan nan nan nan nan nan nan nan nan nan nan nan nan nan nan nan
 nan nan nan nan nan nan nan nan nan nan nan nan nan nan nan nan nan nan
 nan nan nan nan nan nan nan nan nan nan nan nan nan nan nan nan nan nan
 nan nan nan nan nan nan nan nan nan nan nan nan nan nan nan nan nan nan
 nan nan nan nan nan nan nan nan]","[nan nan nan nan nan nan nan nan nan nan nan nan nan nan nan nan nan nan
 nan nan nan nan nan nan nan nan nan nan nan nan nan nan nan nan nan nan
 nan nan nan nan nan nan nan nan nan nan nan nan nan nan nan nan nan nan
 nan nan nan nan nan nan nan nan nan nan nan nan nan nan nan nan nan nan
 nan nan nan nan nan nan nan nan nan nan nan nan nan nan nan nan nan nan
 nan nan nan nan nan nan nan nan nan nan nan nan nan nan nan nan nan nan
 nan nan nan nan nan nan nan nan nan nan nan nan nan nan nan nan nan nan
 nan nan nan nan nan nan nan nan nan nan nan nan nan nan]",,,7.041244999999999,0.11918499999999987
042,1,2,csm,50a.png,1,1,248,247,244,1,1,498,neu_feedback_onset,6,"[nan nan nan nan nan nan nan nan nan nan nan nan nan nan nan nan nan nan
 nan nan nan nan nan nan nan nan nan nan nan nan nan nan nan nan nan nan
 nan nan nan nan nan nan nan nan nan nan nan nan nan nan nan nan nan nan
 nan nan nan nan nan nan nan nan nan nan nan nan nan nan nan nan nan nan
 nan nan nan nan nan nan nan nan nan nan nan nan nan nan nan nan nan nan
 nan nan nan nan nan nan nan nan nan nan nan nan nan nan nan nan nan nan
 nan nan nan nan nan nan nan nan nan nan nan nan nan nan nan nan nan nan
 nan nan nan nan nan nan nan nan nan nan nan nan nan nan nan nan nan nan
 nan nan nan nan nan nan nan nan nan nan nan nan nan nan nan nan nan nan
 nan nan nan nan nan nan nan nan nan nan nan nan nan nan nan nan nan nan
 nan nan nan nan nan nan nan nan nan nan nan nan nan nan nan nan nan nan
 nan nan nan nan nan nan nan nan nan nan nan nan nan nan nan nan nan nan
 nan nan nan nan nan nan nan nan nan nan nan nan nan nan nan nan nan nan
 nan nan nan nan nan nan nan nan nan nan nan nan nan nan nan nan nan nan
 nan nan nan nan nan nan nan nan]","[nan nan nan nan nan nan nan nan nan nan nan nan nan nan nan nan nan nan
 nan nan nan nan nan nan nan nan nan nan nan nan nan nan nan nan nan nan
 nan nan nan nan nan nan nan nan nan nan nan nan nan nan nan nan nan nan
 nan nan nan nan nan nan nan nan nan nan nan nan nan nan nan nan nan nan
 nan nan nan nan nan nan nan nan nan nan nan nan nan nan nan nan nan nan
 nan nan nan nan nan nan nan nan nan nan nan nan nan nan nan nan nan nan
 nan nan nan nan nan nan nan nan nan nan nan nan nan nan nan nan nan nan
 nan nan nan nan nan nan nan nan nan nan nan nan nan nan]",,,7.03891,
042,1,2,csp,24b.png,1,1,88,241,87,1,1,411,pos_feedback_onset,7,"[nan nan nan nan nan nan nan nan nan nan nan nan nan nan nan nan nan nan
 nan nan nan nan nan nan nan nan nan nan nan nan nan nan nan nan nan nan
 nan nan nan nan nan nan nan nan nan nan nan nan nan nan nan nan nan nan
 nan nan nan nan nan nan nan nan nan nan nan nan nan nan nan nan nan nan
 nan nan nan nan nan nan nan nan nan nan nan nan nan nan nan nan nan nan
 nan nan nan nan nan nan nan nan nan nan nan nan nan nan nan nan nan nan
 nan nan nan nan nan nan nan nan nan nan nan nan nan nan nan nan nan nan
 nan nan nan nan nan nan nan nan nan nan nan nan nan nan nan nan nan nan
 nan nan nan nan nan nan nan nan nan nan nan nan nan nan nan nan nan nan
 nan nan nan nan nan nan nan nan nan nan nan nan nan nan nan nan nan nan
 nan nan nan nan nan nan nan nan nan nan nan nan nan nan nan nan nan nan
 nan nan nan nan nan nan nan nan nan nan nan nan nan nan nan nan nan nan
 nan nan nan nan nan nan nan nan nan nan nan nan nan nan nan nan nan nan
 nan nan nan nan nan nan nan nan nan nan nan nan nan nan nan nan nan nan
 nan nan nan nan nan nan nan nan]","[nan nan nan nan nan nan nan nan nan nan nan nan nan nan nan nan nan nan
 nan nan nan nan nan nan nan nan nan nan nan nan nan nan nan nan nan nan
 nan nan nan nan nan nan nan nan nan nan nan nan nan nan nan nan nan nan
 nan nan nan nan nan nan nan nan nan nan nan nan nan nan nan nan nan nan
 nan nan nan nan nan nan nan nan nan nan nan nan nan nan nan nan nan nan
 nan nan nan nan nan nan nan nan nan nan nan nan nan nan nan nan nan nan
 nan nan nan nan nan nan nan nan nan nan nan nan nan nan nan nan nan nan
 nan nan nan nan nan nan nan nan nan nan nan nan nan nan]",,,6.6297250000000005,
042,1,2,csm,10a.png,1,1,68,66,65,1,1,340,neu_feedback_onset,8,"[nan nan nan nan nan nan nan nan nan nan nan nan nan nan nan nan nan nan
 nan nan nan nan nan nan nan nan nan nan nan nan nan nan nan nan nan nan
 nan nan nan nan nan nan nan nan nan nan nan nan nan nan nan nan nan nan
 nan nan nan nan nan nan nan nan nan nan nan nan nan nan nan nan nan nan
 nan nan nan nan nan nan nan nan nan nan nan nan nan nan nan nan nan nan
 nan nan nan nan nan nan nan nan nan nan nan nan nan nan nan nan nan nan
 nan nan nan nan nan nan nan nan nan nan nan nan nan nan nan nan nan nan
 nan nan nan nan nan nan nan nan nan nan nan nan nan nan nan nan nan nan
 nan nan nan nan nan nan nan nan nan nan nan nan nan nan nan nan nan nan
 nan nan nan nan nan nan nan nan nan nan nan nan nan nan nan nan nan nan
 nan nan nan nan nan nan nan nan nan nan nan nan nan nan nan nan nan nan
 nan nan nan nan nan nan nan nan nan nan nan nan nan nan nan nan nan nan
 nan nan nan nan nan nan nan nan nan nan nan nan nan nan nan nan nan nan
 nan nan nan nan nan nan nan nan nan nan nan nan nan nan nan nan nan nan
 nan nan nan nan nan nan nan nan]","[nan nan nan nan nan nan nan nan nan nan nan nan nan nan nan nan nan nan
 nan nan nan nan nan nan nan nan nan nan nan nan nan nan nan nan nan nan
 nan nan nan nan nan nan nan nan nan nan nan nan nan nan nan nan nan nan
 nan nan nan nan nan nan nan nan nan nan nan nan nan nan nan nan nan nan
 nan nan nan nan nan nan nan nan nan nan nan nan nan nan nan nan nan nan
 nan nan nan nan nan nan nan nan nan nan nan nan nan nan nan nan nan nan
 nan nan nan nan nan nan nan nan nan nan nan nan nan nan nan nan nan nan
 nan nan nan nan nan nan nan nan nan nan nan nan nan nan]",,,6.87448,
042,1,2,csm,17a.png,1,1,80,88,83,1,1,359,neu_feedback_onset,9,"[ 0.29761973  0.25509177  0.21256382  0.17155472  0.13206448  0.09257424
  0.05460285  0.01663147 -0.01830221 -0.05171703 -0.08209414 -0.10639582
 -0.1276598  -0.13981064 -0.14588607 -0.14284836 -0.13221637 -0.11550896
 -0.09576384 -0.07449986 -0.05931131 -0.05171703 -0.05627359 -0.07753757
 -0.1139901  -0.1686689  -0.23853625 -0.3220733  -0.41624234 -0.51800565
 -0.62432553 -0.73368313 -0.84455957 -0.95543602 -1.06631247 -1.17718892
 -1.28654651 -1.3959041  -1.50526169 -1.61310043 -1.72093917 -1.83029676
 -1.9381355  -2.04597424 -2.15381297 -2.26317057 -2.3710093  -2.47884804
 -2.58668678 -2.69604437 -2.80388311 -2.91172184 -3.01956058 -3.12891817
 -3.23675691 -3.34459565 -3.45243438 -3.56027312 -3.66963071 -3.77746945
 -3.88530819 -3.99314692 -4.10250452 -4.21034325 -4.31818199 -4.42602073
 -4.53385946 -4.64321706 -4.75105579 -4.85889453 -4.96673327 -5.07609086
 -5.1839296  -5.29176834 -5.39960707 -5.50896466 -5.6168034  -5.72464214
 -5.83248088 -5.94031961 -6.04967721 -6.15751594 -6.26535468 -6.37319342
 -6.48255101 -6.59038975 -6.69822848 -6.80606722 -6.91390596 -7.02326355
 -7.12958343 -7.23742217 -7.34374205 -7.44854308 -7.55182525 -7.65055085
 -7.74320103 -7.82673808 -7.89812429 -7.95280309 -7.98773676 -7.99836875
 -7.98014248 -7.93153911 -7.85255863 -7.74471989 -7.61257946 -7.46069392
 -7.29513868 -7.12198915 -6.94580192 -6.76809583 -6.59038975 -6.41268366
 -6.22890215 -6.03904522 -5.8385563  -5.62439768 -5.39353165 -5.14899592
 -4.88775279 -4.6143588  -4.33033283 -4.03871259 -3.74101692 -3.44028354
 -3.13955016 -2.84033564 -2.54263997 -2.24950087 -1.95788062 -1.67233579
 -1.39286639 -1.11947241 -0.85671042 -0.60609927 -0.37371438 -0.16259348
  0.01966918  0.17003587  0.28091232  0.34774196  0.37052479  0.3462231
  0.2778746   0.17003587  0.02878231 -0.13677293 -0.31751673 -0.50585481
 -0.69267403 -0.87038012 -1.03441651 -1.18174548 -1.31236705 -1.4232435
 -1.51437483 -1.58576103 -1.63892097 -1.67385465 -1.69056206 -1.69056206
 -1.67993007 -1.66170381 -1.64195869 -1.62980784 -1.63436441 -1.66170381
 -1.71790146 -1.80903279 -1.93509779 -2.09305875 -2.27835912 -2.48188575
 -2.69604437 -2.90716528 -3.10917305 -3.29143571 -3.44939667 -3.5815371
 -3.68785698 -3.77139403 -3.83670481 -3.88682704 -3.92631728 -3.96125096
 -3.99162807 -4.01896747 -4.04326915 -4.06453313 -4.08124054 -4.09187253
 -4.09946681 -4.10098566 -4.09794795 -4.09187253 -4.0827594  -4.07060855
 -4.05845771 -4.04478801 -4.02959946 -4.01592976 -4.0007412  -3.98555265
 -3.97036409 -3.95517554 -3.93846813 -3.92327957 -3.90809102 -3.89290246
 -3.87771391 -3.86252536 -3.8473368  -3.83214825 -3.81695969 -3.80177114
 -3.78506373 -3.76987517 -3.75468662 -3.73949806 -3.72430951 -3.70912095
 -3.6939324  -3.67874385 -3.66355529 -3.64836674 -3.63317818 -3.61647077
 -3.60128222 -3.58609366 -3.57090511 -3.55571655 -3.540528   -3.52533945
 -3.51015089 -3.49496234 -3.47977378 -3.46306637 -3.44787782 -3.43268926
 -3.41750071 -3.40231215 -3.3871236  -3.37193504 -3.35674649 -3.34155794
 -3.32636938 -3.30966197 -3.29447342 -3.27928486 -3.26409631 -3.24890775
 -3.2337192  -3.21853064 -3.20334209 -3.18815354 -3.17296498 -3.15777643
 -3.14106902 -3.12588046]","[nan nan nan nan nan nan nan nan nan nan nan nan nan nan nan nan nan nan
 nan nan nan nan nan nan nan nan nan nan nan nan nan nan nan nan nan nan
 nan nan nan nan nan nan nan nan nan nan nan nan nan nan nan nan nan nan
 nan nan nan nan nan nan nan nan nan nan nan nan nan nan nan nan nan nan
 nan nan nan nan nan nan nan nan nan nan nan nan nan nan nan nan nan nan
 nan nan nan nan nan nan nan nan nan nan nan nan nan nan nan nan nan nan
 nan nan nan nan nan nan nan nan nan nan nan nan nan nan nan nan nan nan
 nan nan nan nan nan nan nan nan nan nan nan nan nan nan]",-1.2430313013325627,,6.583905,
042,1,2,csp,60b.png,1,1,236,233,231,1,1,377,pos_feedback_onset,10,"[nan nan nan nan nan nan nan nan nan nan nan nan nan nan nan nan nan nan
 nan nan nan nan nan nan nan nan nan nan nan nan nan nan nan nan nan nan
 nan nan nan nan nan nan nan nan nan nan nan nan nan nan nan nan nan nan
 nan nan nan nan nan nan nan nan nan nan nan nan nan nan nan nan nan nan
 nan nan nan nan nan nan nan nan nan nan nan nan nan nan nan nan nan nan
 nan nan nan nan nan nan nan nan nan nan nan nan nan nan nan nan nan nan
 nan nan nan nan nan nan nan nan nan nan nan nan nan nan nan nan nan nan
 nan nan nan nan nan nan nan nan nan nan nan nan nan nan nan nan nan nan
 nan nan nan nan nan nan nan nan nan nan nan nan nan nan nan nan nan nan
 nan nan nan nan nan nan nan nan nan nan nan nan nan nan nan nan nan nan
 nan nan nan nan nan nan nan nan nan nan nan nan nan nan nan nan nan nan
 nan nan nan nan nan nan nan nan nan nan nan nan nan nan nan nan nan nan
 nan nan nan nan nan nan nan nan nan nan nan nan nan nan nan nan nan nan
 nan nan nan nan nan nan nan nan nan nan nan nan nan nan nan nan nan nan
 nan nan nan nan nan nan nan nan]","[nan nan nan nan nan nan nan nan nan nan nan nan nan nan nan nan nan nan
 nan nan nan nan nan nan nan nan nan nan nan nan nan nan nan nan nan nan
 nan nan nan nan nan nan nan nan nan nan nan nan nan nan nan nan nan nan
 nan nan nan nan nan nan nan nan nan nan nan nan nan nan nan nan nan nan
 nan nan nan nan nan nan nan nan nan nan nan nan nan nan nan nan nan nan
 nan nan nan nan nan nan nan nan nan nan nan nan nan nan nan nan nan nan
 nan nan nan nan nan nan nan nan nan nan nan nan nan nan nan nan nan nan
 nan nan nan nan nan nan nan nan nan nan nan nan nan nan]",,,6.963679999999999,
042,1,2,csm,58a.png,1,1,288,295,288,1,1,434,neu_feedback_onset,11,"[nan nan nan nan nan nan nan nan nan nan nan nan nan nan nan nan nan nan
 nan nan nan nan nan nan nan nan nan nan nan nan nan nan nan nan nan nan
 nan nan nan nan nan nan nan nan nan nan nan nan nan nan nan nan nan nan
 nan nan nan nan nan nan nan nan nan nan nan nan nan nan nan nan nan nan
 nan nan nan nan nan nan nan nan nan nan nan nan nan nan nan nan nan nan
 nan nan nan nan nan nan nan nan nan nan nan nan nan nan nan nan nan nan
 nan nan nan nan nan nan nan nan nan nan nan nan nan nan nan nan nan nan
 nan nan nan nan nan nan nan nan nan nan nan nan nan nan nan nan nan nan
 nan nan nan nan nan nan nan nan nan nan nan nan nan nan nan nan nan nan
 nan nan nan nan nan nan nan nan nan nan nan nan nan nan nan nan nan nan
 nan nan nan nan nan nan nan nan nan nan nan nan nan nan nan nan nan nan
 nan nan nan nan nan nan nan nan nan nan nan nan nan nan nan nan nan nan
 nan nan nan nan nan nan nan nan nan nan nan nan nan nan nan nan nan nan
 nan nan nan nan nan nan nan nan nan nan nan nan nan nan nan nan nan nan
 nan nan nan nan nan nan nan nan]","[nan nan nan nan nan nan nan nan nan nan nan nan nan nan nan nan nan nan
 nan nan nan nan nan nan nan nan nan nan nan nan nan nan nan nan nan nan
 nan nan nan nan nan nan nan nan nan nan nan nan nan nan nan nan nan nan
 nan nan nan nan nan nan nan nan nan nan nan nan nan nan nan nan nan nan
 nan nan nan nan nan nan nan nan nan nan nan nan nan nan nan nan nan nan
 nan nan nan nan nan nan nan nan nan nan nan nan nan nan nan nan nan nan
 nan nan nan nan nan nan nan nan nan nan nan nan nan nan nan nan nan nan
 nan nan nan nan nan nan nan nan nan nan nan nan nan nan]",,,6.9626,
042,1,2,csp,47b.png,1,1,240,239,236,1,1,469,neg_feedback_onset,12,"[nan nan nan nan nan nan nan nan nan nan nan nan nan nan nan nan nan nan
 nan nan nan nan nan nan nan nan nan nan nan nan nan nan nan nan nan nan
 nan nan nan nan nan nan nan nan nan nan nan nan nan nan nan nan nan nan
 nan nan nan nan nan nan nan nan nan nan nan nan nan nan nan nan nan nan
 nan nan nan nan nan nan nan nan nan nan nan nan nan nan nan nan nan nan
 nan nan nan nan nan nan nan nan nan nan nan nan nan nan nan nan nan nan
 nan nan nan nan nan nan nan nan nan nan nan nan nan nan nan nan nan nan
 nan nan nan nan nan nan nan nan nan nan nan nan nan nan nan nan nan nan
 nan nan nan nan nan nan nan nan nan nan nan nan nan nan nan nan nan nan
 nan nan nan nan nan nan nan nan nan nan nan nan nan nan nan nan nan nan
 nan nan nan nan nan nan nan nan nan nan nan nan nan nan nan nan nan nan
 nan nan nan nan nan nan nan nan nan nan nan nan nan nan nan nan nan nan
 nan nan nan nan nan nan nan nan nan nan nan nan nan nan nan nan nan nan
 nan nan nan nan nan nan nan nan nan nan nan nan nan nan nan nan nan nan
 nan nan nan nan nan nan nan nan]","[nan nan nan nan nan nan nan nan nan nan nan nan nan nan nan nan nan nan
 nan nan nan nan nan nan nan nan nan nan nan nan nan nan nan nan nan nan
 nan nan nan nan nan nan nan nan nan nan nan nan nan nan nan nan nan nan
 nan nan nan nan nan nan nan nan nan nan nan nan nan nan nan nan nan nan
 nan nan nan nan nan nan nan nan nan nan nan nan nan nan nan nan nan nan
 nan nan nan nan nan nan nan nan nan nan nan nan nan nan nan nan nan nan
 nan nan nan nan nan nan nan nan nan nan nan nan nan nan nan nan nan nan
 nan nan nan nan nan nan nan nan nan nan nan nan nan nan]",,,6.909815,0.3392149999999985
042,1,2,csp,14b.png,1,1,140,139,143,1,1,354,pos_feedback_onset,13,"[nan nan nan nan nan nan nan nan nan nan nan nan nan nan nan nan nan nan
 nan nan nan nan nan nan nan nan nan nan nan nan nan nan nan nan nan nan
 nan nan nan nan nan nan nan nan nan nan nan nan nan nan nan nan nan nan
 nan nan nan nan nan nan nan nan nan nan nan nan nan nan nan nan nan nan
 nan nan nan nan nan nan nan nan nan nan nan nan nan nan nan nan nan nan
 nan nan nan nan nan nan nan nan nan nan nan nan nan nan nan nan nan nan
 nan nan nan nan nan nan nan nan nan nan nan nan nan nan nan nan nan nan
 nan nan nan nan nan nan nan nan nan nan nan nan nan nan nan nan nan nan
 nan nan nan nan nan nan nan nan nan nan nan nan nan nan nan nan nan nan
 nan nan nan nan nan nan nan nan nan nan nan nan nan nan nan nan nan nan
 nan nan nan nan nan nan nan nan nan nan nan nan nan nan nan nan nan nan
 nan nan nan nan nan nan nan nan nan nan nan nan nan nan nan nan nan nan
 nan nan nan nan nan nan nan nan nan nan nan nan nan nan nan nan nan nan
 nan nan nan nan nan nan nan nan nan nan nan nan nan nan nan nan nan nan
 nan nan nan nan nan nan nan nan]","[nan nan nan nan nan nan nan nan nan nan nan nan nan nan nan nan nan nan
 nan nan nan nan nan nan nan nan nan nan nan nan nan nan nan nan nan nan
 nan nan nan nan nan nan nan nan nan nan nan nan nan nan nan nan nan nan
 nan nan nan nan nan nan nan nan nan nan nan nan nan nan nan nan nan nan
 nan nan nan nan nan nan nan nan nan nan nan nan nan nan nan nan nan nan
 nan nan nan nan nan nan nan nan nan nan nan nan nan nan nan nan nan nan
 nan nan nan nan nan nan nan nan nan nan nan nan nan nan nan nan nan nan
 nan nan nan nan nan nan nan nan nan nan nan nan nan nan]",,,7.17848,0.2599750000000016
042,1,2,csm,25a.png,1,1,324,292,328,1,1,393,neu_feedback_onset,14,"[nan nan nan nan nan nan nan nan nan nan nan nan nan nan nan nan nan nan
 nan nan nan nan nan nan nan nan nan nan nan nan nan nan nan nan nan nan
 nan nan nan nan nan nan nan nan nan nan nan nan nan nan nan nan nan nan
 nan nan nan nan nan nan nan nan nan nan nan nan nan nan nan nan nan nan
 nan nan nan nan nan nan nan nan nan nan nan nan nan nan nan nan nan nan
 nan nan nan nan nan nan nan nan nan nan nan nan nan nan nan nan nan nan
 nan nan nan nan nan nan nan nan nan nan nan nan nan nan nan nan nan nan
 nan nan nan nan nan nan nan nan nan nan nan nan nan nan nan nan nan nan
 nan nan nan nan nan nan nan nan nan nan nan nan nan nan nan nan nan nan
 nan nan nan nan nan nan nan nan nan nan nan nan nan nan nan nan nan nan
 nan nan nan nan nan nan nan nan nan nan nan nan nan nan nan nan nan nan
 nan nan nan nan nan nan nan nan nan nan nan nan nan nan nan nan nan nan
 nan nan nan nan nan nan nan nan nan nan nan nan nan nan nan nan nan nan
 nan nan nan nan nan nan nan nan nan nan nan nan nan nan nan nan nan nan
 nan nan nan nan nan nan nan nan]","[nan nan nan nan nan nan nan nan nan nan nan nan nan nan nan nan nan nan
 nan nan nan nan nan nan nan nan nan nan nan nan nan nan nan nan nan nan
 nan nan nan nan nan nan nan nan nan nan nan nan nan nan nan nan nan nan
 nan nan nan nan nan nan nan nan nan nan nan nan nan nan nan nan nan nan
 nan nan nan nan nan nan nan nan nan nan nan nan nan nan nan nan nan nan
 nan nan nan nan nan nan nan nan nan nan nan nan nan nan nan nan nan nan
 nan nan nan nan nan nan nan nan nan nan nan nan nan nan nan nan nan nan
 nan nan nan nan nan nan nan nan nan nan nan nan nan nan]",,,6.941165,0.17873000000000072
042,2,2,csm,60a.png,1,1,104,114,93,1,1,334,neu_feedback_onset,1,"[nan nan nan nan nan nan nan nan nan nan nan nan nan nan nan nan nan nan
 nan nan nan nan nan nan nan nan nan nan nan nan nan nan nan nan nan nan
 nan nan nan nan nan nan nan nan nan nan nan nan nan nan nan nan nan nan
 nan nan nan nan nan nan nan nan nan nan nan nan nan nan nan nan nan nan
 nan nan nan nan nan nan nan nan nan nan nan nan nan nan nan nan nan nan
 nan nan nan nan nan nan nan nan nan nan nan nan nan nan nan nan nan nan
 nan nan nan nan nan nan nan nan nan nan nan nan nan nan nan nan nan nan
 nan nan nan nan nan nan nan nan nan nan nan nan nan nan nan nan nan nan
 nan nan nan nan nan nan nan nan nan nan nan nan nan nan nan nan nan nan
 nan nan nan nan nan nan nan nan nan nan nan nan nan nan nan nan nan nan
 nan nan nan nan nan nan nan nan nan nan nan nan nan nan nan nan nan nan
 nan nan nan nan nan nan nan nan nan nan nan nan nan nan nan nan nan nan
 nan nan nan nan nan nan nan nan nan nan nan nan nan nan nan nan nan nan
 nan nan nan nan nan nan nan nan nan nan nan nan nan nan nan nan nan nan
 nan nan nan nan nan nan nan nan]","[nan nan nan nan nan nan nan nan nan nan nan nan nan nan nan nan nan nan
 nan nan nan nan nan nan nan nan nan nan nan nan nan nan nan nan nan nan
 nan nan nan nan nan nan nan nan nan nan nan nan nan nan nan nan nan nan
 nan nan nan nan nan nan nan nan nan nan nan nan nan nan nan nan nan nan
 nan nan nan nan nan nan nan nan nan nan nan nan nan nan nan nan nan nan
 nan nan nan nan nan nan nan nan nan nan nan nan nan nan nan nan nan nan
 nan nan nan nan nan nan nan nan nan nan nan nan nan nan nan nan nan nan
 nan nan nan nan nan nan nan nan nan nan nan nan nan nan]",,,6.920995,
042,2,2,csm,22a.png,1,1,316,316,317,1,1,408,neu_feedback_onset,2,"[nan nan nan nan nan nan nan nan nan nan nan nan nan nan nan nan nan nan
 nan nan nan nan nan nan nan nan nan nan nan nan nan nan nan nan nan nan
 nan nan nan nan nan nan nan nan nan nan nan nan nan nan nan nan nan nan
 nan nan nan nan nan nan nan nan nan nan nan nan nan nan nan nan nan nan
 nan nan nan nan nan nan nan nan nan nan nan nan nan nan nan nan nan nan
 nan nan nan nan nan nan nan nan nan nan nan nan nan nan nan nan nan nan
 nan nan nan nan nan nan nan nan nan nan nan nan nan nan nan nan nan nan
 nan nan nan nan nan nan nan nan nan nan nan nan nan nan nan nan nan nan
 nan nan nan nan nan nan nan nan nan nan nan nan nan nan nan nan nan nan
 nan nan nan nan nan nan nan nan nan nan nan nan nan nan nan nan nan nan
 nan nan nan nan nan nan nan nan nan nan nan nan nan nan nan nan nan nan
 nan nan nan nan nan nan nan nan nan nan nan nan nan nan nan nan nan nan
 nan nan nan nan nan nan nan nan nan nan nan nan nan nan nan nan nan nan
 nan nan nan nan nan nan nan nan nan nan nan nan nan nan nan nan nan nan
 nan nan nan nan nan nan nan nan]","[nan nan nan nan nan nan nan nan nan nan nan nan nan nan nan nan nan nan
 nan nan nan nan nan nan nan nan nan nan nan nan nan nan nan nan nan nan
 nan nan nan nan nan nan nan nan nan nan nan nan nan nan nan nan nan nan
 nan nan nan nan nan nan nan nan nan nan nan nan nan nan nan nan nan nan
 nan nan nan nan nan nan nan nan nan nan nan nan nan nan nan nan nan nan
 nan nan nan nan nan nan nan nan nan nan nan nan nan nan nan nan nan nan
 nan nan nan nan nan nan nan nan nan nan nan nan nan nan nan nan nan nan
 nan nan nan nan nan nan nan nan nan nan nan nan nan nan]",,,6.6557699999999995,0.020054999999999268
042,2,2,csp,4b.png,1,1,112,121,106,1,1,329,pos_feedback_onset,3,"[nan nan nan nan nan nan nan nan nan nan nan nan nan nan nan nan nan nan
 nan nan nan nan nan nan nan nan nan nan nan nan nan nan nan nan nan nan
 nan nan nan nan nan nan nan nan nan nan nan nan nan nan nan nan nan nan
 nan nan nan nan nan nan nan nan nan nan nan nan nan nan nan nan nan nan
 nan nan nan nan nan nan nan nan nan nan nan nan nan nan nan nan nan nan
 nan nan nan nan nan nan nan nan nan nan nan nan nan nan nan nan nan nan
 nan nan nan nan nan nan nan nan nan nan nan nan nan nan nan nan nan nan
 nan nan nan nan nan nan nan nan nan nan nan nan nan nan nan nan nan nan
 nan nan nan nan nan nan nan nan nan nan nan nan nan nan nan nan nan nan
 nan nan nan nan nan nan nan nan nan nan nan nan nan nan nan nan nan nan
 nan nan nan nan nan nan nan nan nan nan nan nan nan nan nan nan nan nan
 nan nan nan nan nan nan nan nan nan nan nan nan nan nan nan nan nan nan
 nan nan nan nan nan nan nan nan nan nan nan nan nan nan nan nan nan nan
 nan nan nan nan nan nan nan nan nan nan nan nan nan nan nan nan nan nan
 nan nan nan nan nan nan nan nan]","[nan nan nan nan nan nan nan nan nan nan nan nan nan nan nan nan nan nan
 nan nan nan nan nan nan nan nan nan nan nan nan nan nan nan nan nan nan
 nan nan nan nan nan nan nan nan nan nan nan nan nan nan nan nan nan nan
 nan nan nan nan nan nan nan nan nan nan nan nan nan nan nan nan nan nan
 nan nan nan nan nan nan nan nan nan nan nan nan nan nan nan nan nan nan
 nan nan nan nan nan nan nan nan nan nan nan nan nan nan nan nan nan nan
 nan nan nan nan nan nan nan nan nan nan nan nan nan nan nan nan nan nan
 nan nan nan nan nan nan nan nan nan nan nan nan nan nan]",,,6.660819999999999,
042,2,2,csp,40b.png,1,1,32,39,31,1,0,376,neg_feedback_onset,4,"[nan nan nan nan nan nan nan nan nan nan nan nan nan nan nan nan nan nan
 nan nan nan nan nan nan nan nan nan nan nan nan nan nan nan nan nan nan
 nan nan nan nan nan nan nan nan nan nan nan nan nan nan nan nan nan nan
 nan nan nan nan nan nan nan nan nan nan nan nan nan nan nan nan nan nan
 nan nan nan nan nan nan nan nan nan nan nan nan nan nan nan nan nan nan
 nan nan nan nan nan nan nan nan nan nan nan nan nan nan nan nan nan nan
 nan nan nan nan nan nan nan nan nan nan nan nan nan nan nan nan nan nan
 nan nan nan nan nan nan nan nan nan nan nan nan nan nan nan nan nan nan
 nan nan nan nan nan nan nan nan nan nan nan nan nan nan nan nan nan nan
 nan nan nan nan nan nan nan nan nan nan nan nan nan nan nan nan nan nan
 nan nan nan nan nan nan nan nan nan nan nan nan nan nan nan nan nan nan
 nan nan nan nan nan nan nan nan nan nan nan nan nan nan nan nan nan nan
 nan nan nan nan nan nan nan nan nan nan nan nan nan nan nan nan nan nan
 nan nan nan nan nan nan nan nan nan nan nan nan nan nan nan nan nan nan
 nan nan nan nan nan nan nan nan]","[nan nan nan nan nan nan nan nan nan nan nan nan nan nan nan nan nan nan
 nan nan nan nan nan nan nan nan nan nan nan nan nan nan nan nan nan nan
 nan nan nan nan nan nan nan nan nan nan nan nan nan nan nan nan nan nan
 nan nan nan nan nan nan nan nan nan nan nan nan nan nan nan nan nan nan
 nan nan nan nan nan nan nan nan nan nan nan nan nan nan nan nan nan nan
 nan nan nan nan nan nan nan nan nan nan nan nan nan nan nan nan nan nan
 nan nan nan nan nan nan nan nan nan nan nan nan nan nan nan nan nan nan
 nan nan nan nan nan nan nan nan nan nan nan nan nan nan]",,,6.604105,
042,2,2,csp,62b.png,1,1,200,19,198,1,0,324,neg_feedback_onset,5,"[nan nan nan nan nan nan nan nan nan nan nan nan nan nan nan nan nan nan
 nan nan nan nan nan nan nan nan nan nan nan nan nan nan nan nan nan nan
 nan nan nan nan nan nan nan nan nan nan nan nan nan nan nan nan nan nan
 nan nan nan nan nan nan nan nan nan nan nan nan nan nan nan nan nan nan
 nan nan nan nan nan nan nan nan nan nan nan nan nan nan nan nan nan nan
 nan nan nan nan nan nan nan nan nan nan nan nan nan nan nan nan nan nan
 nan nan nan nan nan nan nan nan nan nan nan nan nan nan nan nan nan nan
 nan nan nan nan nan nan nan nan nan nan nan nan nan nan nan nan nan nan
 nan nan nan nan nan nan nan nan nan nan nan nan nan nan nan nan nan nan
 nan nan nan nan nan nan nan nan nan nan nan nan nan nan nan nan nan nan
 nan nan nan nan nan nan nan nan nan nan nan nan nan nan nan nan nan nan
 nan nan nan nan nan nan nan nan nan nan nan nan nan nan nan nan nan nan
 nan nan nan nan nan nan nan nan nan nan nan nan nan nan nan nan nan nan
 nan nan nan nan nan nan nan nan nan nan nan nan nan nan nan nan nan nan
 nan nan nan nan nan nan nan nan]","[nan nan nan nan nan nan nan nan nan nan nan nan nan nan nan nan nan nan
 nan nan nan nan nan nan nan nan nan nan nan nan nan nan nan nan nan nan
 nan nan nan nan nan nan nan nan nan nan nan nan nan nan nan nan nan nan
 nan nan nan nan nan nan nan nan nan nan nan nan nan nan nan nan nan nan
 nan nan nan nan nan nan nan nan nan nan nan nan nan nan nan nan nan nan
 nan nan nan nan nan nan nan nan nan nan nan nan nan nan nan nan nan nan
 nan nan nan nan nan nan nan nan nan nan nan nan nan nan nan nan nan nan
 nan nan nan nan nan nan nan nan nan nan nan nan nan nan]",,,6.421820000000002,
042,2,2,csm,7a.png,1,1,340,340,343,1,1,479,neu_feedback_onset,6,"[nan nan nan nan nan nan nan nan nan nan nan nan nan nan nan nan nan nan
 nan nan nan nan nan nan nan nan nan nan nan nan nan nan nan nan nan nan
 nan nan nan nan nan nan nan nan nan nan nan nan nan nan nan nan nan nan
 nan nan nan nan nan nan nan nan nan nan nan nan nan nan nan nan nan nan
 nan nan nan nan nan nan nan nan nan nan nan nan nan nan nan nan nan nan
 nan nan nan nan nan nan nan nan nan nan nan nan nan nan nan nan nan nan
 nan nan nan nan nan nan nan nan nan nan nan nan nan nan nan nan nan nan
 nan nan nan nan nan nan nan nan nan nan nan nan nan nan nan nan nan nan
 nan nan nan nan nan nan nan nan nan nan nan nan nan nan nan nan nan nan
 nan nan nan nan nan nan nan nan nan nan nan nan nan nan nan nan nan nan
 nan nan nan nan nan nan nan nan nan nan nan nan nan nan nan nan nan nan
 nan nan nan nan nan nan nan nan nan nan nan nan nan nan nan nan nan nan
 nan nan nan nan nan nan nan nan nan nan nan nan nan nan nan nan nan nan
 nan nan nan nan nan nan nan nan nan nan nan nan nan nan nan nan nan nan
 nan nan nan nan nan nan nan nan]","[nan nan nan nan nan nan nan nan nan nan nan nan nan nan nan nan nan nan
 nan nan nan nan nan nan nan nan nan nan nan nan nan nan nan nan nan nan
 nan nan nan nan nan nan nan nan nan nan nan nan nan nan nan nan nan nan
 nan nan nan nan nan nan nan nan nan nan nan nan nan nan nan nan nan nan
 nan nan nan nan nan nan nan nan nan nan nan nan nan nan nan nan nan nan
 nan nan nan nan nan nan nan nan nan nan nan nan nan nan nan nan nan nan
 nan nan nan nan nan nan nan nan nan nan nan nan nan nan nan nan nan nan
 nan nan nan nan nan nan nan nan nan nan nan nan nan nan]",,,6.509169999999999,
042,2,2,csm,63a.png,1,1,264,261,259,1,1,422,neu_feedback_onset,7,"[nan nan nan nan nan nan nan nan nan nan nan nan nan nan nan nan nan nan
 nan nan nan nan nan nan nan nan nan nan nan nan nan nan nan nan nan nan
 nan nan nan nan nan nan nan nan nan nan nan nan nan nan nan nan nan nan
 nan nan nan nan nan nan nan nan nan nan nan nan nan nan nan nan nan nan
 nan nan nan nan nan nan nan nan nan nan nan nan nan nan nan nan nan nan
 nan nan nan nan nan nan nan nan nan nan nan nan nan nan nan nan nan nan
 nan nan nan nan nan nan nan nan nan nan nan nan nan nan nan nan nan nan
 nan nan nan nan nan nan nan nan nan nan nan nan nan nan nan nan nan nan
 nan nan nan nan nan nan nan nan nan nan nan nan nan nan nan nan nan nan
 nan nan nan nan nan nan nan nan nan nan nan nan nan nan nan nan nan nan
 nan nan nan nan nan nan nan nan nan nan nan nan nan nan nan nan nan nan
 nan nan nan nan nan nan nan nan nan nan nan nan nan nan nan nan nan nan
 nan nan nan nan nan nan nan nan nan nan nan nan nan nan nan nan nan nan
 nan nan nan nan nan nan nan nan nan nan nan nan nan nan nan nan nan nan
 nan nan nan nan nan nan nan nan]","[nan nan nan nan nan nan nan nan nan nan nan nan nan nan nan nan nan nan
 nan nan nan nan nan nan nan nan nan nan nan nan nan nan nan nan nan nan
 nan nan nan nan nan nan nan nan nan nan nan nan nan nan nan nan nan nan
 nan nan nan nan nan nan nan nan nan nan nan nan nan nan nan nan nan nan
 nan nan nan nan nan nan nan nan nan nan nan nan nan nan nan nan nan nan
 nan nan nan nan nan nan nan nan nan nan nan nan nan nan nan nan nan nan
 nan nan nan nan nan nan nan nan nan nan nan nan nan nan nan nan nan nan
 nan nan nan nan nan nan nan nan nan nan nan nan nan nan]",,,7.170675,
042,2,2,csm,21a.png,1,1,56,37,61,1,1,410,neu_feedback_onset,8,"[nan nan nan nan nan nan nan nan nan nan nan nan nan nan nan nan nan nan
 nan nan nan nan nan nan nan nan nan nan nan nan nan nan nan nan nan nan
 nan nan nan nan nan nan nan nan nan nan nan nan nan nan nan nan nan nan
 nan nan nan nan nan nan nan nan nan nan nan nan nan nan nan nan nan nan
 nan nan nan nan nan nan nan nan nan nan nan nan nan nan nan nan nan nan
 nan nan nan nan nan nan nan nan nan nan nan nan nan nan nan nan nan nan
 nan nan nan nan nan nan nan nan nan nan nan nan nan nan nan nan nan nan
 nan nan nan nan nan nan nan nan nan nan nan nan nan nan nan nan nan nan
 nan nan nan nan nan nan nan nan nan nan nan nan nan nan nan nan nan nan
 nan nan nan nan nan nan nan nan nan nan nan nan nan nan nan nan nan nan
 nan nan nan nan nan nan nan nan nan nan nan nan nan nan nan nan nan nan
 nan nan nan nan nan nan nan nan nan nan nan nan nan nan nan nan nan nan
 nan nan nan nan nan nan nan nan nan nan nan nan nan nan nan nan nan nan
 nan nan nan nan nan nan nan nan nan nan nan nan nan nan nan nan nan nan
 nan nan nan nan nan nan nan nan]","[nan nan nan nan nan nan nan nan nan nan nan nan nan nan nan nan nan nan
 nan nan nan nan nan nan nan nan nan nan nan nan nan nan nan nan nan nan
 nan nan nan nan nan nan nan nan nan nan nan nan nan nan nan nan nan nan
 nan nan nan nan nan nan nan nan nan nan nan nan nan nan nan nan nan nan
 nan nan nan nan nan nan nan nan nan nan nan nan nan nan nan nan nan nan
 nan nan nan nan nan nan nan nan nan nan nan nan nan nan nan nan nan nan
 nan nan nan nan nan nan nan nan nan nan nan nan nan nan nan nan nan nan
 nan nan nan nan nan nan nan nan nan nan nan nan nan nan]",,,6.710405,
042,2,2,csp,25b.png,1,1,148,344,149,1,1,391,pos_feedback_onset,9,"[nan nan nan nan nan nan nan nan nan nan nan nan nan nan nan nan nan nan
 nan nan nan nan nan nan nan nan nan nan nan nan nan nan nan nan nan nan
 nan nan nan nan nan nan nan nan nan nan nan nan nan nan nan nan nan nan
 nan nan nan nan nan nan nan nan nan nan nan nan nan nan nan nan nan nan
 nan nan nan nan nan nan nan nan nan nan nan nan nan nan nan nan nan nan
 nan nan nan nan nan nan nan nan nan nan nan nan nan nan nan nan nan nan
 nan nan nan nan nan nan nan nan nan nan nan nan nan nan nan nan nan nan
 nan nan nan nan nan nan nan nan nan nan nan nan nan nan nan nan nan nan
 nan nan nan nan nan nan nan nan nan nan nan nan nan nan nan nan nan nan
 nan nan nan nan nan nan nan nan nan nan nan nan nan nan nan nan nan nan
 nan nan nan nan nan nan nan nan nan nan nan nan nan nan nan nan nan nan
 nan nan nan nan nan nan nan nan nan nan nan nan nan nan nan nan nan nan
 nan nan nan nan nan nan nan nan nan nan nan nan nan nan nan nan nan nan
 nan nan nan nan nan nan nan nan nan nan nan nan nan nan nan nan nan nan
 nan nan nan nan nan nan nan nan]","[nan nan nan nan nan nan nan nan nan nan nan nan nan nan nan nan nan nan
 nan nan nan nan nan nan nan nan nan nan nan nan nan nan nan nan nan nan
 nan nan nan nan nan nan nan nan nan nan nan nan nan nan nan nan nan nan
 nan nan nan nan nan nan nan nan nan nan nan nan nan nan nan nan nan nan
 nan nan nan nan nan nan nan nan nan nan nan nan nan nan nan nan nan nan
 nan nan nan nan nan nan nan nan nan nan nan nan nan nan nan nan nan nan
 nan nan nan nan nan nan nan nan nan nan nan nan nan nan nan nan nan nan
 nan nan nan nan nan nan nan nan nan nan nan nan nan nan]",,,6.928770000000002,-0.14985499999999963
042,2,2,csp,36b.png,1,1,172,176,170,1,1,359,pos_feedback_onset,10,"[nan nan nan nan nan nan nan nan nan nan nan nan nan nan nan nan nan nan
 nan nan nan nan nan nan nan nan nan nan nan nan nan nan nan nan nan nan
 nan nan nan nan nan nan nan nan nan nan nan nan nan nan nan nan nan nan
 nan nan nan nan nan nan nan nan nan nan nan nan nan nan nan nan nan nan
 nan nan nan nan nan nan nan nan nan nan nan nan nan nan nan nan nan nan
 nan nan nan nan nan nan nan nan nan nan nan nan nan nan nan nan nan nan
 nan nan nan nan nan nan nan nan nan nan nan nan nan nan nan nan nan nan
 nan nan nan nan nan nan nan nan nan nan nan nan nan nan nan nan nan nan
 nan nan nan nan nan nan nan nan nan nan nan nan nan nan nan nan nan nan
 nan nan nan nan nan nan nan nan nan nan nan nan nan nan nan nan nan nan
 nan nan nan nan nan nan nan nan nan nan nan nan nan nan nan nan nan nan
 nan nan nan nan nan nan nan nan nan nan nan nan nan nan nan nan nan nan
 nan nan nan nan nan nan nan nan nan nan nan nan nan nan nan nan nan nan
 nan nan nan nan nan nan nan nan nan nan nan nan nan nan nan nan nan nan
 nan nan nan nan nan nan nan nan]","[nan nan nan nan nan nan nan nan nan nan nan nan nan nan nan nan nan nan
 nan nan nan nan nan nan nan nan nan nan nan nan nan nan nan nan nan nan
 nan nan nan nan nan nan nan nan nan nan nan nan nan nan nan nan nan nan
 nan nan nan nan nan nan nan nan nan nan nan nan nan nan nan nan nan nan
 nan nan nan nan nan nan nan nan nan nan nan nan nan nan nan nan nan nan
 nan nan nan nan nan nan nan nan nan nan nan nan nan nan nan nan nan nan
 nan nan nan nan nan nan nan nan nan nan nan nan nan nan nan nan nan nan
 nan nan nan nan nan nan nan nan nan nan nan nan nan nan]",,,6.892545,0.4746250000000005
042,2,2,csm,54a.png,1,1,8,8,7,1,1,601,neu_feedback_onset,11,"[nan nan nan nan nan nan nan nan nan nan nan nan nan nan nan nan nan nan
 nan nan nan nan nan nan nan nan nan nan nan nan nan nan nan nan nan nan
 nan nan nan nan nan nan nan nan nan nan nan nan nan nan nan nan nan nan
 nan nan nan nan nan nan nan nan nan nan nan nan nan nan nan nan nan nan
 nan nan nan nan nan nan nan nan nan nan nan nan nan nan nan nan nan nan
 nan nan nan nan nan nan nan nan nan nan nan nan nan nan nan nan nan nan
 nan nan nan nan nan nan nan nan nan nan nan nan nan nan nan nan nan nan
 nan nan nan nan nan nan nan nan nan nan nan nan nan nan nan nan nan nan
 nan nan nan nan nan nan nan nan nan nan nan nan nan nan nan nan nan nan
 nan nan nan nan nan nan nan nan nan nan nan nan nan nan nan nan nan nan
 nan nan nan nan nan nan nan nan nan nan nan nan nan nan nan nan nan nan
 nan nan nan nan nan nan nan nan nan nan nan nan nan nan nan nan nan nan
 nan nan nan nan nan nan nan nan nan nan nan nan nan nan nan nan nan nan
 nan nan nan nan nan nan nan nan nan nan nan nan nan nan nan nan nan nan
 nan nan nan nan nan nan nan nan]","[nan nan nan nan nan nan nan nan nan nan nan nan nan nan nan nan nan nan
 nan nan nan nan nan nan nan nan nan nan nan nan nan nan nan nan nan nan
 nan nan nan nan nan nan nan nan nan nan nan nan nan nan nan nan nan nan
 nan nan nan nan nan nan nan nan nan nan nan nan nan nan nan nan nan nan
 nan nan nan nan nan nan nan nan nan nan nan nan nan nan nan nan nan nan
 nan nan nan nan nan nan nan nan nan nan nan nan nan nan nan nan nan nan
 nan nan nan nan nan nan nan nan nan nan nan nan nan nan nan nan nan nan
 nan nan nan nan nan nan nan nan nan nan nan nan nan nan]",,,6.915229999999999,
042,2,2,csp,23b.png,1,1,16,1,17,1,0,309,neg_feedback_onset,12,"[nan nan nan nan nan nan nan nan nan nan nan nan nan nan nan nan nan nan
 nan nan nan nan nan nan nan nan nan nan nan nan nan nan nan nan nan nan
 nan nan nan nan nan nan nan nan nan nan nan nan nan nan nan nan nan nan
 nan nan nan nan nan nan nan nan nan nan nan nan nan nan nan nan nan nan
 nan nan nan nan nan nan nan nan nan nan nan nan nan nan nan nan nan nan
 nan nan nan nan nan nan nan nan nan nan nan nan nan nan nan nan nan nan
 nan nan nan nan nan nan nan nan nan nan nan nan nan nan nan nan nan nan
 nan nan nan nan nan nan nan nan nan nan nan nan nan nan nan nan nan nan
 nan nan nan nan nan nan nan nan nan nan nan nan nan nan nan nan nan nan
 nan nan nan nan nan nan nan nan nan nan nan nan nan nan nan nan nan nan
 nan nan nan nan nan nan nan nan nan nan nan nan nan nan nan nan nan nan
 nan nan nan nan nan nan nan nan nan nan nan nan nan nan nan nan nan nan
 nan nan nan nan nan nan nan nan nan nan nan nan nan nan nan nan nan nan
 nan nan nan nan nan nan nan nan nan nan nan nan nan nan nan nan nan nan
 nan nan nan nan nan nan nan nan]","[nan nan nan nan nan nan nan nan nan nan nan nan nan nan nan nan nan nan
 nan nan nan nan nan nan nan nan nan nan nan nan nan nan nan nan nan nan
 nan nan nan nan nan nan nan nan nan nan nan nan nan nan nan nan nan nan
 nan nan nan nan nan nan nan nan nan nan nan nan nan nan nan nan nan nan
 nan nan nan nan nan nan nan nan nan nan nan nan nan nan nan nan nan nan
 nan nan nan nan nan nan nan nan nan nan nan nan nan nan nan nan nan nan
 nan nan nan nan nan nan nan nan nan nan nan nan nan nan nan nan nan nan
 nan nan nan nan nan nan nan nan nan nan nan nan nan nan]",,,6.752330000000001,
042,2,2,csp,12b.png,1,1,212,232,218,1,1,426,pos_feedback_onset,13,"[nan nan nan nan nan nan nan nan nan nan nan nan nan nan nan nan nan nan
 nan nan nan nan nan nan nan nan nan nan nan nan nan nan nan nan nan nan
 nan nan nan nan nan nan nan nan nan nan nan nan nan nan nan nan nan nan
 nan nan nan nan nan nan nan nan nan nan nan nan nan nan nan nan nan nan
 nan nan nan nan nan nan nan nan nan nan nan nan nan nan nan nan nan nan
 nan nan nan nan nan nan nan nan nan nan nan nan nan nan nan nan nan nan
 nan nan nan nan nan nan nan nan nan nan nan nan nan nan nan nan nan nan
 nan nan nan nan nan nan nan nan nan nan nan nan nan nan nan nan nan nan
 nan nan nan nan nan nan nan nan nan nan nan nan nan nan nan nan nan nan
 nan nan nan nan nan nan nan nan nan nan nan nan nan nan nan nan nan nan
 nan nan nan nan nan nan nan nan nan nan nan nan nan nan nan nan nan nan
 nan nan nan nan nan nan nan nan nan nan nan nan nan nan nan nan nan nan
 nan nan nan nan nan nan nan nan nan nan nan nan nan nan nan nan nan nan
 nan nan nan nan nan nan nan nan nan nan nan nan nan nan nan nan nan nan
 nan nan nan nan nan nan nan nan]","[nan nan nan nan nan nan nan nan nan nan nan nan nan nan nan nan nan nan
 nan nan nan nan nan nan nan nan nan nan nan nan nan nan nan nan nan nan
 nan nan nan nan nan nan nan nan nan nan nan nan nan nan nan nan nan nan
 nan nan nan nan nan nan nan nan nan nan nan nan nan nan nan nan nan nan
 nan nan nan nan nan nan nan nan nan nan nan nan nan nan nan nan nan nan
 nan nan nan nan nan nan nan nan nan nan nan nan nan nan nan nan nan nan
 nan nan nan nan nan nan nan nan nan nan nan nan nan nan nan nan nan nan
 nan nan nan nan nan nan nan nan nan nan nan nan nan nan]",,,6.7889800000000005,0.4479249999999997
042,2,2,csm,4a.png,1,1,352,320,355,1,1,302,neu_feedback_onset,14,"[nan nan nan nan nan nan nan nan nan nan nan nan nan nan nan nan nan nan
 nan nan nan nan nan nan nan nan nan nan nan nan nan nan nan nan nan nan
 nan nan nan nan nan nan nan nan nan nan nan nan nan nan nan nan nan nan
 nan nan nan nan nan nan nan nan nan nan nan nan nan nan nan nan nan nan
 nan nan nan nan nan nan nan nan nan nan nan nan nan nan nan nan nan nan
 nan nan nan nan nan nan nan nan nan nan nan nan nan nan nan nan nan nan
 nan nan nan nan nan nan nan nan nan nan nan nan nan nan nan nan nan nan
 nan nan nan nan nan nan nan nan nan nan nan nan nan nan nan nan nan nan
 nan nan nan nan nan nan nan nan nan nan nan nan nan nan nan nan nan nan
 nan nan nan nan nan nan nan nan nan nan nan nan nan nan nan nan nan nan
 nan nan nan nan nan nan nan nan nan nan nan nan nan nan nan nan nan nan
 nan nan nan nan nan nan nan nan nan nan nan nan nan nan nan nan nan nan
 nan nan nan nan nan nan nan nan nan nan nan nan nan nan nan nan nan nan
 nan nan nan nan nan nan nan nan nan nan nan nan nan nan nan nan nan nan
 nan nan nan nan nan nan nan nan]","[nan nan nan nan nan nan nan nan nan nan nan nan nan nan nan nan nan nan
 nan nan nan nan nan nan nan nan nan nan nan nan nan nan nan nan nan nan
 nan nan nan nan nan nan nan nan nan nan nan nan nan nan nan nan nan nan
 nan nan nan nan nan nan nan nan nan nan nan nan nan nan nan nan nan nan
 nan nan nan nan nan nan nan nan nan nan nan nan nan nan nan nan nan nan
 nan nan nan nan nan nan nan nan nan nan nan nan nan nan nan nan nan nan
 nan nan nan nan nan nan nan nan nan nan nan nan nan nan nan nan nan nan
 nan nan nan nan nan nan nan nan nan nan nan nan nan nan]",,,7.070485,
042,3,2,csm,29a.png,1,1,28,358,29,1,1,240,neu_feedback_onset,1,"[nan nan nan nan nan nan nan nan nan nan nan nan nan nan nan nan nan nan
 nan nan nan nan nan nan nan nan nan nan nan nan nan nan nan nan nan nan
 nan nan nan nan nan nan nan nan nan nan nan nan nan nan nan nan nan nan
 nan nan nan nan nan nan nan nan nan nan nan nan nan nan nan nan nan nan
 nan nan nan nan nan nan nan nan nan nan nan nan nan nan nan nan nan nan
 nan nan nan nan nan nan nan nan nan nan nan nan nan nan nan nan nan nan
 nan nan nan nan nan nan nan nan nan nan nan nan nan nan nan nan nan nan
 nan nan nan nan nan nan nan nan nan nan nan nan nan nan nan nan nan nan
 nan nan nan nan nan nan nan nan nan nan nan nan nan nan nan nan nan nan
 nan nan nan nan nan nan nan nan nan nan nan nan nan nan nan nan nan nan
 nan nan nan nan nan nan nan nan nan nan nan nan nan nan nan nan nan nan
 nan nan nan nan nan nan nan nan nan nan nan nan nan nan nan nan nan nan
 nan nan nan nan nan nan nan nan nan nan nan nan nan nan nan nan nan nan
 nan nan nan nan nan nan nan nan nan nan nan nan nan nan nan nan nan nan
 nan nan nan nan nan nan nan nan]","[nan nan nan nan nan nan nan nan nan nan nan nan nan nan nan nan nan nan
 nan nan nan nan nan nan nan nan nan nan nan nan nan nan nan nan nan nan
 nan nan nan nan nan nan nan nan nan nan nan nan nan nan nan nan nan nan
 nan nan nan nan nan nan nan nan nan nan nan nan nan nan nan nan nan nan
 nan nan nan nan nan nan nan nan nan nan nan nan nan nan nan nan nan nan
 nan nan nan nan nan nan nan nan nan nan nan nan nan nan nan nan nan nan
 nan nan nan nan nan nan nan nan nan nan nan nan nan nan nan nan nan nan
 nan nan nan nan nan nan nan nan nan nan nan nan nan nan]",,,6.957679999999999,
042,3,2,csp,45b.png,1,1,204,36,199,1,1,414,pos_feedback_onset,2,"[nan nan nan nan nan nan nan nan nan nan nan nan nan nan nan nan nan nan
 nan nan nan nan nan nan nan nan nan nan nan nan nan nan nan nan nan nan
 nan nan nan nan nan nan nan nan nan nan nan nan nan nan nan nan nan nan
 nan nan nan nan nan nan nan nan nan nan nan nan nan nan nan nan nan nan
 nan nan nan nan nan nan nan nan nan nan nan nan nan nan nan nan nan nan
 nan nan nan nan nan nan nan nan nan nan nan nan nan nan nan nan nan nan
 nan nan nan nan nan nan nan nan nan nan nan nan nan nan nan nan nan nan
 nan nan nan nan nan nan nan nan nan nan nan nan nan nan nan nan nan nan
 nan nan nan nan nan nan nan nan nan nan nan nan nan nan nan nan nan nan
 nan nan nan nan nan nan nan nan nan nan nan nan nan nan nan nan nan nan
 nan nan nan nan nan nan nan nan nan nan nan nan nan nan nan nan nan nan
 nan nan nan nan nan nan nan nan nan nan nan nan nan nan nan nan nan nan
 nan nan nan nan nan nan nan nan nan nan nan nan nan nan nan nan nan nan
 nan nan nan nan nan nan nan nan nan nan nan nan nan nan nan nan nan nan
 nan nan nan nan nan nan nan nan]","[nan nan nan nan nan nan nan nan nan nan nan nan nan nan nan nan nan nan
 nan nan nan nan nan nan nan nan nan nan nan nan nan nan nan nan nan nan
 nan nan nan nan nan nan nan nan nan nan nan nan nan nan nan nan nan nan
 nan nan nan nan nan nan nan nan nan nan nan nan nan nan nan nan nan nan
 nan nan nan nan nan nan nan nan nan nan nan nan nan nan nan nan nan nan
 nan nan nan nan nan nan nan nan nan nan nan nan nan nan nan nan nan nan
 nan nan nan nan nan nan nan nan nan nan nan nan nan nan nan nan nan nan
 nan nan nan nan nan nan nan nan nan nan nan nan nan nan]",,,6.852765,0.6889350000000007
042,3,2,csm,15a.png,1,1,260,255,257,1,1,286,neu_feedback_onset,3,"[ 4.22035860e-01  3.11718662e-01  2.08659174e-01  1.18663565e-01
  4.46349190e-02 -1.19752222e-02 -5.26184005e-02 -7.58430738e-02
 -8.60038684e-02 -8.45523263e-02 -7.72946159e-02 -6.56822792e-02
 -5.55214846e-02 -4.97153163e-02 -4.82637742e-02 -5.55214846e-02
 -7.14884475e-02 -9.32615788e-02 -1.22292420e-01 -1.55677888e-01
 -1.90514898e-01 -2.26803450e-01 -2.60188918e-01 -2.92122844e-01
 -3.19702144e-01 -3.44378359e-01 -3.67603032e-01 -3.87924621e-01
 -4.05343126e-01 -4.21310089e-01 -4.32922426e-01 -4.38728594e-01
 -4.32922426e-01 -4.14052379e-01 -3.79215369e-01 -3.24056770e-01
 -2.48576582e-01 -1.52774804e-01 -3.95545217e-02  8.67296394e-02
  2.24626137e-01  3.65425719e-01  5.03322217e-01  6.33961004e-01
  7.47181287e-01  8.40079980e-01  9.02496289e-01  9.34430215e-01
  9.30075589e-01  8.90883953e-01  8.16855307e-01  7.13795819e-01
  5.87511658e-01  4.46712076e-01  2.97203241e-01  1.46242865e-01
  2.54019864e-03 -1.31001673e-01 -2.52931208e-01 -3.61796864e-01
 -4.57598641e-01 -5.43239624e-01 -6.18719812e-01 -6.86942290e-01
 -7.50810142e-01 -8.10323367e-01 -8.68385051e-01 -9.23543650e-01
 -9.78702249e-01 -1.03386085e+00 -1.08756790e+00 -1.14272650e+00
 -1.19643356e+00 -1.25014062e+00 -1.30384768e+00 -1.35755473e+00
 -1.41271333e+00 -1.46642039e+00 -1.52012745e+00 -1.57383450e+00
 -1.62754156e+00 -1.68124862e+00 -1.73640722e+00 -1.79011427e+00
 -1.84382133e+00 -1.89752839e+00 -1.95123544e+00 -2.00639404e+00
 -2.06010110e+00 -2.11380816e+00 -2.16751521e+00 -2.22122227e+00
 -2.27492933e+00 -2.33008793e+00 -2.38379498e+00 -2.43750204e+00
 -2.49120910e+00 -2.54491616e+00 -2.59862321e+00 -2.65378181e+00
 -2.70748887e+00 -2.76119593e+00 -2.81490298e+00 -2.86861004e+00
 -2.92231710e+00 -2.97457261e+00 -3.02682813e+00 -3.07908364e+00
 -3.12988761e+00 -3.18069159e+00 -3.22859248e+00 -3.27504182e+00
 -3.32003963e+00 -3.36358589e+00 -3.40422907e+00 -3.44196916e+00
 -3.47680617e+00 -3.50583701e+00 -3.52906169e+00 -3.54502865e+00
 -3.55083482e+00 -3.54648019e+00 -3.53196477e+00 -3.50583701e+00
 -3.46954846e+00 -3.42455066e+00 -3.37229514e+00 -3.31423346e+00
 -3.25036561e+00 -3.18214313e+00 -3.10956603e+00 -3.03553738e+00
 -2.96150873e+00 -2.89183471e+00 -2.83377303e+00 -2.79458139e+00
 -2.78442060e+00 -2.81345144e+00 -2.88893163e+00 -3.02247350e+00
 -3.21552860e+00 -3.46809692e+00 -3.77872693e+00 -4.13870936e+00
 -4.53643189e+00 -4.95737910e+00 -5.38848709e+00 -5.81378892e+00
 -6.21731762e+00 -6.58891240e+00 -6.91550936e+00 -7.19275390e+00
 -7.41193676e+00 -7.57015484e+00 -7.66450508e+00 -7.69353592e+00
 -7.65434428e+00 -7.54838171e+00 -7.36984204e+00 -7.12307988e+00
 -6.80519217e+00 -6.42053351e+00 -5.97491010e+00 -5.47412808e+00
 -4.92834825e+00 -4.35208605e+00 -3.75550225e+00 -3.15746691e+00
 -2.57104391e+00 -2.01074867e+00 -1.48964506e+00 -1.01499080e+00
 -5.96946681e-01 -2.38415787e-01  6.06018819e-02  3.00106325e-01
  4.81549086e-01  6.09284789e-01  6.83313435e-01  7.06538108e-01
  6.80410351e-01  6.03478621e-01  4.80097544e-01  3.10267120e-01
  1.01245060e-01 -1.41162467e-01 -4.05343126e-01 -6.81136122e-01
 -9.58380660e-01 -1.22401286e+00 -1.47077501e+00 -1.69286095e+00
 -1.88591605e+00 -2.05139185e+00 -2.18928835e+00 -2.30541171e+00
 -2.39976195e+00 -2.48104830e+00 -2.55072232e+00 -2.61168709e+00
 -2.66829723e+00 -2.72055275e+00 -2.77135672e+00 -2.82070915e+00
 -2.87006158e+00 -2.91941401e+00 -2.96731490e+00 -3.01521579e+00
 -3.06311668e+00 -3.11246911e+00 -3.16037000e+00 -3.20827089e+00
 -3.25617178e+00 -3.30407266e+00 -3.35342509e+00 -3.40132598e+00
 -3.44922687e+00 -3.49712776e+00 -3.54502865e+00 -3.59438108e+00
 -3.64228197e+00 -3.69018286e+00 -3.73808375e+00 -3.78598464e+00
 -3.83533707e+00 -3.88323795e+00 -3.93113884e+00 -3.97903973e+00
 -4.02694062e+00 -4.07629305e+00 -4.12419394e+00 -4.17209483e+00
 -4.21999572e+00 -4.26789661e+00 -4.31724904e+00 -4.36514993e+00
 -4.41305081e+00 -4.46095170e+00 -4.50885259e+00 -4.55820502e+00
 -4.60610591e+00 -4.65400680e+00 -4.70190769e+00 -4.74980858e+00
 -4.79916101e+00 -4.84706190e+00 -4.89496279e+00 -4.94286367e+00
 -4.99076456e+00 -5.04011699e+00 -5.08801788e+00 -5.13591877e+00
 -5.18381966e+00 -5.23172055e+00 -5.28107298e+00 -5.32897387e+00
 -5.37687476e+00 -5.42477565e+00 -5.47267653e+00 -5.52202897e+00]","[nan nan nan nan nan nan nan nan nan nan nan nan nan nan nan nan nan nan
 nan nan nan nan nan nan nan nan nan nan nan nan nan nan nan nan nan nan
 nan nan nan nan nan nan nan nan nan nan nan nan nan nan nan nan nan nan
 nan nan nan nan nan nan nan nan nan nan nan nan nan nan nan nan nan nan
 nan nan nan nan nan nan nan nan nan nan nan nan nan nan nan nan nan nan
 nan nan nan nan nan nan nan nan nan nan nan nan nan nan nan nan nan nan
 nan nan nan nan nan nan nan nan nan nan nan nan nan nan nan nan nan nan
 nan nan nan nan nan nan nan nan nan nan nan nan nan nan]",0.012773570321761124,,6.889225000000001,0.5436700000000005
042,3,2,csm,53a.png,1,1,328,338,328,1,1,331,neu_feedback_onset,4,"[nan nan nan nan nan nan nan nan nan nan nan nan nan nan nan nan nan nan
 nan nan nan nan nan nan nan nan nan nan nan nan nan nan nan nan nan nan
 nan nan nan nan nan nan nan nan nan nan nan nan nan nan nan nan nan nan
 nan nan nan nan nan nan nan nan nan nan nan nan nan nan nan nan nan nan
 nan nan nan nan nan nan nan nan nan nan nan nan nan nan nan nan nan nan
 nan nan nan nan nan nan nan nan nan nan nan nan nan nan nan nan nan nan
 nan nan nan nan nan nan nan nan nan nan nan nan nan nan nan nan nan nan
 nan nan nan nan nan nan nan nan nan nan nan nan nan nan nan nan nan nan
 nan nan nan nan nan nan nan nan nan nan nan nan nan nan nan nan nan nan
 nan nan nan nan nan nan nan nan nan nan nan nan nan nan nan nan nan nan
 nan nan nan nan nan nan nan nan nan nan nan nan nan nan nan nan nan nan
 nan nan nan nan nan nan nan nan nan nan nan nan nan nan nan nan nan nan
 nan nan nan nan nan nan nan nan nan nan nan nan nan nan nan nan nan nan
 nan nan nan nan nan nan nan nan nan nan nan nan nan nan nan nan nan nan
 nan nan nan nan nan nan nan nan]","[nan nan nan nan nan nan nan nan nan nan nan nan nan nan nan nan nan nan
 nan nan nan nan nan nan nan nan nan nan nan nan nan nan nan nan nan nan
 nan nan nan nan nan nan nan nan nan nan nan nan nan nan nan nan nan nan
 nan nan nan nan nan nan nan nan nan nan nan nan nan nan nan nan nan nan
 nan nan nan nan nan nan nan nan nan nan nan nan nan nan nan nan nan nan
 nan nan nan nan nan nan nan nan nan nan nan nan nan nan nan nan nan nan
 nan nan nan nan nan nan nan nan nan nan nan nan nan nan nan nan nan nan
 nan nan nan nan nan nan nan nan nan nan nan nan nan nan]",,,6.663894999999999,0.20216999999999974
042,3,2,csp,13b.png,1,1,164,123,160,1,1,255,pos_feedback_onset,5,"[-1.85904014e-01 -2.45393299e-01 -2.90010262e-01 -3.18267672e-01
 -3.28678297e-01 -3.21242136e-01 -2.97446422e-01 -2.57291155e-01
 -2.03750799e-01 -1.41287051e-01 -7.28743735e-02 -1.48723211e-03
  7.13871414e-02  1.44261515e-01  2.15648656e-01  2.87035798e-01
  3.61397403e-01  4.38733473e-01  5.24992936e-01  6.20175791e-01
  7.27256503e-01  8.44747840e-01  9.72649801e-01  1.10650069e+00
  1.23886435e+00  1.36379185e+00  1.47087256e+00  1.55267033e+00
  1.60026175e+00  1.60472345e+00  1.56456818e+00  1.47682149e+00
  1.34297060e+00  1.16747721e+00  9.54803016e-01  7.13871414e-01
  4.53605794e-01  1.82929550e-01 -9.22083910e-02 -3.62884635e-01
 -6.20175791e-01 -8.61107393e-01 -1.08121775e+00 -1.27604515e+00
 -1.44410238e+00 -1.58538943e+00 -1.70139354e+00 -1.79211470e+00
 -1.86201460e+00 -1.91406773e+00 -1.94976130e+00 -1.97206978e+00
 -1.98694210e+00 -1.99437826e+00 -1.99883996e+00 -2.00181442e+00
 -2.00776335e+00 -2.01668674e+00 -2.03155907e+00 -2.05089308e+00
 -2.07766326e+00 -2.10889514e+00 -2.14607594e+00 -2.18771844e+00
 -2.23233540e+00 -2.27695236e+00 -2.32305656e+00 -2.36767352e+00
 -2.41229049e+00 -2.45542022e+00 -2.49557548e+00 -2.53573075e+00
 -2.57439879e+00 -2.61157959e+00 -2.64876039e+00 -2.68445396e+00
 -2.72014753e+00 -2.75584110e+00 -2.79153467e+00 -2.82722825e+00
 -2.86292182e+00 -2.89861539e+00 -2.93430896e+00 -2.97000253e+00
 -3.00569610e+00 -3.03990244e+00 -3.07559601e+00 -3.11128958e+00
 -3.14698315e+00 -3.18267672e+00 -3.21837029e+00 -3.25406386e+00
 -3.28827020e+00 -3.32396377e+00 -3.35965734e+00 -3.39535091e+00
 -3.43104448e+00 -3.46673805e+00 -3.50094439e+00 -3.53663796e+00
 -3.57233153e+00 -3.60802510e+00 -3.64223144e+00 -3.67792501e+00
 -3.71213135e+00 -3.74485046e+00 -3.77756957e+00 -3.80731421e+00
 -3.83557162e+00 -3.85936733e+00 -3.87870135e+00 -3.89208644e+00
 -3.89803537e+00 -3.89506090e+00 -3.88018858e+00 -3.85490564e+00
 -3.81623760e+00 -3.76418448e+00 -3.70320796e+00 -3.63182082e+00
 -3.55299752e+00 -3.47268698e+00 -3.39386368e+00 -3.32098931e+00
 -3.25703833e+00 -3.20498520e+00 -3.16482994e+00 -3.13805976e+00
 -3.12021297e+00 -3.10682788e+00 -3.09493003e+00 -3.07857047e+00
 -3.05031306e+00 -3.00718333e+00 -2.94620681e+00 -2.86589628e+00
 -2.76773896e+00 -2.65173486e+00 -2.52234566e+00 -2.38254584e+00
 -2.23828433e+00 -2.09104835e+00 -1.94678684e+00 -1.80847425e+00
 -1.67908505e+00 -1.56159372e+00 -1.45748747e+00 -1.37420247e+00
 -1.31322596e+00 -1.27753238e+00 -1.27307069e+00 -1.29984087e+00
 -1.35933015e+00 -1.45005131e+00 -1.57051711e+00 -1.71626586e+00
 -1.88283585e+00 -2.06279094e+00 -2.25018219e+00 -2.43757343e+00
 -2.62050298e+00 -2.79450914e+00 -2.95661744e+00 -3.10534065e+00
 -3.23770431e+00 -3.35668288e+00 -3.46376359e+00 -3.55894644e+00
 -3.64223144e+00 -3.71361858e+00 -3.77162064e+00 -3.81475037e+00
 -3.83854608e+00 -3.84449501e+00 -3.82813546e+00 -3.78946742e+00
 -3.72997814e+00 -3.65412930e+00 -3.56340814e+00 -3.46227636e+00
 -3.35817011e+00 -3.25406386e+00 -3.15441931e+00 -3.06369815e+00
 -2.98041315e+00 -2.90753878e+00 -2.84507503e+00 -2.79004744e+00
 -2.74245602e+00 -2.69932628e+00 -2.66065825e+00 -2.62496468e+00
 -2.59075834e+00 -2.55655200e+00 -2.52383289e+00 -2.49260102e+00
 -2.45988191e+00 -2.42716281e+00 -2.39444370e+00 -2.36321183e+00
 -2.33049272e+00 -2.29777361e+00 -2.26654174e+00 -2.23382263e+00
 -2.20110353e+00 -2.16987165e+00 -2.13715255e+00 -2.10443344e+00
 -2.07320156e+00 -2.04048246e+00 -2.00776335e+00 -1.97653148e+00
 -1.94381237e+00 -1.91109326e+00 -1.87986139e+00 -1.84714228e+00
 -1.81442318e+00 -1.78319130e+00 -1.75047220e+00 -1.71775309e+00
 -1.68652122e+00 -1.65380211e+00 -1.62108300e+00 -1.58985113e+00
 -1.55713202e+00 -1.52441292e+00 -1.49318104e+00 -1.46046193e+00
 -1.42774283e+00 -1.39651095e+00 -1.36379185e+00 -1.33107274e+00
 -1.29984087e+00 -1.26712176e+00 -1.23588989e+00 -1.20317078e+00
 -1.17045167e+00 -1.13921980e+00 -1.10650069e+00 -1.07378159e+00
 -1.04254971e+00 -1.00983060e+00 -9.77111498e-01 -9.45879623e-01
 -9.13160517e-01 -8.80441410e-01 -8.49209536e-01 -8.16490430e-01
 -7.83771323e-01 -7.52539449e-01 -7.19820342e-01 -6.87101236e-01
 -6.55869362e-01 -6.23150255e-01 -5.90431149e-01 -5.59199274e-01
 -5.26480168e-01 -4.93761061e-01 -4.62529187e-01 -4.29810080e-01]","[nan nan nan nan nan nan nan nan nan nan nan nan nan nan nan nan nan nan
 nan nan nan nan nan nan nan nan nan nan nan nan nan nan nan nan nan nan
 nan nan nan nan nan nan nan nan nan nan nan nan nan nan nan nan nan nan
 nan nan nan nan nan nan nan nan nan nan nan nan nan nan nan nan nan nan
 nan nan nan nan nan nan nan nan nan nan nan nan nan nan nan nan nan nan
 nan nan nan nan nan nan nan nan nan nan nan nan nan nan nan nan nan nan
 nan nan nan nan nan nan nan nan nan nan nan nan nan nan nan nan nan nan
 nan nan nan nan nan nan nan nan nan nan nan nan nan nan]",0.25271791668525057,,6.7239,0.17858000000000107
042,3,2,csm,65a.png,1,1,208,238,210,1,1,511,neu_feedback_onset,6,"[  0.23705783   0.31213095   0.36843579   0.40308493   0.4204095
   0.41752207   0.39586636   0.35688608   0.30058124   0.22695183
   0.14032899   0.04071273  -0.0661221   -0.17873178  -0.29278518
  -0.40395116  -0.5122297   -0.61762082  -0.72156822  -0.82695934
  -0.94101274  -1.06517213  -1.20809981  -1.36979577  -1.55170373
  -1.75237996  -1.96604962  -2.18693785  -2.40493866  -2.61572089
  -2.80917856  -2.98531165  -3.14123276  -3.28271672  -3.4155384
  -3.54547266  -3.67973805  -3.82844059  -3.99446769  -4.18070678
  -4.3900453   -4.62103953  -4.86935833  -5.13355798  -5.41075105
  -5.69805012  -5.98968033  -6.2870854   -6.5873779   -6.88767039
  -7.19085032  -7.49403024  -7.79721017  -8.10039009  -8.40357002
  -8.70674994  -9.00992986  -9.31166607  -9.61340229  -9.91225107
 -10.20821242 -10.49839892 -10.77992314 -11.04845393 -11.29532901
 -11.51332981 -11.69379405 -11.8237283  -11.89013915 -11.88436429
 -11.79629774 -11.62016464 -11.35452128 -11.0036988  -10.57780319
 -10.09271531  -9.56720344  -9.02147958  -8.47864314  -7.95890613
  -7.47814939  -7.05225378  -6.68843787  -6.3910328   -6.16003858
  -5.99256776  -5.87995807  -5.81354723  -5.78467296  -5.78322924
  -5.79911009  -5.82365323  -5.8510838   -5.87418322  -5.89006407
  -5.89728264  -5.8929515   -5.87707065  -5.8510838   -5.81787838
  -5.77745439  -5.73269925  -5.68216927  -5.63019557  -5.57677815
  -5.52191702  -5.46561218  -5.40930733  -5.35300249  -5.29669765
  -5.24039281  -5.18264425  -5.12633941  -5.07003456  -5.01228601
  -4.95598116  -4.89967632  -4.84337148  -4.78562292  -4.72931808
  -4.67301323  -4.61526468  -4.55895983  -4.50265499  -4.44490643
  -4.38860159  -4.33229675  -4.2759919   -4.21824335  -4.1619385
  -4.10563366  -4.0478851   -3.99158026  -3.93527542  -3.87752686
  -3.82122202  -3.76491717  -3.70861233  -3.65086377  -3.59455893
  -3.53825409  -3.48050553  -3.42420069  -3.36789584  -3.31014729
  -3.25239873  -3.19465017  -3.1354579   -3.07482192  -3.01274222
  -2.94633138  -2.87703311  -2.80051627  -2.71822458  -2.62582689
  -2.52621063  -2.41648837  -2.29954754  -2.17394443  -2.04401018
  -1.91407592  -1.78991652  -1.67441941  -1.57624686  -1.50261745
  -1.45930604  -1.45497489  -1.49106774  -1.57335944  -1.69896255
  -1.86787708  -2.07144074  -2.30243497  -2.54786634  -2.79474142
  -3.02862307  -3.23796159  -3.41265098  -3.54114152  -3.6219895
  -3.6537512   -3.63787035  -3.58300922  -3.4978301   -3.39099527
  -3.27694187  -3.1657759   -3.06904706  -2.99541765  -2.95210623
  -2.94200024  -2.9694308   -3.03439793  -3.13401419  -3.26539216
  -3.42131326  -3.59889007  -3.79090402  -3.99013655  -4.18936907
  -4.38715788  -4.57917183  -4.76396721  -4.9386566   -5.10757112
  -5.26782337  -5.42374447  -5.57389072  -5.72114954  -5.86696465
  -6.01133604  -6.15570743  -6.29863511  -6.44011908  -6.58304676
  -6.72597443  -6.8674584   -7.01038608  -7.15187004  -7.29479772
  -7.43628169  -7.57920936  -7.72213704  -7.86362101  -8.00654869
  -8.14803265  -8.29096033  -8.43244429  -8.57537197  -8.71829965
  -8.85978362  -9.00271129  -9.14419526  -9.28712294  -9.4286069
  -9.57009087  -9.71013112  -9.85017137  -9.98732419 -10.12158959
 -10.25008013 -10.37279581 -10.4854055  -10.58502176 -10.67164459
 -10.74094286 -10.79147285 -10.82179084 -10.83189684 -10.82612198
 -10.80302256 -10.76692971 -10.72073087 -10.66731345 -10.60523375
 -10.53593548 -10.45941865 -10.3713521  -10.27029212 -10.15190758]","[nan nan nan nan nan nan nan nan nan nan nan nan nan nan nan nan nan nan
 nan nan nan nan nan nan nan nan nan nan nan nan nan nan nan nan nan nan
 nan nan nan nan nan nan nan nan nan nan nan nan nan nan nan nan nan nan
 nan nan nan nan nan nan nan nan nan nan nan nan nan nan nan nan nan nan
 nan nan nan nan nan nan nan nan nan nan nan nan nan nan nan nan nan nan
 nan nan nan nan nan nan nan nan nan nan nan nan nan nan nan nan nan nan
 nan nan nan nan nan nan nan nan nan nan nan nan nan nan nan nan nan nan
 nan nan nan nan nan nan nan nan nan nan nan nan nan nan]",-0.19100335230372792,,6.9265799999999995,
042,3,2,csm,12a.png,1,1,256,250,250,1,1,365,neu_feedback_onset,7,"[nan nan nan nan nan nan nan nan nan nan nan nan nan nan nan nan nan nan
 nan nan nan nan nan nan nan nan nan nan nan nan nan nan nan nan nan nan
 nan nan nan nan nan nan nan nan nan nan nan nan nan nan nan nan nan nan
 nan nan nan nan nan nan nan nan nan nan nan nan nan nan nan nan nan nan
 nan nan nan nan nan nan nan nan nan nan nan nan nan nan nan nan nan nan
 nan nan nan nan nan nan nan nan nan nan nan nan nan nan nan nan nan nan
 nan nan nan nan nan nan nan nan nan nan nan nan nan nan nan nan nan nan
 nan nan nan nan nan nan nan nan nan nan nan nan nan nan nan nan nan nan
 nan nan nan nan nan nan nan nan nan nan nan nan nan nan nan nan nan nan
 nan nan nan nan nan nan nan nan nan nan nan nan nan nan nan nan nan nan
 nan nan nan nan nan nan nan nan nan nan nan nan nan nan nan nan nan nan
 nan nan nan nan nan nan nan nan nan nan nan nan nan nan nan nan nan nan
 nan nan nan nan nan nan nan nan nan nan nan nan nan nan nan nan nan nan
 nan nan nan nan nan nan nan nan nan nan nan nan nan nan nan nan nan nan
 nan nan nan nan nan nan nan nan]","[nan nan nan nan nan nan nan nan nan nan nan nan nan nan nan nan nan nan
 nan nan nan nan nan nan nan nan nan nan nan nan nan nan nan nan nan nan
 nan nan nan nan nan nan nan nan nan nan nan nan nan nan nan nan nan nan
 nan nan nan nan nan nan nan nan nan nan nan nan nan nan nan nan nan nan
 nan nan nan nan nan nan nan nan nan nan nan nan nan nan nan nan nan nan
 nan nan nan nan nan nan nan nan nan nan nan nan nan nan nan nan nan nan
 nan nan nan nan nan nan nan nan nan nan nan nan nan nan nan nan nan nan
 nan nan nan nan nan nan nan nan nan nan nan nan nan nan]",,,6.54669,0.5655900000000003
042,3,2,csp,66b.png,1,1,216,22,213,1,1,237,pos_feedback_onset,8,"[-0.52477433 -0.4576257  -0.39047708 -0.32489004 -0.25930301 -0.19371598
 -0.12969055 -0.06722671 -0.00632446  0.05145459  0.10454885  0.15139673
  0.19355982  0.22635334  0.25290047  0.27007803  0.2794476   0.2810092
  0.27632441  0.26695483  0.25290047  0.23416132  0.21386057  0.19199823
  0.16701269  0.14358875  0.11860321  0.09205608  0.06707055  0.04052342
  0.01397628 -0.01257085 -0.04067958 -0.06722671 -0.09533543 -0.12344416
 -0.15155289 -0.17810002 -0.20308556 -0.2249479  -0.24524865 -0.2639878
 -0.28272695 -0.3030277  -0.32957483 -0.36861473 -0.42327059 -0.50291199
 -0.60910051 -0.74964415 -0.92298131 -1.12911198 -1.36491297 -1.6241379
 -1.89897879 -2.18006607 -2.45178377 -2.70632392 -2.92963214 -3.11390047
 -3.24975932 -3.3340855  -3.36687902 -3.34970146 -3.28723762 -3.19041867
 -3.06705259 -2.92963214 -2.78752691 -2.64854487 -2.52517878 -2.42055185
 -2.33934886 -2.28313141 -2.24877629 -2.23472193 -2.23472193 -2.24409151
 -2.25502268 -2.26283066 -2.26126906 -2.25033789 -2.22535235 -2.18787405
 -2.14414936 -2.09573989 -2.0535768  -2.02234488 -2.00829051 -2.01766009
 -2.0504536  -2.10667106 -2.18006607 -2.26283066 -2.34559525 -2.41742866
 -2.46896133 -2.49082367 -2.4798925  -2.43460622 -2.35184163 -2.23784512
 -2.09417829 -1.92864912 -1.7428192  -1.54449651 -1.33524264 -1.1197424
 -0.89955737 -0.67781074 -0.45606411 -0.23275588 -0.01100925  0.20761419
  0.42311443  0.63392989  0.83849896  1.03213686  1.213282    1.37724958
  1.522478    1.6411593   1.73329346  1.79263411  1.81918124  1.81137326
  1.77389496  1.70986952  1.62710493  1.53340917  1.43971342  1.35382564
  1.28511541  1.23982913  1.22108998  1.23358275  1.27574584  1.34601766
  1.43971342  1.55214833  1.6786376   1.81293486  1.9503553   2.08621415
  2.21426502  2.33138472  2.43601165  2.52346103  2.59529444  2.64682711
  2.68118222  2.69679818  2.69523659  2.67805903  2.64682711  2.60466402
  2.55469295  2.4969139   2.43288846  2.36730143  2.29702961  2.22675779
  2.15492438  2.08309096  2.00969595  1.93786253  1.86446752  1.79107251
  1.7176775   1.64428249  1.57244907  1.49905406  1.42565905  1.35226404
  1.27886903  1.20547402  1.1336406   1.06024559  0.98685058  0.91345557
  0.84006056  0.76822714  0.69483213  0.62143712  0.54804211  0.4746471
  0.40125209  0.32941867  0.25602366  0.18262865  0.10923364  0.03583863
 -0.03599479 -0.1093898  -0.18278481 -0.25617982 -0.32957483 -0.40296984
 -0.47480326 -0.54819827 -0.62159328 -0.69498829 -0.7683833  -0.84021672
 -0.91361173 -0.98700674 -1.06040175 -1.13379676 -1.20719177 -1.27902519
 -1.3524202  -1.42581521 -1.49921022 -1.57260523 -1.64443865 -1.71783366
 -1.79122867 -1.86462368 -1.93801869 -2.00985211 -2.08324712 -2.15508054
 -2.22535235 -2.29406258 -2.35964961 -2.41899026 -2.47052292 -2.51268602
 -2.53923315 -2.54704113 -2.53454836 -2.49707006 -2.43460622 -2.34559525
 -2.23316033 -2.10042468 -1.95363465 -1.79591346 -1.63663067 -1.47734788
 -1.32431147 -1.17752145 -1.040101   -0.90736535 -0.77775288 -0.64657882
 -0.50915837 -0.36236835 -0.20308556 -0.0297484   0.15920471  0.36221219
  0.57771243  0.79945906  1.02589048  1.2523219   1.47563012  1.69113037
  1.90038423  2.09870692]","[nan nan nan nan nan nan nan nan nan nan nan nan nan nan nan nan nan nan
 nan nan nan nan nan nan nan nan nan nan nan nan nan nan nan nan nan nan
 nan nan nan nan nan nan nan nan nan nan nan nan nan nan nan nan nan nan
 nan nan nan nan nan nan nan nan nan nan nan nan nan nan nan nan nan nan
 nan nan nan nan nan nan nan nan nan nan nan nan nan nan nan nan nan nan
 nan nan nan nan nan nan nan nan nan nan nan nan nan nan nan nan nan nan
 nan nan nan nan nan nan nan nan nan nan nan nan nan nan nan nan nan nan
 nan nan nan nan nan nan nan nan nan nan nan nan nan nan]",2.0344082058745747,,6.4037049999999995,
042,3,2,csp,41b.png,1,1,300,303,299,1,1,278,pos_feedback_onset,9,"[nan nan nan nan nan nan nan nan nan nan nan nan nan nan nan nan nan nan
 nan nan nan nan nan nan nan nan nan nan nan nan nan nan nan nan nan nan
 nan nan nan nan nan nan nan nan nan nan nan nan nan nan nan nan nan nan
 nan nan nan nan nan nan nan nan nan nan nan nan nan nan nan nan nan nan
 nan nan nan nan nan nan nan nan nan nan nan nan nan nan nan nan nan nan
 nan nan nan nan nan nan nan nan nan nan nan nan nan nan nan nan nan nan
 nan nan nan nan nan nan nan nan nan nan nan nan nan nan nan nan nan nan
 nan nan nan nan nan nan nan nan nan nan nan nan nan nan nan nan nan nan
 nan nan nan nan nan nan nan nan nan nan nan nan nan nan nan nan nan nan
 nan nan nan nan nan nan nan nan nan nan nan nan nan nan nan nan nan nan
 nan nan nan nan nan nan nan nan nan nan nan nan nan nan nan nan nan nan
 nan nan nan nan nan nan nan nan nan nan nan nan nan nan nan nan nan nan
 nan nan nan nan nan nan nan nan nan nan nan nan nan nan nan nan nan nan
 nan nan nan nan nan nan nan nan nan nan nan nan nan nan nan nan nan nan
 nan nan nan nan nan nan nan nan]","[nan nan nan nan nan nan nan nan nan nan nan nan nan nan nan nan nan nan
 nan nan nan nan nan nan nan nan nan nan nan nan nan nan nan nan nan nan
 nan nan nan nan nan nan nan nan nan nan nan nan nan nan nan nan nan nan
 nan nan nan nan nan nan nan nan nan nan nan nan nan nan nan nan nan nan
 nan nan nan nan nan nan nan nan nan nan nan nan nan nan nan nan nan nan
 nan nan nan nan nan nan nan nan nan nan nan nan nan nan nan nan nan nan
 nan nan nan nan nan nan nan nan nan nan nan nan nan nan nan nan nan nan
 nan nan nan nan nan nan nan nan nan nan nan nan nan nan]",,,6.474424999999999,0.3616999999999999
042,3,2,csp,19b.png,1,1,96,314,96,1,1,319,pos_feedback_onset,10,"[-3.10504948e-01 -2.81614048e-01 -2.25276793e-01 -1.42937728e-01
 -4.32641228e-02  6.50767523e-02  1.67639447e-01  2.54312147e-01
  3.16427582e-01  3.43873937e-01  3.33762122e-01  2.87536682e-01
  2.10975797e-01  1.14191282e-01  7.29495225e-03 -9.67122878e-02
 -1.86274078e-01 -2.49834058e-01 -2.83058593e-01 -2.81614048e-01
 -2.46944968e-01 -1.83384988e-01 -9.81568328e-02  1.51677225e-03
  1.06968557e-01  2.10975797e-01  3.07760312e-01  3.94433012e-01
  4.69549353e-01  5.31664788e-01  5.83668408e-01  6.28449303e-01
  6.66007473e-01  6.99232008e-01  7.29567453e-01  7.58458353e-01
  7.85904708e-01  8.14795608e-01  8.43686508e-01  8.71132863e-01
  9.00023763e-01  9.28914663e-01  9.57805563e-01  9.86696463e-01
  1.01558736e+00  1.04447826e+00  1.07336916e+00  1.10226006e+00
  1.13115096e+00  1.16148641e+00  1.19037731e+00  1.21926821e+00
  1.24815911e+00  1.27849455e+00  1.30738545e+00  1.33772090e+00
  1.36950089e+00  1.40272542e+00  1.43739450e+00  1.47495267e+00
  1.51539993e+00  1.56018083e+00  1.60785081e+00  1.65840989e+00
  1.70896896e+00  1.75808349e+00  1.79997530e+00  1.82886620e+00
  1.84042256e+00  1.83031074e+00  1.79275257e+00  1.72630350e+00
  1.63240808e+00  1.51251084e+00  1.37238998e+00  1.21926821e+00
  1.06036826e+00  9.02912853e-01  7.52680173e-01  6.12559308e-01
  4.86883893e-01  3.74209382e-01  2.75980322e-01  1.89307622e-01
  1.12746737e-01  4.34085773e-02 -2.01514028e-02 -8.08222928e-02
 -1.40048638e-01 -1.97830438e-01 -2.57056783e-01 -3.17727673e-01
 -3.79843108e-01 -4.46292178e-01 -5.17074883e-01 -5.93635768e-01
 -6.75974833e-01 -7.64092078e-01 -8.60876593e-01 -9.63439288e-01
 -1.07178016e+00 -1.18445467e+00 -1.30290736e+00 -1.42280460e+00
 -1.54559092e+00 -1.66837725e+00 -1.79260812e+00 -1.91683899e+00
 -2.04106986e+00 -2.16818982e+00 -2.29675432e+00 -2.42820792e+00
 -2.56255060e+00 -2.69978238e+00 -2.83845870e+00 -2.97713502e+00
 -3.11436679e+00 -3.24582039e+00 -3.37005126e+00 -3.47983668e+00
 -3.57084301e+00 -3.64018117e+00 -3.67918389e+00 -3.68351752e+00
 -3.64884844e+00 -3.57084301e+00 -3.44950123e+00 -3.28482310e+00
 -3.08114226e+00 -2.84134779e+00 -2.57844060e+00 -2.29964341e+00
 -2.02084623e+00 -1.75360540e+00 -1.51381093e+00 -1.31301918e+00
 -1.16567559e+00 -1.07900289e+00 -1.06022380e+00 -1.11511651e+00
 -1.24368102e+00 -1.44158368e+00 -1.70593542e+00 -2.02806895e+00
 -2.39931702e+00 -2.80956780e+00 -3.25015402e+00 -3.70663024e+00
 -4.17321828e+00 -4.63547268e+00 -5.08617072e+00 -5.51375604e+00
 -5.91100592e+00 -6.26780853e+00 -6.58127480e+00 -6.84851562e+00
 -7.06953101e+00 -7.24865459e+00 -7.39166454e+00 -7.50867269e+00
 -7.61267993e+00 -7.71090899e+00 -7.81491623e+00 -7.93192437e+00
 -8.06482251e+00 -8.21505519e+00 -8.37684423e+00 -8.54441145e+00
 -8.70908958e+00 -8.86221135e+00 -8.99510949e+00 -9.09911673e+00
 -9.17134398e+00 -9.20890215e+00 -9.21468033e+00 -9.19156761e+00
 -9.14534217e+00 -9.08033765e+00 -9.00233222e+00 -8.91710406e+00
 -8.82754227e+00 -8.73653594e+00 -8.64408506e+00 -8.55163418e+00
 -8.45773875e+00 -8.36384333e+00 -8.26705881e+00 -8.17027430e+00
 -8.07204524e+00 -7.97237163e+00 -7.87125348e+00 -7.76869079e+00
 -7.66612809e+00 -7.56356540e+00 -7.45955816e+00 -7.35699546e+00
 -7.25298822e+00 -7.14898098e+00 -7.04497374e+00 -6.94241105e+00
 -6.83840381e+00 -6.73584111e+00 -6.63327842e+00 -6.53216027e+00
 -6.43393121e+00 -6.33714669e+00 -6.24614036e+00 -6.16091220e+00
 -6.08435132e+00 -6.01645770e+00 -5.96156499e+00 -5.92111773e+00
 -5.89367138e+00 -5.88211502e+00 -5.88355956e+00 -5.89656047e+00
 -5.91678410e+00 -5.94134136e+00 -5.96300954e+00 -5.97601044e+00
 -5.97456590e+00 -5.95145318e+00 -5.90233865e+00 -5.82288867e+00
 -5.71454780e+00 -5.57731602e+00 -5.41263789e+00 -5.22918068e+00
 -5.03272256e+00 -4.83193080e+00 -4.63691723e+00 -4.45779365e+00
 -4.30322733e+00 -4.18188555e+00 -4.10243558e+00 -4.07065559e+00
 -4.08799013e+00 -4.15588374e+00 -4.27144734e+00 -4.43034729e+00
 -4.62536087e+00 -4.85215443e+00 -5.10061617e+00 -5.36785700e+00
 -5.64376509e+00 -5.92545137e+00 -6.21002673e+00 -6.49026846e+00
 -6.76473201e+00 -7.02908375e+00 -7.27465640e+00 -7.49711633e+00
 -7.69068536e+00 -7.84525167e+00 -7.95792618e+00 -8.02293071e+00
 -8.04026525e+00 -8.01137435e+00 -7.94203619e+00 -7.83947349e+00]","[nan nan nan nan nan nan nan nan nan nan nan nan nan nan nan nan nan nan
 nan nan nan nan nan nan nan nan nan nan nan nan nan nan nan nan nan nan
 nan nan nan nan nan nan nan nan nan nan nan nan nan nan nan nan nan nan
 nan nan nan nan nan nan nan nan nan nan nan nan nan nan nan nan nan nan
 nan nan nan nan nan nan nan nan nan nan nan nan nan nan nan nan nan nan
 nan nan nan nan nan nan nan nan nan nan nan nan nan nan nan nan nan nan
 nan nan nan nan nan nan nan nan nan nan nan nan nan nan nan nan nan nan
 nan nan nan nan nan nan nan nan nan nan nan nan nan nan]",1.16582004291744,,6.922594999999999,0.6369399999999992
042,3,2,csm,2a.png,1,1,64,178,65,1,1,322,neu_feedback_onset,11,"[nan nan nan nan nan nan nan nan nan nan nan nan nan nan nan nan nan nan
 nan nan nan nan nan nan nan nan nan nan nan nan nan nan nan nan nan nan
 nan nan nan nan nan nan nan nan nan nan nan nan nan nan nan nan nan nan
 nan nan nan nan nan nan nan nan nan nan nan nan nan nan nan nan nan nan
 nan nan nan nan nan nan nan nan nan nan nan nan nan nan nan nan nan nan
 nan nan nan nan nan nan nan nan nan nan nan nan nan nan nan nan nan nan
 nan nan nan nan nan nan nan nan nan nan nan nan nan nan nan nan nan nan
 nan nan nan nan nan nan nan nan nan nan nan nan nan nan nan nan nan nan
 nan nan nan nan nan nan nan nan nan nan nan nan nan nan nan nan nan nan
 nan nan nan nan nan nan nan nan nan nan nan nan nan nan nan nan nan nan
 nan nan nan nan nan nan nan nan nan nan nan nan nan nan nan nan nan nan
 nan nan nan nan nan nan nan nan nan nan nan nan nan nan nan nan nan nan
 nan nan nan nan nan nan nan nan nan nan nan nan nan nan nan nan nan nan
 nan nan nan nan nan nan nan nan nan nan nan nan nan nan nan nan nan nan
 nan nan nan nan nan nan nan nan]","[nan nan nan nan nan nan nan nan nan nan nan nan nan nan nan nan nan nan
 nan nan nan nan nan nan nan nan nan nan nan nan nan nan nan nan nan nan
 nan nan nan nan nan nan nan nan nan nan nan nan nan nan nan nan nan nan
 nan nan nan nan nan nan nan nan nan nan nan nan nan nan nan nan nan nan
 nan nan nan nan nan nan nan nan nan nan nan nan nan nan nan nan nan nan
 nan nan nan nan nan nan nan nan nan nan nan nan nan nan nan nan nan nan
 nan nan nan nan nan nan nan nan nan nan nan nan nan nan nan nan nan nan
 nan nan nan nan nan nan nan nan nan nan nan nan nan nan]",,,6.8509150000000005,0.06557999999999709
042,3,2,csp,2b.png,1,1,252,251,250,1,1,334,pos_feedback_onset,12,"[nan nan nan nan nan nan nan nan nan nan nan nan nan nan nan nan nan nan
 nan nan nan nan nan nan nan nan nan nan nan nan nan nan nan nan nan nan
 nan nan nan nan nan nan nan nan nan nan nan nan nan nan nan nan nan nan
 nan nan nan nan nan nan nan nan nan nan nan nan nan nan nan nan nan nan
 nan nan nan nan nan nan nan nan nan nan nan nan nan nan nan nan nan nan
 nan nan nan nan nan nan nan nan nan nan nan nan nan nan nan nan nan nan
 nan nan nan nan nan nan nan nan nan nan nan nan nan nan nan nan nan nan
 nan nan nan nan nan nan nan nan nan nan nan nan nan nan nan nan nan nan
 nan nan nan nan nan nan nan nan nan nan nan nan nan nan nan nan nan nan
 nan nan nan nan nan nan nan nan nan nan nan nan nan nan nan nan nan nan
 nan nan nan nan nan nan nan nan nan nan nan nan nan nan nan nan nan nan
 nan nan nan nan nan nan nan nan nan nan nan nan nan nan nan nan nan nan
 nan nan nan nan nan nan nan nan nan nan nan nan nan nan nan nan nan nan
 nan nan nan nan nan nan nan nan nan nan nan nan nan nan nan nan nan nan
 nan nan nan nan nan nan nan nan]","[nan nan nan nan nan nan nan nan nan nan nan nan nan nan nan nan nan nan
 nan nan nan nan nan nan nan nan nan nan nan nan nan nan nan nan nan nan
 nan nan nan nan nan nan nan nan nan nan nan nan nan nan nan nan nan nan
 nan nan nan nan nan nan nan nan nan nan nan nan nan nan nan nan nan nan
 nan nan nan nan nan nan nan nan nan nan nan nan nan nan nan nan nan nan
 nan nan nan nan nan nan nan nan nan nan nan nan nan nan nan nan nan nan
 nan nan nan nan nan nan nan nan nan nan nan nan nan nan nan nan nan nan
 nan nan nan nan nan nan nan nan nan nan nan nan nan nan]",,,6.675075,0.022410000000000707
042,3,2,csm,1a.png,1,1,12,32,10,1,1,479,neu_feedback_onset,13,"[nan nan nan nan nan nan nan nan nan nan nan nan nan nan nan nan nan nan
 nan nan nan nan nan nan nan nan nan nan nan nan nan nan nan nan nan nan
 nan nan nan nan nan nan nan nan nan nan nan nan nan nan nan nan nan nan
 nan nan nan nan nan nan nan nan nan nan nan nan nan nan nan nan nan nan
 nan nan nan nan nan nan nan nan nan nan nan nan nan nan nan nan nan nan
 nan nan nan nan nan nan nan nan nan nan nan nan nan nan nan nan nan nan
 nan nan nan nan nan nan nan nan nan nan nan nan nan nan nan nan nan nan
 nan nan nan nan nan nan nan nan nan nan nan nan nan nan nan nan nan nan
 nan nan nan nan nan nan nan nan nan nan nan nan nan nan nan nan nan nan
 nan nan nan nan nan nan nan nan nan nan nan nan nan nan nan nan nan nan
 nan nan nan nan nan nan nan nan nan nan nan nan nan nan nan nan nan nan
 nan nan nan nan nan nan nan nan nan nan nan nan nan nan nan nan nan nan
 nan nan nan nan nan nan nan nan nan nan nan nan nan nan nan nan nan nan
 nan nan nan nan nan nan nan nan nan nan nan nan nan nan nan nan nan nan
 nan nan nan nan nan nan nan nan]","[nan nan nan nan nan nan nan nan nan nan nan nan nan nan nan nan nan nan
 nan nan nan nan nan nan nan nan nan nan nan nan nan nan nan nan nan nan
 nan nan nan nan nan nan nan nan nan nan nan nan nan nan nan nan nan nan
 nan nan nan nan nan nan nan nan nan nan nan nan nan nan nan nan nan nan
 nan nan nan nan nan nan nan nan nan nan nan nan nan nan nan nan nan nan
 nan nan nan nan nan nan nan nan nan nan nan nan nan nan nan nan nan nan
 nan nan nan nan nan nan nan nan nan nan nan nan nan nan nan nan nan nan
 nan nan nan nan nan nan nan nan nan nan nan nan nan nan]",,,6.8385050000000005,0.4369399999999999
042,3,2,csp,18b.png,1,1,276,270,268,1,1,337,pos_feedback_onset,14,"[nan nan nan nan nan nan nan nan nan nan nan nan nan nan nan nan nan nan
 nan nan nan nan nan nan nan nan nan nan nan nan nan nan nan nan nan nan
 nan nan nan nan nan nan nan nan nan nan nan nan nan nan nan nan nan nan
 nan nan nan nan nan nan nan nan nan nan nan nan nan nan nan nan nan nan
 nan nan nan nan nan nan nan nan nan nan nan nan nan nan nan nan nan nan
 nan nan nan nan nan nan nan nan nan nan nan nan nan nan nan nan nan nan
 nan nan nan nan nan nan nan nan nan nan nan nan nan nan nan nan nan nan
 nan nan nan nan nan nan nan nan nan nan nan nan nan nan nan nan nan nan
 nan nan nan nan nan nan nan nan nan nan nan nan nan nan nan nan nan nan
 nan nan nan nan nan nan nan nan nan nan nan nan nan nan nan nan nan nan
 nan nan nan nan nan nan nan nan nan nan nan nan nan nan nan nan nan nan
 nan nan nan nan nan nan nan nan nan nan nan nan nan nan nan nan nan nan
 nan nan nan nan nan nan nan nan nan nan nan nan nan nan nan nan nan nan
 nan nan nan nan nan nan nan nan nan nan nan nan nan nan nan nan nan nan
 nan nan nan nan nan nan nan nan]","[nan nan nan nan nan nan nan nan nan nan nan nan nan nan nan nan nan nan
 nan nan nan nan nan nan nan nan nan nan nan nan nan nan nan nan nan nan
 nan nan nan nan nan nan nan nan nan nan nan nan nan nan nan nan nan nan
 nan nan nan nan nan nan nan nan nan nan nan nan nan nan nan nan nan nan
 nan nan nan nan nan nan nan nan nan nan nan nan nan nan nan nan nan nan
 nan nan nan nan nan nan nan nan nan nan nan nan nan nan nan nan nan nan
 nan nan nan nan nan nan nan nan nan nan nan nan nan nan nan nan nan nan
 nan nan nan nan nan nan nan nan nan nan nan nan nan nan]",,,6.865130000000001,
042,4,2,csp,57b.png,1,1,100,104,98,1,1,273,pos_feedback_onset,1,"[nan nan nan nan nan nan nan nan nan nan nan nan nan nan nan nan nan nan
 nan nan nan nan nan nan nan nan nan nan nan nan nan nan nan nan nan nan
 nan nan nan nan nan nan nan nan nan nan nan nan nan nan nan nan nan nan
 nan nan nan nan nan nan nan nan nan nan nan nan nan nan nan nan nan nan
 nan nan nan nan nan nan nan nan nan nan nan nan nan nan nan nan nan nan
 nan nan nan nan nan nan nan nan nan nan nan nan nan nan nan nan nan nan
 nan nan nan nan nan nan nan nan nan nan nan nan nan nan nan nan nan nan
 nan nan nan nan nan nan nan nan nan nan nan nan nan nan nan nan nan nan
 nan nan nan nan nan nan nan nan nan nan nan nan nan nan nan nan nan nan
 nan nan nan nan nan nan nan nan nan nan nan nan nan nan nan nan nan nan
 nan nan nan nan nan nan nan nan nan nan nan nan nan nan nan nan nan nan
 nan nan nan nan nan nan nan nan nan nan nan nan nan nan nan nan nan nan
 nan nan nan nan nan nan nan nan nan nan nan nan nan nan nan nan nan nan
 nan nan nan nan nan nan nan nan nan nan nan nan nan nan nan nan nan nan
 nan nan nan nan nan nan nan nan]","[nan nan nan nan nan nan nan nan nan nan nan nan nan nan nan nan nan nan
 nan nan nan nan nan nan nan nan nan nan nan nan nan nan nan nan nan nan
 nan nan nan nan nan nan nan nan nan nan nan nan nan nan nan nan nan nan
 nan nan nan nan nan nan nan nan nan nan nan nan nan nan nan nan nan nan
 nan nan nan nan nan nan nan nan nan nan nan nan nan nan nan nan nan nan
 nan nan nan nan nan nan nan nan nan nan nan nan nan nan nan nan nan nan
 nan nan nan nan nan nan nan nan nan nan nan nan nan nan nan nan nan nan
 nan nan nan nan nan nan nan nan nan nan nan nan nan nan]",,,6.8653900000000005,0.06387500000000212
042,4,2,csm,64a.png,1,1,268,243,268,1,1,346,neu_feedback_onset,2,"[nan nan nan nan nan nan nan nan nan nan nan nan nan nan nan nan nan nan
 nan nan nan nan nan nan nan nan nan nan nan nan nan nan nan nan nan nan
 nan nan nan nan nan nan nan nan nan nan nan nan nan nan nan nan nan nan
 nan nan nan nan nan nan nan nan nan nan nan nan nan nan nan nan nan nan
 nan nan nan nan nan nan nan nan nan nan nan nan nan nan nan nan nan nan
 nan nan nan nan nan nan nan nan nan nan nan nan nan nan nan nan nan nan
 nan nan nan nan nan nan nan nan nan nan nan nan nan nan nan nan nan nan
 nan nan nan nan nan nan nan nan nan nan nan nan nan nan nan nan nan nan
 nan nan nan nan nan nan nan nan nan nan nan nan nan nan nan nan nan nan
 nan nan nan nan nan nan nan nan nan nan nan nan nan nan nan nan nan nan
 nan nan nan nan nan nan nan nan nan nan nan nan nan nan nan nan nan nan
 nan nan nan nan nan nan nan nan nan nan nan nan nan nan nan nan nan nan
 nan nan nan nan nan nan nan nan nan nan nan nan nan nan nan nan nan nan
 nan nan nan nan nan nan nan nan nan nan nan nan nan nan nan nan nan nan
 nan nan nan nan nan nan nan nan]","[nan nan nan nan nan nan nan nan nan nan nan nan nan nan nan nan nan nan
 nan nan nan nan nan nan nan nan nan nan nan nan nan nan nan nan nan nan
 nan nan nan nan nan nan nan nan nan nan nan nan nan nan nan nan nan nan
 nan nan nan nan nan nan nan nan nan nan nan nan nan nan nan nan nan nan
 nan nan nan nan nan nan nan nan nan nan nan nan nan nan nan nan nan nan
 nan nan nan nan nan nan nan nan nan nan nan nan nan nan nan nan nan nan
 nan nan nan nan nan nan nan nan nan nan nan nan nan nan nan nan nan nan
 nan nan nan nan nan nan nan nan nan nan nan nan nan nan]",,,6.736540000000002,0.4981050000000007
042,4,2,csm,18a.png,1,1,76,58,76,1,1,300,neu_feedback_onset,3,"[ 6.51005771e-01  5.83240798e-01  5.17015939e-01  4.50791079e-01
  3.83026106e-01  3.09100682e-01  2.32095031e-01  1.52009154e-01
  7.03831647e-02 -9.70271198e-03 -8.67083627e-02 -1.59093674e-01
 -2.25318534e-01 -2.83842828e-01 -3.37746784e-01 -3.82410061e-01
 -4.22453000e-01 -4.54795373e-01 -4.82517407e-01 -5.04078989e-01
 -5.21020232e-01 -5.33341137e-01 -5.42581815e-01 -5.48742267e-01
 -5.51822493e-01 -5.54902719e-01 -5.61063171e-01 -5.70303849e-01
 -5.85704979e-01 -6.10346787e-01 -6.45769387e-01 -6.93512890e-01
 -7.53577298e-01 -8.25962609e-01 -9.12208938e-01 -1.00769594e+00
 -1.11242363e+00 -1.22639199e+00 -1.34344058e+00 -1.46664962e+00
 -1.59293889e+00 -1.72076827e+00 -1.85013776e+00 -1.98104737e+00
 -2.11195698e+00 -2.24440669e+00 -2.37531630e+00 -2.50622591e+00
 -2.63867563e+00 -2.76958523e+00 -2.90203495e+00 -3.03294456e+00
 -3.16539428e+00 -3.29630388e+00 -3.42875360e+00 -3.55966321e+00
 -3.69211293e+00 -3.82302253e+00 -3.95547225e+00 -4.08638186e+00
 -4.21883158e+00 -4.34974118e+00 -4.48219090e+00 -4.61310051e+00
 -4.74555023e+00 -4.87799995e+00 -5.00890955e+00 -5.14135927e+00
 -5.27226888e+00 -5.40317849e+00 -5.53562820e+00 -5.66499770e+00
 -5.79590730e+00 -5.92373668e+00 -6.04848584e+00 -6.16861465e+00
 -6.28104290e+00 -6.38115025e+00 -6.46585646e+00 -6.52746099e+00
 -6.55672313e+00 -6.54748245e+00 -6.49049827e+00 -6.37652991e+00
 -6.20249714e+00 -5.96531974e+00 -5.66499770e+00 -5.30769148e+00
 -4.90572198e+00 -4.47295023e+00 -4.02631745e+00 -3.58430502e+00
 -3.16539428e+00 -2.78344625e+00 -2.45232195e+00 -2.17664172e+00
 -1.96102590e+00 -1.80239426e+00 -1.69920669e+00 -1.64222251e+00
 -1.62528126e+00 -1.64068239e+00 -1.67918522e+00 -1.73462929e+00
 -1.80239426e+00 -1.87939991e+00 -1.96256601e+00 -2.04727223e+00
 -2.13505867e+00 -2.22438523e+00 -2.31217167e+00 -2.39995811e+00
 -2.48620444e+00 -2.56937054e+00 -2.64791630e+00 -2.72030162e+00
 -2.78190614e+00 -2.83118975e+00 -2.86199201e+00 -2.87123269e+00
 -2.85583156e+00 -2.81116828e+00 -2.73416263e+00 -2.62789483e+00
 -2.49390500e+00 -2.33681348e+00 -2.16586093e+00 -1.99028805e+00
 -1.82087562e+00 -1.66840443e+00 -1.54519539e+00 -1.45894906e+00
 -1.41274567e+00 -1.40966544e+00 -1.44662815e+00 -1.51593324e+00
 -1.61142025e+00 -1.72230838e+00 -1.83473663e+00 -1.94254454e+00
 -2.03187110e+00 -2.09809596e+00 -2.13813890e+00 -2.14583946e+00
 -2.12581799e+00 -2.07653438e+00 -2.00260895e+00 -1.90558183e+00
 -1.79315358e+00 -1.66532420e+00 -1.52671403e+00 -1.38040329e+00
 -1.22639199e+00 -1.06776035e+00 -9.06048486e-01 -7.39716280e-01
 -5.70303849e-01 -3.97811191e-01 -2.23778421e-01 -4.97456503e-02
  1.24287120e-01  2.92159439e-01  4.50791079e-01  5.98641928e-01
  7.29551534e-01  8.37359445e-01  9.22065661e-01  9.77509730e-01
  1.00061142e+00  9.91370747e-01  9.51327808e-01  8.80482610e-01
  7.84995603e-01  6.67947014e-01  5.38577521e-01  4.01507463e-01
  2.65977517e-01  1.35067911e-01  1.49390962e-02 -8.97885887e-02
 -1.80655256e-01 -2.56120794e-01 -3.17725315e-01 -3.67008931e-01
 -4.07051869e-01 -4.40934356e-01 -4.67116277e-01 -4.90217972e-01
 -5.11779554e-01 -5.30260911e-01 -5.48742267e-01 -5.67223623e-01
 -5.84164866e-01 -6.01106109e-01 -6.18047352e-01 -6.34988595e-01
 -6.51929839e-01 -6.68871082e-01 -6.85812325e-01 -7.02753568e-01
 -7.19694811e-01 -7.38176167e-01 -7.55117411e-01 -7.72058654e-01
 -7.90540010e-01 -8.09021366e-01 -8.29042835e-01 -8.49064304e-01
 -8.72166000e-01 -8.96807808e-01 -9.26069955e-01 -9.56872215e-01
 -9.93834928e-01 -1.03387787e+00 -1.08008126e+00 -1.13244510e+00
 -1.19250951e+00 -1.26027448e+00 -1.34036036e+00 -1.43276714e+00
 -1.54365527e+00 -1.67764511e+00 -1.83781686e+00 -2.03033099e+00
 -2.25980782e+00 -2.52778749e+00 -2.83735020e+00 -3.18541575e+00
 -3.57044400e+00 -3.98781463e+00 -4.42828695e+00 -4.88724063e+00
 -5.35389487e+00 -5.81592877e+00 -6.26410166e+00 -6.68609263e+00
 -7.07112088e+00 -7.40994574e+00 -7.69332654e+00 -7.91818304e+00
 -8.08297513e+00 -8.18924293e+00 -8.24468700e+00 -8.26008813e+00
 -8.25084745e+00 -8.23544632e+00 -8.22928586e+00 -8.24776722e+00
 -8.30629152e+00 -8.41101920e+00 -8.56503050e+00 -8.76062485e+00
 -8.99010169e+00 -9.23497966e+00 -9.47677741e+00 -9.69547345e+00
 -9.87104634e+00 -9.98963504e+00 -1.00373785e+01 -1.00081164e+01]","[nan nan nan nan nan nan nan nan nan nan nan nan nan nan nan nan nan nan
 nan nan nan nan nan nan nan nan nan nan nan nan nan nan nan nan nan nan
 nan nan nan nan nan nan nan nan nan nan nan nan nan nan nan nan nan nan
 nan nan nan nan nan nan nan nan nan nan nan nan nan nan nan nan nan nan
 nan nan nan nan nan nan nan nan nan nan nan nan nan nan nan nan nan nan
 nan nan nan nan nan nan nan nan nan nan nan nan nan nan nan nan nan nan
 nan nan nan nan nan nan nan nan nan nan nan nan nan nan nan nan nan nan
 nan nan nan nan nan nan nan nan nan nan nan nan nan nan]",-0.07496500093172807,,6.493029999999997,0.3166349999999998
042,4,2,csp,35b.png,1,1,304,311,303,1,1,309,pos_feedback_onset,4,"[ 1.62460739e-01  1.87010361e-01  2.10115889e-01  2.30333225e-01
  2.43330084e-01  2.47662370e-01  2.38997798e-01  2.17336366e-01
  1.82678075e-01  1.35022925e-01  7.72591068e-02  1.08307159e-02
 -5.99299614e-02 -1.30690639e-01 -2.00007220e-01 -2.63547420e-01
 -3.18423048e-01 -3.63190007e-01 -3.94960107e-01 -4.12289252e-01
 -4.18065634e-01 -4.12289252e-01 -3.94960107e-01 -3.68966389e-01
 -3.37196289e-01 -2.98205711e-01 -2.57771039e-01 -2.14448175e-01
 -1.71125311e-01 -1.29246543e-01 -8.88118705e-02 -5.12653886e-02
 -1.94952886e-02  6.49842955e-03  2.38275750e-02  3.10480523e-02
  2.52716705e-02  3.61023864e-03 -3.68244341e-02 -9.74764432e-02
 -1.79789884e-01 -2.86652948e-01 -4.16621539e-01 -5.69695657e-01
 -7.44431207e-01 -9.40828189e-01 -1.15166613e+00 -1.37838911e+00
 -1.61666486e+00 -1.86216109e+00 -2.11487779e+00 -2.37192678e+00
 -2.63186397e+00 -2.89468934e+00 -3.15751471e+00 -3.42178418e+00
 -3.68605365e+00 -3.95032312e+00 -4.21603668e+00 -4.48030615e+00
 -4.74457562e+00 -5.01028918e+00 -5.27455865e+00 -5.53882812e+00
 -5.80309758e+00 -6.06736705e+00 -6.32874833e+00 -6.58868551e+00
 -6.84284631e+00 -7.09123073e+00 -7.32950648e+00 -7.55189718e+00
 -7.75118235e+00 -7.92302971e+00 -8.05588649e+00 -8.14253222e+00
 -8.17430232e+00 -8.14686451e+00 -8.05733059e+00 -7.90570057e+00
 -7.69919492e+00 -7.44503412e+00 -7.15910322e+00 -6.85295498e+00
 -6.54391855e+00 -6.24354670e+00 -5.96339218e+00 -5.71067548e+00
 -5.48972887e+00 -5.30055237e+00 -5.14170187e+00 -5.01028918e+00
 -4.90053793e+00 -4.80955991e+00 -4.73157876e+00 -4.66226218e+00
 -4.60016607e+00 -4.54095816e+00 -4.48319434e+00 -4.42543052e+00
 -4.36622261e+00 -4.30557060e+00 -4.24203040e+00 -4.17704610e+00
 -4.10917362e+00 -4.03985703e+00 -3.96909636e+00 -3.89689158e+00
 -3.82468681e+00 -3.75103794e+00 -3.67738908e+00 -3.60374021e+00
 -3.52864724e+00 -3.45499838e+00 -3.37990541e+00 -3.30625654e+00
 -3.23116358e+00 -3.15751471e+00 -3.08386584e+00 -3.01021698e+00
 -2.93801220e+00 -2.86725153e+00 -2.79793494e+00 -2.73150655e+00
 -2.67085454e+00 -2.61597892e+00 -2.57265605e+00 -2.54088595e+00
 -2.52788909e+00 -2.53799776e+00 -2.57410015e+00 -2.64341673e+00
 -2.74739160e+00 -2.89035705e+00 -3.06798079e+00 -3.28170692e+00
 -3.52142677e+00 -3.78280804e+00 -4.05429799e+00 -4.32867613e+00
 -4.59583378e+00 -4.85143868e+00 -5.09115853e+00 -5.31066103e+00
 -5.51427849e+00 -5.70201090e+00 -5.87674645e+00 -6.04137333e+00
 -6.19733564e+00 -6.34896567e+00 -6.49626340e+00 -6.64067295e+00
 -6.78363840e+00 -6.92371566e+00 -7.06234882e+00 -7.19953789e+00
 -7.33672696e+00 -7.47247193e+00 -7.60821690e+00 -7.74396188e+00
 -7.87826275e+00 -8.01256363e+00 -8.14830860e+00 -8.28260948e+00
 -8.41691036e+00 -8.55265533e+00 -8.68695621e+00 -8.82125709e+00
 -8.95555796e+00 -9.09130294e+00 -9.22560381e+00 -9.35990469e+00
 -9.49420557e+00 -9.62995054e+00 -9.76425142e+00 -9.89855229e+00
 -1.00342973e+01 -1.01685981e+01 -1.03028990e+01 -1.04371999e+01
