sub,run,cat_cond,trial_type,picture,old,response_old,target_pos,response_pos,dot_resp_loc,cat_corr,TN_corr,TN_rt,feedback_type,trial,SP_timeseries,FB_timeseries,SP_peak_response,FB_peak_response,preStim_bl,anticipation
055,1,2,csp,24b.png,1,1,88,90,88,1,1,387,pos_feedback_onset,1,"[ 0.45358027  0.45717014  0.46255495  0.46614482  0.46614482  0.46255495
  0.4499904   0.42665623  0.38896258  0.33511451  0.26331708  0.16818548
  0.05151466 -0.09028527 -0.2572143  -0.44568255 -0.65569004 -0.88544181
 -1.12955308 -1.38802383 -1.65367432 -1.92650456 -2.20112973 -2.47395997
 -2.73781553 -2.99269641 -3.22783299 -3.43963541 -3.61912899 -3.75733904
 -3.84888077 -3.88836935 -3.87042    -3.79503269 -3.66579732 -3.48809868
 -3.27091145 -3.02321031 -2.75755982 -2.48293465 -2.21010441 -1.94804379
 -1.70213759 -1.47418075 -1.26955807 -1.08826956 -0.93211014 -0.79748996
 -0.68799888 -0.59825209 -0.53004453 -0.48158127 -0.44747749 -0.42773319
 -0.41875851 -0.41875851 -0.42414332 -0.433118   -0.44388762 -0.45645217
 -0.46542684 -0.47440152 -0.47978633 -0.4833762  -0.48158127 -0.4779914
 -0.46901672 -0.4582471  -0.44209268 -0.42234839 -0.39721929 -0.36670538
 -0.33080666 -0.29131808 -0.24823962 -0.20157129 -0.15310802 -0.10643969
 -0.06336123 -0.02207771  0.01023113  0.03715517  0.05330959  0.06048934
  0.05689946  0.04253998  0.01382101 -0.02746252 -0.08310553 -0.15669789
 -0.24823962 -0.36132057 -0.49594075 -0.65030523 -0.82620893 -1.020062
 -1.23186442 -1.45623139 -1.69136797 -1.93188937 -2.17241076 -2.40934228
 -2.63729912 -2.84730661 -3.03218499 -3.18654947 -3.29963042 -3.36783798
 -3.3839924  -3.34450382 -3.24757729 -3.09141787 -2.87961545 -2.61396496
 -2.29805626 -1.93727417 -1.53879843 -1.10621891 -0.65210016 -0.18541686
  0.27408669  0.71205102  1.11052676  1.44797468  1.71003531  1.88414408
  1.96671112  1.95594151  1.8554251   1.67772646  1.4336152   1.13924573
  0.81077249  0.46076001  0.10356779 -0.24464975 -0.57671286 -0.87826207
 -1.14211763 -1.36468966 -1.54059337 -1.67341862 -1.76316541 -1.81521854
 -1.83855271 -1.83855271 -1.82419322 -1.80085906 -1.77393502 -1.74521605
 -1.71649708 -1.6877781  -1.65726419 -1.62675029 -1.59264651 -1.55854273
 -1.52443895 -1.4921301  -1.46520607 -1.44366684 -1.43110229 -1.42930735
 -1.4418719  -1.467001   -1.50469465 -1.55674779 -1.62136548 -1.69854772
 -1.78470463 -1.87983623 -1.98214757 -2.08804878 -2.19753986 -2.30703094
 -2.41472709 -2.51703843 -2.6157599  -2.70730162 -2.78986866 -2.86346103
 -2.92628378 -2.98013186 -3.02321031 -3.05372422 -3.07526345 -3.08603307
 -3.08603307 -3.07526345 -3.05372422 -3.02500525 -2.9873116  -2.9424382
 -2.89218    -2.83653699 -2.77730411 -2.71448136 -2.64986367 -2.58524599
 -2.51883336 -2.45242074 -2.38600812 -2.31959549 -2.25497781 -2.18856518
 -2.12215256 -2.05753487 -1.99291718 -1.93009443 -1.86727168 -1.80983374
 -1.75419073 -1.70572746 -1.66444394 -1.63393003 -1.6123908  -1.60700599
 -1.61418574 -1.6375199  -1.67700849 -1.73085656 -1.79547425 -1.87265649
 -1.95522353 -2.04138045 -2.12574243 -2.2047196  -2.27113223 -2.32318536
 -2.35369927 -2.35908408 -2.33754485 -2.28728665 -2.21369428 -2.11676775
 -2.00189186 -1.87804129 -1.75060085 -1.62675029 -1.51366933 -1.4167428
 -1.33597069 -1.27494288 -1.23545429 -1.21391506 -1.21032519 -1.2210948
 -1.2462239  -1.28032768 -1.32340614 -1.37186941 -1.42751242 -1.48495036
 -1.54597818 -1.60700599 -1.66982875 -1.73444643 -1.79906412 -1.86188687
 -1.92650456 -1.99112225]","[-0.91255325 -0.80685902 -0.70474764 -0.60801055 -0.51306488 -0.42170207
 -0.33392212 -0.24435073 -0.15657078 -0.06520797  0.02615484  0.12110051
  0.2178376   0.31636612  0.4184775   0.52238031  0.62628311  0.73197734
  0.839463    0.94694866  1.05443432  1.16191998  1.26940564  1.37868273
  1.48616839  1.59365405  1.70113971  1.80862537  1.9143196   2.02001383
  2.12391663  2.22244516  2.31739082  2.40517078  2.48399359  2.55206784
  2.60581067  2.64163923  2.65776208  2.65238779  2.62372495  2.57177355
  2.49474216  2.39442221  2.27260513  2.13108234  1.97343671  1.80325108
  1.62052546  1.43242556  1.2407428   1.04906004  0.85916871  0.67286023
  0.49192604  0.31636612  0.14797192 -0.01146514 -0.16731934 -0.31421641
 -0.45753062 -0.59726198 -0.73341048 -0.86597613 -0.99495892 -1.12215029
 -1.2457588  -1.36578445 -1.47864439 -1.58613005 -1.68645    -1.77781281
 -1.86021848 -1.93187559 -1.99636698 -2.05010981 -2.09668693 -2.13609834
 -2.17013547 -2.19700688 -2.22208687 -2.24179257 -2.25970685 -2.27224684
 -2.28299541 -2.29016112 -2.29374398 -2.29195255 -2.28836969 -2.28120398
 -2.27224684 -2.26149828 -2.25074971 -2.243584   -2.23820972 -2.24000115
 -2.24716686 -2.26508113 -2.29016112 -2.32598967 -2.37077537 -2.42272677
 -2.48184388 -2.54633528 -2.61440953 -2.68069235 -2.74697517 -2.80788371
 -2.86341797 -2.91178652 -2.9494065  -2.97806934 -2.99777505 -3.00673219
 -3.00673219 -2.99956647 -2.98523505 -2.96732078 -2.94582364 -2.92253509
 -2.89924653 -2.87595797 -2.85446083 -2.83117227 -2.80967514 -2.78817801
 -2.76309802 -2.73443518 -2.70218948 -2.66277807 -2.61620096 -2.5606667
 -2.49796673 -2.42810105 -2.35106966 -2.27045542 -2.18446689 -2.09847836
 -2.01428126 -1.93545844]",-0.7269938595247512,1.698049493563385,5.571230000000001,-0.011760000000000659
055,1,2,csm,12a.png,1,1,224,238,226,1,1,658,neu_feedback_onset,2,"[-1.42307643e-01 -1.16797950e-01 -8.94661368e-02 -5.84900813e-02
 -2.75140258e-02  1.63990882e-03  2.71496016e-02  4.71929316e-02
  6.35920198e-02  7.08805035e-02  7.27026244e-02  6.90583826e-02
  5.81256571e-02  4.17265689e-02  2.53274807e-02  8.92839247e-03
 -5.64857483e-03 -1.65813003e-02 -1.84034212e-02 -1.11149376e-02
  7.10627156e-03  3.62602062e-02  7.63468662e-02  1.29188373e-01
  1.92962605e-01  2.65847441e-01  3.47842882e-01  4.35304686e-01
  5.26410732e-01  6.21161019e-01  7.17733427e-01  8.12483715e-01
  9.07234002e-01  9.96517927e-01  1.08033549e+00  1.15504245e+00
  1.22063880e+00  1.27348031e+00  1.30992272e+00  1.32632181e+00
  1.32085545e+00  1.28987939e+00  1.22974940e+00  1.14046548e+00
  1.01656126e+00  8.61680979e-01  6.75824646e-01  4.57170137e-01
  2.13005935e-01 -5.66679604e-02 -3.42740944e-01 -6.41568773e-01
 -9.44040845e-01 -1.24286867e+00 -1.52711954e+00 -1.78768283e+00
 -2.01544794e+00 -2.19948215e+00 -2.33067486e+00 -2.40720394e+00
 -2.42360303e+00 -2.38351637e+00 -2.29423244e+00 -2.16121761e+00
 -1.99904885e+00 -1.82048100e+00 -1.63826891e+00 -1.46334530e+00
 -1.30299866e+00 -1.16269535e+00 -1.04607962e+00 -9.53151449e-01
 -8.83910855e-01 -8.40179953e-01 -8.18314502e-01 -8.18314502e-01
 -8.40179953e-01 -8.87555096e-01 -9.56795691e-01 -1.04972386e+00
 -1.16633960e+00 -1.30299866e+00 -1.45787894e+00 -1.62733619e+00
 -1.80954828e+00 -1.99904885e+00 -2.19401579e+00 -2.39080485e+00
 -2.58759391e+00 -2.78438297e+00 -2.97934990e+00 -3.16885048e+00
 -3.35835105e+00 -3.54238527e+00 -3.72095312e+00 -3.89405460e+00
 -4.05986760e+00 -4.21657000e+00 -4.35869543e+00 -4.48806602e+00
 -4.59739327e+00 -4.68667720e+00 -4.75409567e+00 -4.79600445e+00
 -4.81240354e+00 -4.80693718e+00 -4.77778324e+00 -4.72858598e+00
 -4.66298963e+00 -4.58463843e+00 -4.49717662e+00 -4.40242634e+00
 -4.30585393e+00 -4.21292576e+00 -4.12181972e+00 -4.03982427e+00
 -3.96693944e+00 -3.90498733e+00 -3.85579006e+00 -3.81934764e+00
 -3.79748219e+00 -3.78837159e+00 -3.79201583e+00 -3.80659280e+00
 -3.83028037e+00 -3.86307855e+00 -3.90134309e+00 -3.94325187e+00
 -3.98698277e+00 -4.02889155e+00 -4.06897821e+00 -4.10177639e+00
 -4.12546396e+00 -4.13639668e+00 -4.13093032e+00 -4.10359851e+00
 -4.05257912e+00 -3.97422792e+00 -3.86854491e+00 -3.73553008e+00
 -3.57700556e+00 -3.39661559e+00 -3.20529290e+00 -3.01032596e+00
 -2.82264751e+00 -2.65319026e+00 -2.51106483e+00 -2.40173757e+00
 -2.33249698e+00 -2.30152092e+00 -2.30516517e+00 -2.33796334e+00
 -2.39262697e+00 -2.45640120e+00 -2.52199755e+00 -2.57848330e+00
 -2.62039208e+00 -2.64043541e+00 -2.64043541e+00 -2.61856996e+00
 -2.58030542e+00 -2.52928604e+00 -2.47280029e+00 -2.41631454e+00
 -2.36347304e+00 -2.32156425e+00 -2.29058820e+00 -2.27236699e+00
 -2.27054487e+00 -2.27965547e+00 -2.29969880e+00 -2.32885274e+00
 -2.36347304e+00 -2.40173757e+00 -2.43817999e+00 -2.47462241e+00
 -2.50924271e+00 -2.53839664e+00 -2.56390634e+00 -2.58577179e+00
 -2.60399300e+00 -2.62039208e+00 -2.63679117e+00 -2.65136814e+00
 -2.66776723e+00 -2.68781056e+00 -2.70967601e+00 -2.73518570e+00
 -2.76616176e+00 -2.79895993e+00 -2.83540235e+00 -2.87184477e+00
 -2.90646507e+00 -2.93379688e+00 -2.94837385e+00 -2.94472961e+00
 -2.91193143e+00 -2.84086871e+00 -2.72243086e+00 -2.54750725e+00
 -2.30516517e+00 -1.99358249e+00 -1.60911498e+00 -1.15540687e+00
 -6.39746652e-01 -7.67112904e-02  5.19122248e-01  1.12224427e+00
  1.70896720e+00  2.25013711e+00  2.71842219e+00  3.08831273e+00
  3.33429906e+00  3.44362631e+00  3.39989541e+00  3.20857271e+00
  2.87148035e+00  2.40866163e+00  1.84198203e+00  1.20423971e+00
  5.26410732e-01 -1.62350973e-01 -8.29247227e-01 -1.45241258e+00
 -2.01727006e+00 -2.51653119e+00 -2.94837385e+00 -3.31644227e+00
 -3.62984707e+00 -3.89769884e+00 -4.13093032e+00 -4.33865210e+00
 -4.52815268e+00 -4.70489841e+00 -4.87071141e+00 -5.02741381e+00
 -5.17682772e+00 -5.31895316e+00 -5.45196798e+00 -5.57405008e+00
 -5.68702158e+00 -5.78723823e+00 -5.87652215e+00 -5.95487335e+00
 -6.02046971e+00 -6.07513333e+00 -6.11704211e+00 -6.15166241e+00
 -6.17534998e+00 -6.18992695e+00 -6.20085968e+00 -6.20632604e+00
 -6.20997028e+00 -6.21361452e+00 -6.22272513e+00 -6.23912422e+00
 -6.27010027e+00 -6.31565329e+00 -6.37942753e+00 -6.46142297e+00]","[-1.26970727 -1.17853851 -1.08554638 -0.98526075 -0.87768161 -0.76098561
 -0.6369961  -0.50388971 -0.35984308 -0.20850295 -0.04622256  0.1251747
  0.30386546  0.48802635  0.67765736  0.87093513  1.06785964  1.26478415
  1.45988529  1.65498643  1.84644082  2.03424845  2.22023272  2.40074685
  2.57761424  2.75083488  2.91858539  3.08268915  3.23949941  3.3871928
  3.52759268  3.65522894  3.77010157  3.86491708  3.93967546  3.98708321
  4.00531696  3.98708321  3.92691183  3.82480282  3.67346269  3.47653818
  3.23038253  2.94046589  2.61043499  2.24575997  1.85555769  1.44347492
  1.01862851  0.59013536  0.16528895 -0.25044057 -0.64611297 -1.01625812
 -1.35175915 -1.64532254 -1.88965481 -2.0811092  -2.21786233 -2.29991421
 -2.33638171 -2.33455834 -2.30356096 -2.25979996 -2.2123922  -2.17227795
 -2.15039745 -2.15222083 -2.18139483 -2.23609608 -2.31632459 -2.41843359
 -2.53877635 -2.67370611 -2.81592937 -2.96544613 -3.11860964 -3.27359653
 -3.42858341 -3.5835703  -3.73673381 -3.88807394 -4.03941408 -4.18710746
 -4.33662422 -4.48249423 -4.62654087 -4.7705875  -4.91098738 -5.04774052
 -5.18267028 -5.31212991 -5.43611942 -5.55281543 -5.65857119 -5.75521007
 -5.83726195 -5.90472683 -5.95578133 -5.99042546 -6.01230596 -6.02506958
 -6.02871633 -6.03053971 -6.03783321 -6.05059684 -6.07612409 -6.11623834
 -6.17093959 -6.24205122 -6.32592648 -6.42256536 -6.52649774 -6.63407688
 -6.74347938 -6.85105851 -6.95134415 -7.04433628 -7.12821153 -7.19932316
 -7.25584779 -7.30143217 -7.33425292 -7.35248667 -7.36160355 -7.35978017
 -7.34701655 -7.32695942 -7.30143217 -7.26861142 -7.23396729 -7.19385304
 -7.15191541 -7.10633103 -7.06074665 -7.0133389  -6.9622844  -6.91122989
 -6.86017539 -6.80729751]",-0.6937725373580307,2.2183637578666966,5.48811,-0.02651000000000092
055,1,2,csp,29b.png,1,1,356,357,2,1,0,430,neg_feedback_onset,3,"[-1.46080936e-01 -1.26719646e-01 -1.05422226e-01 -8.21886777e-02
 -5.89551292e-02 -3.18493227e-02 -4.74351615e-03  2.23622904e-02
  4.75319679e-02  7.07655164e-02  8.81906777e-02  9.98074520e-02
  1.01743581e-01  9.78713229e-02  8.43184197e-02  6.30210002e-02
  3.20429356e-02 -4.74351615e-03 -4.92744840e-02 -9.76777100e-02
 -1.51889323e-01 -2.09973194e-01 -2.69993195e-01 -3.30013195e-01
 -3.88097066e-01 -4.40372550e-01 -4.86839647e-01 -5.21689970e-01
 -5.41051260e-01 -5.41051260e-01 -5.19753841e-01 -4.75222873e-01
 -4.05522227e-01 -3.14524162e-01 -2.02228678e-01 -7.83164196e-02
  5.14042260e-02  1.81124872e-01  3.03101001e-01  4.13460356e-01
  5.06394550e-01  5.81903583e-01  6.41923583e-01  6.90326809e-01
  7.30985519e-01  7.73580358e-01  8.21983584e-01  8.83939713e-01
  9.63321003e-01  1.06399971e+00  1.18597584e+00  1.32731326e+00
  1.48607584e+00  1.65645520e+00  1.83264294e+00  2.01270294e+00
  2.18695456e+00  2.35346165e+00  2.50641585e+00  2.64388101e+00
  2.76004875e+00  2.85491907e+00  2.92461972e+00  2.96915069e+00
  2.99044811e+00  2.98463972e+00  2.95947004e+00  2.91106682e+00
  2.84911069e+00  2.77166553e+00  2.68453972e+00  2.59160553e+00
  2.49479907e+00  2.39605649e+00  2.29925004e+00  2.20050746e+00
  2.10563714e+00  2.01076681e+00  1.91396036e+00  1.81521778e+00
  1.71260294e+00  1.60805197e+00  1.49769262e+00  1.38152488e+00
  1.26342100e+00  1.14144488e+00  1.01946875e+00  8.99428745e-01
  7.83261003e-01  6.74837777e-01  5.79967454e-01  4.98650034e-01
  4.38630034e-01  4.01843582e-01  3.90226808e-01  4.07651969e-01
  4.54119066e-01  5.27691970e-01  6.28370680e-01  7.48410680e-01
  8.89748100e-01  1.04463842e+00  1.20920939e+00  1.37958875e+00
  1.55384036e+00  1.72615584e+00  1.89653520e+00  2.06110617e+00
  2.21406036e+00  2.35733391e+00  2.48511843e+00  2.59741391e+00
  2.69034811e+00  2.76585714e+00  2.82200488e+00  2.85879133e+00
  2.87621649e+00  2.87621649e+00  2.86072746e+00  2.82781327e+00
  2.78134617e+00  2.72132617e+00  2.65162553e+00  2.57030811e+00
  2.48124617e+00  2.38637585e+00  2.28763327e+00  2.18695456e+00
  2.08627585e+00  1.98946939e+00  1.89653520e+00  1.80940939e+00
  1.73002810e+00  1.66032746e+00  1.60030746e+00  1.55384036e+00
  1.51705391e+00  1.49575649e+00  1.48801197e+00  1.49382036e+00
  1.51318165e+00  1.54803197e+00  1.59643520e+00  1.65645520e+00
  1.72809197e+00  1.80747326e+00  1.89459907e+00  1.98753327e+00
  2.08627585e+00  2.18501843e+00  2.28569714e+00  2.38831198e+00
  2.48899069e+00  2.59160553e+00  2.69228424e+00  2.79102682e+00
  2.88976940e+00  2.98851198e+00  3.08725456e+00  3.18599714e+00
  3.28473972e+00  3.38154617e+00  3.48028875e+00  3.57709521e+00
  3.67583779e+00  3.77264424e+00  3.87138682e+00  3.96819327e+00
  4.06693585e+00  4.16374231e+00  4.26248489e+00  4.35929134e+00
  4.45803392e+00  4.55484037e+00  4.65358295e+00  4.75038940e+00
  4.84913198e+00  4.94593844e+00  5.04468102e+00  5.14148747e+00
  5.24023005e+00  5.33703650e+00  5.43577908e+00  5.53258554e+00
  5.63132812e+00  5.72813457e+00  5.82687715e+00  5.92368360e+00
  6.02049005e+00  6.11923263e+00  6.21603909e+00  6.31478167e+00
  6.41158812e+00  6.51033070e+00  6.60713715e+00  6.70587973e+00
  6.80268619e+00  6.90142877e+00  6.99823522e+00  7.09697780e+00
  7.19378425e+00  7.29252683e+00  7.38933328e+00  7.48807587e+00
  7.58488232e+00  7.68362490e+00  7.78043135e+00  7.87917393e+00
  7.97598038e+00  8.07472296e+00  8.17152942e+00  8.27027200e+00
  8.36707845e+00  8.46582103e+00  8.56262748e+00  8.66137006e+00
  8.75817651e+00  8.85691910e+00  8.95372555e+00  9.05246813e+00
  9.14927458e+00  9.24801716e+00  9.34482361e+00  9.44356619e+00
  9.54037265e+00  9.63911523e+00  9.73592168e+00  9.83272813e+00
  9.93147071e+00  1.00282772e+01  1.01270197e+01  1.02238262e+01
  1.03225688e+01  1.04193752e+01  1.05181178e+01  1.06168604e+01
  1.07136668e+01  1.08124094e+01  1.09130881e+01  1.10137668e+01
  1.11183178e+01  1.12286772e+01  1.13467810e+01  1.14745656e+01
  1.16197752e+01  1.17862823e+01  1.19798952e+01  1.22044862e+01
  1.24677998e+01  1.27659636e+01  1.30951056e+01  1.34494172e+01
  1.38134094e+01  1.41657849e+01  1.44852462e+01  1.47504959e+01
  1.49363643e+01  1.50273623e+01  1.50080011e+01  1.48782804e+01]","[-1.97263596 -1.85248853 -1.71385688 -1.55858943 -1.38668619 -1.19999556
 -0.99666914 -0.77855535 -0.5475026  -0.30351089 -0.04658023  0.22144096
  0.49870426  0.78520967  1.07726034  1.37300786  1.66875538  1.96080606
  2.24731147  2.52457477  2.78520227  3.0310424   3.25470146  3.45617946
  3.63177955  3.78519858  3.91458812  4.02179659  4.10867243  4.17891246
  4.23436512  4.27872725  4.31569569  4.34342202  4.36745151  4.38593573
  4.4007231   4.41181363  4.41551048  4.41181363  4.39887468  4.37114835
  4.3249378   4.25654619  4.16042824  4.03473555  3.87392283  3.6779901
  3.44508893  3.17706774  2.87577495  2.54860426  2.20110092  1.84065863
  1.47282265  1.11053194  0.76118018  0.43216106  0.1327167  -0.13345607
 -0.36450882 -0.55859313 -0.71940584 -0.85618907 -0.97818492 -1.09093867
 -1.20554083 -1.33123353 -1.46801675 -1.62143578 -1.78594534 -1.96154543
 -2.14084236 -2.3201393  -2.49389097 -2.65840052 -2.81181955 -2.94860278
 -3.06875021 -3.168565   -3.24619872 -3.29795454 -3.32383244 -3.32383244
 -3.29610611 -3.24619872 -3.17411026 -3.08723443 -2.99111648 -2.89315012
 -2.79703217 -2.70830792 -2.63067419 -2.56597942 -2.51607203 -2.47725517
 -2.4550741  -2.44398357 -2.44398357 -2.4550741  -2.47355832 -2.50128465
 -2.53270783 -2.56967627 -2.60849313 -2.65100684 -2.69167212 -2.73418583
 -2.77485111 -2.81551639 -2.85433326 -2.89499854 -2.9338154  -2.97263226
 -3.0096007  -3.0428723  -3.07059863 -3.09277969 -3.10571865 -3.10941549
 -3.10017338 -3.07984074 -3.04656914 -3.00220702 -2.94675436 -2.88021116
 -2.80812271 -2.72864056 -2.64361315 -2.55673731 -2.46616464 -2.37374354
 -2.28132244 -2.18705291 -2.09278339 -1.99666545 -1.90239592 -1.8081264
 -1.71385688 -1.61773894]",12.797446767710431,3.436724818022866,5.164945,-0.1362899999999998
055,1,2,csm,21a.png,1,0,152,NaN,154,1,1,575,neu_feedback_onset,4,"[-0.73844003 -0.60347954 -0.46664461 -0.33355858 -0.20797035 -0.09362883
  0.00759153  0.09381628  0.16317097  0.2156556   0.25127017  0.27188914
  0.27938694  0.27188914  0.25127017  0.22315341  0.18378993  0.1350542
  0.07882067  0.01696378 -0.05426536 -0.13111786 -0.21546816 -0.30356736
 -0.39916437 -0.49663583 -0.59785619 -0.69907655 -0.80029691 -0.89964282
 -0.99523983 -1.08521349 -1.16581488 -1.23891848 -1.29890092 -1.34576219
 -1.37762786 -1.39637237 -1.39637237 -1.38325122 -1.3570089  -1.32139433
 -1.2764075  -1.22767177 -1.18081049 -1.13769812 -1.1077069  -1.09271129
 -1.09646019 -1.12270251 -1.17331269 -1.24829073 -1.34576219 -1.46572707
 -1.60443645 -1.75814144 -1.92309314 -2.09554265 -2.27361551 -2.44981391
 -2.62413787 -2.79096402 -2.94466901 -3.0796295  -3.19209656 -3.27457241
 -3.31955924 -3.32330814 -3.28394467 -3.19584547 -3.06463389 -2.89593328
 -2.69724146 -2.47605623 -2.24737319 -2.0168157  -1.79750492 -1.59318974
 -1.40949353 -1.24829073 -1.10958135 -0.99336538 -0.89589392 -0.81904142
 -0.75905899 -0.71594661 -0.6897043  -0.68033204 -0.68595539 -0.71032326
 -0.74968673 -0.80592027 -0.87714941 -0.96149971 -1.05709672 -1.16206598
 -1.27453305 -1.38887457 -1.50509054 -1.61755761 -1.72627577 -1.82749614
 -1.91934424 -1.99994564 -2.06930033 -2.12365942 -2.16489734 -2.19301411
 -2.21175862 -2.22487978 -2.23237758 -2.24362429 -2.26049435 -2.28486221
 -2.32422569 -2.37483587 -2.43856721 -2.5116708  -2.5885233  -2.66350134
 -2.73098158 -2.77784286 -2.80033628 -2.78721512 -2.73098158 -2.62976122
 -2.47980513 -2.28298776 -2.04680692 -1.77688596 -1.48634603 -1.1845594
 -0.88277276 -0.59035839 -0.31668852 -0.06551207  0.16317097  0.36561169
  0.54743345  0.70488735  0.84359673  0.96356161  1.06665642  1.15288117
  1.22223586  1.27659495  1.31408397  1.33657738  1.34407519  1.33845183
  1.32158177  1.29533946  1.26534824  1.23348257  1.2016169   1.17724904
  1.16225343  1.16037898  1.17537459  1.21098916  1.26534824  1.34220074
  1.4396722   1.55401372  1.67960194  1.81456242  1.94952291  2.08073448
  2.19882491  2.29817082  2.37689776  2.4293824   2.45375026  2.45187581
  2.42188459  2.36752551  2.29442191  2.20444826  2.10135345  1.99076083
  1.87829376  1.76582669  1.65710853  1.55588817  1.46404006  1.38156421
  1.31408397  1.25785044  1.21661251  1.19037019  1.17912349  1.18287239
  1.19974245  1.22785922  1.26722269  1.31595842  1.3703175   1.42655104
  1.48091012  1.52964585  1.57088378  1.59900054  1.61024725  1.6046239
  1.57838158  1.52964585  1.45841671  1.3665686   1.25410153  1.12288995
  0.97480831  0.81360552  0.64303046  0.46308315  0.28126139  0.09943963
 -0.07863323 -0.25108273 -0.41603443 -0.56973942 -0.71219771 -0.83966039
 -0.95212746 -1.05147337 -1.13582367 -1.21080171 -1.2764075  -1.33451549
 -1.39449792 -1.45635481 -1.52758395 -1.6100598  -1.70940571 -1.82749614
 -1.96245662 -2.11053826 -2.2698666  -2.4310694  -2.59039775 -2.73847939
 -2.87156542 -2.98590694 -3.07775504 -3.14710974 -3.19584547 -3.22771114
 -3.24270674 -3.2445812  -3.23520894 -3.21458998 -3.18459876 -3.14148638
 -3.0833784  -3.0065259  -2.90717999 -2.77971731 -2.62226342 -2.42919495
 -2.20426081 -1.94371211]","[-1.80223656 -1.67524183 -1.5282908  -1.36319765 -1.18359083 -0.99128453
 -0.78990718 -0.57764457 -0.35993933 -0.14041988  0.08272799  0.30587586
  0.52720953  0.74491477  0.95899159  1.16762578  1.37081734  1.56675206
  1.75361572  1.93322255  2.10557253  2.26885146  2.42124513  2.56638196
  2.70063352  2.82218562  2.93285245  3.03081981  3.11245927  3.17595663
  3.21949768  3.24126821  3.24126821  3.21586926  3.16507137  3.09068875
  2.9945356   2.87661193  2.74236036  2.59359511  2.4339446   2.26885146
  2.1001299   1.93322255  1.77357204  1.62480679  1.49418364  1.38533102
  1.30550577  1.2583363   1.24745103  1.27284998  1.33271892  1.42524365
  1.54498153  1.68104731  1.82799835  1.97676359  2.118272    2.24708094
  2.35956198  2.45027249  2.5210267   2.56819617  2.5917809   2.59540932
  2.57726722  2.53735459  2.48111407  2.40491724  2.31239251  2.20353989
  2.08198779  1.94955044  1.80804203  1.65746257  1.50325469  1.34541839
  1.1893963   1.03337421  0.88098054  0.73584372  0.59614952  0.46552637
  0.34578849  0.23512166  0.1371543   0.05007221 -0.02612463 -0.08780778
 -0.13860567 -0.17670409 -0.20028882 -0.21117408 -0.20573145 -0.18758935
 -0.15674777 -0.1095783  -0.04970936  0.02285905  0.10812694  0.20246587
  0.30769007  0.42017112  0.53628058  0.65783267  0.77938476  0.89912265
  1.01704632  1.12952736  1.23475156  1.3290905   1.41254418  1.48148417
  1.53591048  1.5740089   1.59396521  1.59396521  1.57582311  1.5395389
  1.48874101  1.42524365  1.35448944  1.27829261  1.2057242   1.13859841
  1.08054368  1.03518842  1.00253264  0.98439053  0.97713369  0.98257632
  0.99709001  1.01704632  1.04244527  1.07328684  1.10594263  1.13859841
  1.17306841  1.20935262]",1.683632011501608,2.166802127705915,5.334895000000001,-0.030289999999999928
055,1,2,csm,33a.png,1,1,256,291,258,1,1,276,neu_feedback_onset,5,"[-0.69151997 -0.67142296 -0.62209393 -0.54353287 -0.4430478  -0.32429272
 -0.19457563 -0.06303154  0.06120454  0.17447862  0.26948268  0.34438974
  0.39737277  0.42660479  0.4320858   0.41381578  0.37362176  0.31150371
  0.22746166  0.12149558 -0.0045675  -0.1525546  -0.31881172 -0.50333884
 -0.70248198 -0.91258713 -1.13000027 -1.34924042 -1.57030758 -1.78406672
 -1.99051786 -2.18418    -2.36139912 -2.52034823 -2.66102732 -2.78160941
 -2.88209447 -2.96065553 -3.02277357 -3.0666216  -3.09402662 -3.11046963
 -3.11229663 -3.10498863 -3.08671861 -3.0611406  -3.02460057 -2.97709854
 -2.9204615  -2.84920845 -2.76516639 -2.66468133 -2.54592624 -2.40890115
 -2.25360604 -2.07821392 -1.88455179 -1.67444665 -1.45155249 -1.21586933
 -0.97287817 -0.724406   -0.47410682 -0.22746166  0.01370251  0.24390467
  0.46131782  0.66228795  0.84316108  1.00393719  1.14096228  1.25423636
  1.34375942  1.40587746  1.44424449  1.4588605   1.45155249  1.42414748
  1.38395345  1.32914341  1.26885237  1.20490733  1.14096228  1.08615224
  1.03865021  1.00576419  0.98566718  0.98201317  0.99297518  1.0167262
  1.04961222  1.08615224  1.12451927  1.15557829  1.17750231  1.18663731
  1.17932931  1.15375129  1.11173026  1.05143922  0.97835917  0.89249011
  0.79931305  0.69882798  0.59834291  0.49785784  0.40468078  0.31881172
  0.24573167  0.19274863  0.16168961  0.15986261  0.18909463  0.25303967
  0.35352474  0.48506883  0.64584494  0.82671807  1.0222072   1.21952334
  1.41501247  1.5995396   1.76762371  1.91743781  2.0471549   2.15677498
  2.24995204  2.3285131   2.39611214  2.45274918  2.50025121  2.53861824
  2.57150426  2.59525528  2.60987129  2.61535229  2.60804429  2.59160128
  2.56236926  2.52217523  2.46919219  2.40890115  2.3394751   2.26456805
  2.189661    2.11658095  2.0453279   1.98320986  1.93205382  1.89003279
  1.86080077  1.84435776  1.83704976  1.84253076  1.85714677  1.87724379
  1.9028218   1.93388082  1.96676685  2.00330687  2.0380199   2.07455992
  2.11109995  2.14763997  2.18235299  2.21706602  2.24812504  2.27553006
  2.29928108  2.31572409  2.32668609  2.32668609  2.31572409  2.29380007
  2.25726005  2.20793101  2.14398597  2.06542491  1.97590185  1.87541678
  1.76579671  1.64704163  1.52463254  1.39674246  1.26702537  1.13365428
  0.99845618  0.86143109  0.72257899  0.5837269   0.4430478   0.30054171
  0.15986261  0.01918351 -0.11784158 -0.25121267 -0.38092976 -0.50151184
 -0.61661292 -0.72257899 -0.81758306 -0.90345212 -0.98018617 -1.04595822
 -1.10259526 -1.14827029 -1.18663731 -1.21404233 -1.23413935 -1.24510135
 -1.24692835 -1.23962035 -1.22317734 -1.19759932 -1.1628863  -1.11903827
 -1.06605523 -1.00393719 -0.93633814 -0.86143109 -0.78104304 -0.69882798
 -0.61661292 -0.53439787 -0.45583681 -0.38275676 -0.31881172 -0.26217468
 -0.21649965 -0.18361363 -0.16351661 -0.15803561 -0.16534361 -0.18909463
 -0.22746166 -0.28227169 -0.35535174 -0.4430478  -0.54901388 -0.67142296
 -0.81027506 -0.96374316 -1.13000027 -1.30539239 -1.48991952 -1.67627365
 -1.86262778 -2.0380199  -2.20062301 -2.3413021  -2.45092218 -2.52217523
 -2.54958025 -2.52765623 -2.45640318 -2.3358211  -2.17321799 -1.97407485
 -1.7493537  -1.51367054]","[nan nan nan nan nan nan nan nan nan nan nan nan nan nan nan nan nan nan
 nan nan nan nan nan nan nan nan nan nan nan nan nan nan nan nan nan nan
 nan nan nan nan nan nan nan nan nan nan nan nan nan nan nan nan nan nan
 nan nan nan nan nan nan nan nan nan nan nan nan nan nan nan nan nan nan
 nan nan nan nan nan nan nan nan nan nan nan nan nan nan nan nan nan nan
 nan nan nan nan nan nan nan nan nan nan nan nan nan nan nan nan nan nan
 nan nan nan nan nan nan nan nan nan nan nan nan nan nan nan nan nan nan
 nan nan nan nan nan nan nan nan nan nan nan nan nan nan]",2.0281540892855565,,5.47345,
055,1,2,csm,8a.png,1,1,240,265,240,1,1,393,neu_feedback_onset,6,"[-0.89436747 -0.73890211 -0.60110327 -0.47743765 -0.36967189 -0.27427269
 -0.18770675 -0.10997407 -0.039308    0.02782477  0.09319088  0.1550237
  0.21685651  0.27692267  0.33698883  0.39705499  0.45712115  0.51718731
  0.57725347  0.63731964  0.69561915  0.75568531  0.81575147  0.87581763
  0.93588379  0.99594995  1.05601611  1.11608227  1.17614843  1.2362146
  1.29628076  1.35811357  1.41994638  1.4817792   1.54714531  1.61251143
  1.6796442   1.74854362  1.81920969  1.89164241  1.96584179  2.04180781
  2.11600719  2.19197322  2.26440594  2.33507201  2.40043813  2.46227094
  2.5152705   2.55943679  2.59476983  2.61596965  2.6212696   2.60890304
  2.57710331  2.5223371   2.44283777  2.33860532  2.20963974  2.05417438
  1.87574255  1.67434424  1.45351277  1.21854808  0.96768352  0.70621906
  0.43768798  0.1620903  -0.11704068 -0.39793832 -0.67883595 -0.95973359
 -1.23886457 -1.51092895 -1.77416007 -2.02325797 -2.25468936 -2.46138762
 -2.63451949 -2.76878503 -2.85535097 -2.89245066 -2.87478414 -2.80588472
 -2.6892857  -2.53382034 -2.3483219  -2.14869025 -1.94375864 -1.74942694
 -1.57099511 -1.41906306 -1.29539743 -1.20353154 -1.13993207 -1.10283238
 -1.08869917 -1.09399913 -1.11519895 -1.14699868 -1.18763167 -1.23533127
 -1.28479752 -1.33603042 -1.38726332 -1.43319627 -1.47382926 -1.50562899
 -1.52506216 -1.52859547 -1.51446225 -1.48089587 -1.42612966 -1.35193029
 -1.25829774 -1.15229863 -1.03569962 -0.91733395 -0.80073493 -0.69120252
 -0.59227002 -0.50570408 -0.4315047  -0.37143854 -0.31843899 -0.27427269
 -0.23540635 -0.20183997 -0.16827358 -0.14000715 -0.11350738 -0.08877425
 -0.06934108 -0.05520787 -0.04460796 -0.04107465 -0.04284131 -0.04814126
 -0.05874117 -0.07287439 -0.0905409  -0.10997407 -0.1311739  -0.15414037
 -0.17710684 -0.20007332 -0.22480644 -0.24953957 -0.27427269 -0.29900582
 -0.32197229 -0.34670542 -0.37143854 -0.39617167 -0.42090479 -0.44563792
 -0.47037104 -0.49510417 -0.51983729 -0.54280376 -0.56753689 -0.59227002
 -0.61700314 -0.64173627 -0.66646939 -0.69120252 -0.71593564 -0.74066877
 -0.76363524 -0.78836836 -0.81310149 -0.83783461 -0.86256774 -0.88730087
 -0.91203399 -0.93676712 -0.96150024 -0.98446671 -1.00919984 -1.03393296
 -1.05866609 -1.08339921 -1.10813234 -1.13286547 -1.15759859 -1.18233172
 -1.20706484 -1.23003131 -1.25476444 -1.27949756 -1.30423069 -1.32896381
 -1.35369694 -1.37843006 -1.40316319 -1.42612966 -1.45086279 -1.47559591
 -1.49856239 -1.52152886 -1.54272868 -1.56216185 -1.57982837 -1.59396158
 -1.60456149 -1.6116281  -1.6116281  -1.60632815 -1.59396158 -1.57629507
 -1.55156194 -1.52152886 -1.48796248 -1.45086279 -1.4137631  -1.37666341
 -1.34486368 -1.31659725 -1.29186413 -1.27596426 -1.2635977  -1.26006439
 -1.26006439 -1.26536435 -1.27419761 -1.28656417 -1.30069739 -1.3148306
 -1.33249712 -1.35016364 -1.36783015 -1.38726332 -1.40492984 -1.42436301
 -1.44202953 -1.4614627  -1.48089587 -1.49856239 -1.51799556 -1.53566207
 -1.55509524 -1.57452841 -1.59219493 -1.6116281  -1.63106127 -1.64872779
 -1.66816096 -1.68582748 -1.70526065 -1.72469382 -1.74236034 -1.7617935
 -1.78122667 -1.79889319 -1.81832636 -1.83599288 -1.85542605 -1.87485922
 -1.89252574 -1.91195891]","[ 0.68754855  0.62954982  0.56452095  0.495977    0.42567551  0.35185895
  0.27628485  0.20071075  0.12337911  0.04604747 -0.03128416 -0.1086158
 -0.18594744 -0.26327907 -0.34061071 -0.41969988 -0.49703152 -0.57436316
 -0.65169479 -0.72902643 -0.80635807 -0.88544724 -0.96277888 -1.04011051
 -1.11744215 -1.19477379 -1.27210542 -1.3511946  -1.42852623 -1.50585787
 -1.58318951 -1.66052114 -1.73785278 -1.81694196 -1.89427359 -1.97160523
 -2.04893687 -2.1262685  -2.20360014 -2.28268931 -2.36002095 -2.43735259
 -2.51468422 -2.59201586 -2.6693475  -2.74843667 -2.82576831 -2.90309994
 -2.98043158 -3.05776322 -3.13509485 -3.21418403 -3.29151566 -3.3688473
 -3.44617894 -3.52351058 -3.60084221 -3.67993139 -3.75726302 -3.83459466
 -3.9119263  -3.98925793 -4.06658957 -4.14567874 -4.22301038 -4.30034202
 -4.37767365 -4.45500529 -4.53233693 -4.6114261  -4.68875774 -4.76608937
 -4.84342101 -4.92075265 -4.99808428 -5.07717346 -5.1545051  -5.23183673
 -5.30916837 -5.38650001 -5.46383164 -5.54116328 -5.61849492 -5.69406901
 -5.76964311 -5.84170214 -5.91024609 -5.97351743 -6.02800108 -6.06842444
 -6.08951488 -6.08775735 -6.05436414 -5.98582019 -5.87509535 -5.72043207
 -5.52183037 -5.28280531 -5.01038704 -4.71687833 -4.4128244  -4.110528
 -3.8222919  -3.56041886 -3.33018148 -3.13685239 -2.98218912 -2.86619166
 -2.78358741 -2.73261884 -2.70801332 -2.70625578 -2.72558869 -2.76249697
 -2.81346555 -2.87673689 -2.95231099 -3.03667277 -3.12982224 -3.2317594
 -3.33896917 -3.44969401 -3.56569147 -3.68344646 -3.80295899 -3.92247152
 -4.04198405 -4.1579815  -4.27222142 -4.38118873 -4.48664096 -4.58857812
 -4.68348513 -4.77487706 -4.86275392 -4.94887324 -5.03323503 -5.11759681
 -5.20547367 -5.29510807]",1.6745209061156747,-1.2501111257279262e-14,5.660425000000002,0.05338000000000065
055,1,2,csp,26b.png,1,1,96,354,97,1,1,208,pos_feedback_onset,7,"[ -0.30455225  -0.36688751  -0.41675572  -0.45059486  -0.46306191
  -0.45059486  -0.4114127   -0.34729643  -0.25646506  -0.1460426
  -0.0231531    0.10507943   0.22974995   0.34195341   0.43100378
   0.49512004   0.52895918   0.5343022    0.5093681    0.4612809
   0.39182161   0.30633326   0.20837786   0.09973641  -0.01246705
  -0.13001354  -0.24934103  -0.36866852  -0.48799601  -0.6073235
  -0.72486999  -0.84063546  -0.95640094  -1.0686044   -1.17724585
  -1.28410629  -1.38918572  -1.49248415  -1.59222056  -1.69373798
  -1.7952554   -1.90033483  -2.01075728  -2.13186578  -2.26366033
  -2.41148394  -2.57889863  -2.76412339  -2.97250125  -3.20047019
  -3.44803021  -3.71161929  -3.98945644  -4.27619862  -4.56650281
  -4.855026    -5.13464415  -5.40179526  -5.64757427  -5.86663817
  -6.05542495  -6.21037259  -6.32970008  -6.41162642  -6.46327563
  -6.48464772  -6.48286671  -6.46505664  -6.43656052  -6.40094037
  -6.3599772   -6.31723303  -6.27092684  -6.22283964  -6.17297143
  -6.11954121  -6.06611099  -6.01089976  -5.95925055  -5.91294436
  -5.87554321  -5.8506091   -5.84170407  -5.8506091   -5.88088623
  -5.93075443  -6.00377574  -6.09638812  -6.20681057  -6.33326209
  -6.47218067  -6.61822327  -6.76782788  -6.91565149  -7.06169409
  -7.19705065  -7.32350217  -7.43748664  -7.53544205  -7.61914939
  -7.68860868  -7.7420389   -7.78122106  -7.80437415  -7.81684121
  -7.8150602   -7.80081214  -7.77587804  -7.7438199   -7.70641875
  -7.66723659  -7.63161644  -7.60312032  -7.58709126  -7.59243428
  -7.6209304   -7.67614163  -7.76162998  -7.87917646  -8.02521906
  -8.19797678  -8.39566859  -8.61117048  -8.83913942  -9.0777944
  -9.3200114   -9.5622284   -9.79732136 -10.01994728 -10.22476313
 -10.40464487 -10.55246848 -10.65932892 -10.71810216 -10.7270072
 -10.67892    -10.57562157 -10.42067393 -10.22298212  -9.98967016
  -9.7332051   -9.46427299  -9.19355988  -8.92997079  -8.67528674
  -8.43663176  -8.20866282  -7.99316093  -7.78656408  -7.58352924
  -7.38405642  -7.18636461  -6.98867279  -6.79454299  -6.60397521
  -6.42053145  -6.24599273  -6.08570207  -5.93609746  -5.80430291
  -5.69031844  -5.59414405  -5.51756073  -5.4605685   -5.42672936
  -5.4124813   -5.42138634  -5.45166346  -5.49975066  -5.56564793
  -5.64757427  -5.73662463  -5.83458004  -5.93253544  -6.02692883
  -6.1159792   -6.19612453  -6.26380281  -6.31545202  -6.35285317
  -6.37422526  -6.38134929  -6.37422526  -6.35641519  -6.32613806
  -6.2869559   -6.24421173  -6.19434352  -6.14447532  -6.0928261
  -6.04117689  -5.99130868  -5.94322149  -5.8969153   -5.85417112
  -5.81320795  -5.7758068   -5.74196766  -5.71169053  -5.68853744
  -5.66894636  -5.65826031  -5.65826031  -5.66538434  -5.68675643
  -5.71703355  -5.76155874  -5.81855097  -5.88622925  -5.96281257
  -6.05008193  -6.14269431  -6.24243072  -6.34394814  -6.44546556
  -6.54520197  -6.63959536  -6.7233027   -6.79276199  -6.84263019
  -6.86578329  -6.85509724  -6.80522904  -6.71439766  -6.57904111
  -6.39915936  -6.18009546  -5.92541141  -5.64757427  -5.35370806
  -5.05627983  -4.76419463  -4.48635748  -4.22633041  -3.98945644
  -3.77751656  -3.59051079  -3.42843913  -3.28595854  -3.16485004
  -3.06155161  -2.97250125  -2.89769894  -2.83714469  -2.78549548
  -2.74453231  -2.71247418  -2.68397806  -2.66082496  -2.64123388
  -2.61986179  -2.5967087   -2.5717746   -2.53793546  -2.49697229
  -2.44710408  -2.38476883  -2.31174752  -2.22447816  -2.12296075]","[nan nan nan nan nan nan nan nan nan nan nan nan nan nan nan nan nan nan
 nan nan nan nan nan nan nan nan nan nan nan nan nan nan nan nan nan nan
 nan nan nan nan nan nan nan nan nan nan nan nan nan nan nan nan nan nan
 nan nan nan nan nan nan nan nan nan nan nan nan nan nan nan nan nan nan
 nan nan nan nan nan nan nan nan nan nan nan nan nan nan nan nan nan nan
 nan nan nan nan nan nan nan nan nan nan nan nan nan nan nan nan nan nan
 nan nan nan nan nan nan nan nan nan nan nan nan nan nan nan nan nan nan
 nan nan nan nan nan nan nan nan nan nan nan nan nan nan]",-0.22406997722237282,,5.614800000000001,0.08353499999999947
055,1,2,csp,59b.png,1,1,344,335,343,1,1,160,pos_feedback_onset,8,"[-1.46687454e+00 -1.17311031e+00 -9.07660699e-01 -6.68756050e-01
 -4.54626698e-01 -2.65272643e-01 -9.53848931e-02  5.14972243e-02
  1.80682701e-01  2.88632209e-01  3.77115412e-01  4.44362647e-01
  4.90373912e-01  5.16918873e-01  5.23997530e-01  5.13379545e-01
  4.85064920e-01  4.44362647e-01  3.89503061e-01  3.25795154e-01
  2.55008592e-01  1.75373709e-01  9.04298337e-02 -1.59269766e-03
 -9.53848931e-02 -1.92716417e-01 -2.91817604e-01 -3.90918792e-01
 -4.88250315e-01 -5.83812175e-01 -6.72295378e-01 -7.53699925e-01
 -8.28025816e-01 -8.93503386e-01 -9.50132636e-01 -1.00145289e+00
 -1.04569450e+00 -1.08816643e+00 -1.13240803e+00 -1.17841930e+00
 -1.22973956e+00 -1.28990814e+00 -1.35715537e+00 -1.43148126e+00
 -1.51465547e+00 -1.60490834e+00 -1.69870054e+00 -1.79603206e+00
 -1.89336358e+00 -1.99069511e+00 -2.08625697e+00 -2.17827950e+00
 -2.26499304e+00 -2.34285826e+00 -2.41187515e+00 -2.46850440e+00
 -2.50566735e+00 -2.52159433e+00 -2.51274601e+00 -2.47204373e+00
 -2.39771784e+00 -2.28976833e+00 -2.14819521e+00 -1.97830746e+00
 -1.78364441e+00 -1.57305439e+00 -1.35361604e+00 -1.13240803e+00
 -9.20048347e-01 -7.18306644e-01 -5.32491917e-01 -3.66143495e-01
 -2.19261378e-01 -9.53848931e-02  9.02528673e-03  8.86601696e-02
  1.41750092e-01  1.66525388e-01  1.57677068e-01  1.15205131e-01
  3.38005836e-02 -8.47669087e-02 -2.38727682e-01 -4.24542409e-01
 -6.35132433e-01 -8.59879769e-01 -1.09170576e+00 -1.31822276e+00
 -1.53058245e+00 -1.72524550e+00 -1.89159392e+00 -2.02962772e+00
 -2.13580756e+00 -2.20482446e+00 -2.23667841e+00 -2.22959976e+00
 -2.17827950e+00 -2.08448730e+00 -1.94468384e+00 -1.76063878e+00
 -1.53943077e+00 -1.28459914e+00 -1.00853155e+00 -7.21845972e-01
 -4.35160394e-01 -1.60862463e-01  9.39691618e-02  3.22255826e-01
  5.20458201e-01  6.86806623e-01  8.24840421e-01  9.38098921e-01
  1.03012145e+00  1.10444734e+00  1.16815525e+00  1.22301484e+00
  1.27256543e+00  1.31680703e+00  1.35927897e+00  1.40175091e+00
  1.44245318e+00  1.48315545e+00  1.52385773e+00  1.56279034e+00
  1.60349261e+00  1.64419488e+00  1.68312749e+00  1.72382977e+00
  1.76453204e+00  1.80523431e+00  1.84593659e+00  1.88840852e+00
  1.93088046e+00  1.97512206e+00  2.01936366e+00  2.06360527e+00
  2.11138620e+00  2.15916713e+00  2.20694806e+00  2.25649865e+00
  2.30427958e+00  2.35206051e+00  2.39984144e+00  2.44231338e+00
  2.48301565e+00  2.52017859e+00  2.55380221e+00  2.58211684e+00
  2.60512247e+00  2.62458877e+00  2.64051575e+00  2.65113374e+00
  2.65998206e+00  2.66706071e+00  2.67060004e+00  2.67236970e+00
  2.67413937e+00  2.67413937e+00  2.67413937e+00  2.67236970e+00
  2.67236970e+00  2.67060004e+00  2.67060004e+00  2.66883038e+00
  2.66883038e+00  2.66706071e+00  2.66706071e+00  2.66529105e+00
  2.66352138e+00  2.66352138e+00  2.66175172e+00  2.66175172e+00
  2.65998206e+00  2.65998206e+00  2.65821239e+00  2.65644273e+00
  2.65644273e+00  2.65467306e+00  2.65467306e+00  2.65290340e+00
  2.65113374e+00  2.65113374e+00  2.64936407e+00  2.64936407e+00
  2.64759441e+00  2.64759441e+00  2.64582474e+00  2.64405508e+00
  2.64405508e+00  2.64228541e+00  2.64228541e+00  2.64051575e+00
  2.63874609e+00  2.63874609e+00  2.63697642e+00  2.63697642e+00
  2.63520676e+00  2.63520676e+00  2.63343709e+00  2.63166743e+00
  2.63166743e+00  2.62989777e+00  2.62989777e+00  2.62812810e+00
  2.62635844e+00  2.62635844e+00  2.62458877e+00  2.62458877e+00
  2.62281911e+00  2.62281911e+00  2.62104945e+00  2.61927978e+00
  2.61927978e+00  2.61751012e+00  2.61751012e+00  2.61574045e+00
  2.61397079e+00  2.61397079e+00  2.61220113e+00  2.61220113e+00
  2.61043146e+00  2.60866180e+00  2.60866180e+00  2.60689213e+00
  2.60689213e+00  2.60512247e+00  2.60512247e+00  2.60335281e+00
  2.60158314e+00  2.60158314e+00  2.59981348e+00  2.59981348e+00
  2.59804381e+00  2.59627415e+00  2.59627415e+00  2.59450449e+00
  2.59450449e+00  2.59273482e+00  2.59273482e+00  2.59096516e+00
  2.58919549e+00  2.58919549e+00  2.58742583e+00  2.58742583e+00
  2.58565616e+00  2.58388650e+00  2.58388650e+00  2.58211684e+00
  2.58211684e+00  2.58034717e+00  2.58034717e+00  2.57857751e+00
  2.57680784e+00  2.57680784e+00  2.57503818e+00  2.57503818e+00
  2.57326852e+00  2.57149885e+00  2.57149885e+00  2.56972919e+00]","[nan nan nan nan nan nan nan nan nan nan nan nan nan nan nan nan nan nan
 nan nan nan nan nan nan nan nan nan nan nan nan nan nan nan nan nan nan
 nan nan nan nan nan nan nan nan nan nan nan nan nan nan nan nan nan nan
 nan nan nan nan nan nan nan nan nan nan nan nan nan nan nan nan nan nan
 nan nan nan nan nan nan nan nan nan nan nan nan nan nan nan nan nan nan
 nan nan nan nan nan nan nan nan nan nan nan nan nan nan nan nan nan nan
 nan nan nan nan nan nan nan nan nan nan nan nan nan nan nan nan nan nan
 nan nan nan nan nan nan nan nan nan nan nan nan nan nan]",2.5723394428035773,,5.65079,
055,1,2,csp,50b.png,1,1,124,5,118,1,1,267,pos_feedback_onset,9,"[nan nan nan nan nan nan nan nan nan nan nan nan nan nan nan nan nan nan
 nan nan nan nan nan nan nan nan nan nan nan nan nan nan nan nan nan nan
 nan nan nan nan nan nan nan nan nan nan nan nan nan nan nan nan nan nan
 nan nan nan nan nan nan nan nan nan nan nan nan nan nan nan nan nan nan
 nan nan nan nan nan nan nan nan nan nan nan nan nan nan nan nan nan nan
 nan nan nan nan nan nan nan nan nan nan nan nan nan nan nan nan nan nan
 nan nan nan nan nan nan nan nan nan nan nan nan nan nan nan nan nan nan
 nan nan nan nan nan nan nan nan nan nan nan nan nan nan nan nan nan nan
 nan nan nan nan nan nan nan nan nan nan nan nan nan nan nan nan nan nan
 nan nan nan nan nan nan nan nan nan nan nan nan nan nan nan nan nan nan
 nan nan nan nan nan nan nan nan nan nan nan nan nan nan nan nan nan nan
 nan nan nan nan nan nan nan nan nan nan nan nan nan nan nan nan nan nan
 nan nan nan nan nan nan nan nan nan nan nan nan nan nan nan nan nan nan
 nan nan nan nan nan nan nan nan nan nan nan nan nan nan nan nan nan nan
 nan nan nan nan nan nan nan nan]","[nan nan nan nan nan nan nan nan nan nan nan nan nan nan nan nan nan nan
 nan nan nan nan nan nan nan nan nan nan nan nan nan nan nan nan nan nan
 nan nan nan nan nan nan nan nan nan nan nan nan nan nan nan nan nan nan
 nan nan nan nan nan nan nan nan nan nan nan nan nan nan nan nan nan nan
 nan nan nan nan nan nan nan nan nan nan nan nan nan nan nan nan nan nan
 nan nan nan nan nan nan nan nan nan nan nan nan nan nan nan nan nan nan
 nan nan nan nan nan nan nan nan nan nan nan nan nan nan nan nan nan nan
 nan nan nan nan nan nan nan nan nan nan nan nan nan nan]",,,5.490115,-0.034270000000000245
055,1,2,csm,26a.png,1,1,164,88,164,1,0,159,neu_feedback_onset,10,"[-0.28036608 -0.18508749 -0.10215982 -0.03158309  0.03017155  0.08133969
  0.12368573  0.15720968  0.18191154  0.19602688  0.19955572  0.19249805
  0.16956061  0.13250782  0.08133969  0.01252737 -0.07216471 -0.17450098
 -0.29095259 -0.42151955 -0.56620186 -0.72147068 -0.88556159 -1.05847459
 -1.23668085 -1.42018036 -1.60367987 -1.7889438  -1.9706789  -2.14712073
 -2.31474048 -2.47530255 -2.62174928 -2.75231624 -2.86700344 -2.96228203
 -3.0363876  -3.08932015 -3.11755085 -3.12460852 -3.10872875 -3.07167597
 -3.01345016 -2.93581575 -2.84053716 -2.7293788  -2.60586951 -2.4700093
 -2.32356257 -2.17358701 -2.01831819 -1.86481379 -1.71660265 -1.57897801
 -1.45370431 -1.34783921 -1.26491154 -1.20845015 -1.18198388 -1.18727713
 -1.22785875 -1.30019991 -1.40430059 -1.53663197 -1.69719405 -1.88069356
 -2.08183725 -2.2970963  -2.52294185 -2.75231624 -2.98521947 -3.21282944
 -3.43161732 -3.63452543 -3.81626053 -3.96623609 -4.07739445 -4.14444235
 -4.16032211 -4.12150491 -4.0244619  -3.87625075 -3.68216473 -3.45102592
 -3.19518526 -2.92699366 -2.66056648 -2.40825465 -2.17711585 -1.97597215
 -1.8083524  -1.67602102 -1.57544918 -1.5101657  -1.47311291 -1.46429082
 -1.48017058 -1.51898779 -1.57544918 -1.64955475 -1.73601125 -1.83481868
 -1.94421262 -2.05889981 -2.17888026 -2.30062513 -2.42413442 -2.54587929
 -2.66409532 -2.77525368 -2.87758995 -2.96581086 -3.0363876  -3.08226248
 -3.09990666 -3.0840269  -3.03109435 -2.93934459 -2.81054205 -2.64645114
 -2.45412953 -2.24239933 -2.01831819 -1.79423706 -1.5772136  -1.37783432
 -1.20139248 -1.05141692 -0.93320088 -0.84321555 -0.7814609  -0.74970137
 -0.74087928 -0.75675905 -0.790283   -0.84321555 -0.90849903 -0.9826046
 -1.06553226 -1.15198876 -1.23844527 -1.32137293 -1.39900734 -1.46605524
 -1.52604546 -1.57368476 -1.60897313 -1.6354394  -1.65308359 -1.66014126
 -1.66190568 -1.65837684 -1.64955475 -1.63896824 -1.62661731 -1.61250196
 -1.5966222  -1.58250685 -1.56662708 -1.5489829  -1.53310314 -1.51722337
 -1.5013436  -1.48546384 -1.46781966 -1.45017547 -1.43253129 -1.4148871
 -1.3954785  -1.37430548 -1.35489688 -1.33548828 -1.31607967 -1.30019991
 -1.2896134  -1.28432014 -1.28608456 -1.29843549 -1.31960851 -1.35313246
 -1.3954785  -1.45193989 -1.51722337 -1.59132894 -1.67249219 -1.75894869
 -1.85069845 -1.94068378 -2.03243354 -2.11889004 -2.2018177  -2.27592328
 -2.34473559 -2.4029614  -2.45589395 -2.50000441 -2.54235045 -2.58469649
 -2.63057137 -2.68703276 -2.76113833 -2.85994576 -2.98521947 -3.14578154
 -3.34163198 -3.57100637 -3.83037587 -4.11621165 -4.41969161 -4.72846483
 -5.03900247 -5.33895359 -5.62655379 -5.89474539 -6.14352838 -6.37466719
 -6.58816181 -6.78401225 -6.96574735 -7.13513151 -7.28687149 -7.42096729
 -7.53389007 -7.61505331 -7.65739935 -7.65387052 -7.59211587 -7.46507775
 -7.26746289 -6.9992713  -6.66756064 -6.28115301 -5.8576926  -5.41835242
 -4.98783434 -4.5908402  -4.25030745 -3.98211586 -3.80038076 -3.70863101
 -3.70686659 -3.78802983 -3.94329865 -4.15855769 -4.4179272  -4.70729181
 -5.01077177 -5.31248732 -5.59655868 -5.84710609 -6.04824979 -6.18234558
 -6.23880697 -6.20175418 -6.06589397 -5.82769749 -5.49069358 -5.06899758
 -4.57496043 -4.02975515]","[nan nan nan nan nan nan nan nan nan nan nan nan nan nan nan nan nan nan
 nan nan nan nan nan nan nan nan nan nan nan nan nan nan nan nan nan nan
 nan nan nan nan nan nan nan nan nan nan nan nan nan nan nan nan nan nan
 nan nan nan nan nan nan nan nan nan nan nan nan nan nan nan nan nan nan
 nan nan nan nan nan nan nan nan nan nan nan nan nan nan nan nan nan nan
 nan nan nan nan nan nan nan nan nan nan nan nan nan nan nan nan nan nan
 nan nan nan nan nan nan nan nan nan nan nan nan nan nan nan nan nan nan
 nan nan nan nan nan nan nan nan nan nan nan nan nan nan]",-0.44663310742897655,,5.667590000000001,-0.012534999999998853
055,1,2,csm,63a.png,1,1,196,NaN,196,1,1,610,neu_feedback_onset,11,"[ 0.25226597  0.19328774  0.13430951  0.07175685  0.0109914  -0.04798683
 -0.10517784 -0.15879441 -0.20347489 -0.23921927 -0.25887868 -0.26424034
 -0.24636815 -0.20526211 -0.13734778 -0.04262517  0.07890572  0.22188325
  0.38452018  0.56145487  0.74375121  0.92783478  1.11013112  1.28349137
  1.44970274  1.60340358  1.7463811   1.88042253  2.00552787  2.12169711
  2.23071747  2.33437618  2.430886    2.52024696  2.60424625  2.68109667
  2.749011    2.80977645  2.85981858  2.90271184  2.936669    2.95990285
  2.97598782  2.98313669  2.98134948  2.96883894  2.94739231  2.91343515
  2.86339302  2.79547869  2.70790496  2.59531016  2.45948151  2.29863179
  2.11276101  1.90186916  1.6713179   1.42289445  1.16017325  0.88851596
  0.60792256  0.32554195  0.04137412 -0.24279371 -0.52696154 -0.80934215
 -1.08814832 -1.36159284 -1.62610126 -1.87988637 -2.1175865  -2.33026557
 -2.51256192 -2.651965   -2.73775152 -2.76277258 -2.71630489 -2.59477399
 -2.39460546 -2.11937372 -1.77801488 -1.38125225 -0.9451708  -0.4858555
 -0.02117855  0.4327751   0.85992045  1.25489586  1.60697802  1.9143797
  2.1771009   2.39692884  2.57922519  2.72756437  2.85088248  2.95096675
  3.03496605  3.10645481  3.16900748  3.22441127  3.27802784  3.32806997
  3.37632489  3.4245798   3.4710475   3.51751519  3.56398289  3.61045058
  3.65691828  3.70338598  3.74985367  3.79632137  3.84278906  3.88925676
  3.93572445  3.98219215  4.02865984  4.07512754  4.12159524  4.16806293
  4.21631785  4.26278554  4.30925324  4.35750815  4.40576307  4.4558052
  4.50406011  4.55588947  4.6059316   4.65597374  4.70780309  4.756058
  4.80431292  4.84899339  4.89009943  4.92584381  4.95801376  4.98482204
  5.00626867  5.02414086  5.03665139  5.04558749  5.05273637  5.0563108
  5.05809802  5.05988524  5.05988524  5.05988524  5.05988524  5.05809802
  5.05809802  5.0563108   5.05452359  5.05452359  5.05273637  5.05094915
  5.05094915  5.04916193  5.04737471  5.04558749  5.04201305  5.03843861
  5.03307696  5.02414086  5.01163033  4.99197092  4.96516263  4.92763103
  4.87937612  4.81503623  4.73639859  4.64167598  4.5308684   4.40397585
  4.26457276  4.11444636  3.9589583   3.80347024  3.65155662  3.5085791
  3.37632489  3.26194287  3.16364582  3.08500818  3.02602995  2.98313669
  2.95811563  2.94560509  2.94560509  2.95454119  2.97062616  2.99028557
  3.01351942  3.0403277   3.06713599  3.09394428  3.12253978  3.14934807
  3.17615635  3.20117742  3.22798571  3.25300677  3.27981506  3.30662334
  3.33521885  3.36381435  3.3959843   3.42815424  3.46389862  3.499643
  3.5371746   3.57649342  3.61581224  3.65513106  3.69266266  3.73019426
  3.76593864  3.79810859  3.82849131  3.85351238  3.87495901  3.89104398
  3.90176729  3.90712895  3.90891617  3.90534173  3.90176729  3.89461842
  3.88746954  3.88210788  3.87853344  3.87853344  3.88210788  3.88925676
  3.89819285  3.91070339  3.92500114  3.93751167  3.95180943  3.96431996
  3.97504327  3.98397937  3.98755381  3.98934103  3.98576659  3.97683049
  3.96431996  3.94466055  3.9214267   3.89461842  3.86244847  3.82670409
  3.78738527  3.74627923  3.70159876  3.65513106  3.60866337  3.56040845
  3.51215354  3.46389862]","[nan nan nan nan nan nan nan nan nan nan nan nan nan nan nan nan nan nan
 nan nan nan nan nan nan nan nan nan nan nan nan nan nan nan nan nan nan
 nan nan nan nan nan nan nan nan nan nan nan nan nan nan nan nan nan nan
 nan nan nan nan nan nan nan nan nan nan nan nan nan nan nan nan nan nan
 nan nan nan nan nan nan nan nan nan nan nan nan nan nan nan nan nan nan
 nan nan nan nan nan nan nan nan nan nan nan nan nan nan nan nan nan nan
 nan nan nan nan nan nan nan nan nan nan nan nan nan nan nan nan nan nan
 nan nan nan nan nan nan nan nan nan nan nan nan nan nan]",4.9475138442456705,,5.595284999999999,-0.16690000000000005
055,1,2,csm,28a.png,1,1,312,316,312,1,1,188,neu_feedback_onset,12,"[nan nan nan nan nan nan nan nan nan nan nan nan nan nan nan nan nan nan
 nan nan nan nan nan nan nan nan nan nan nan nan nan nan nan nan nan nan
 nan nan nan nan nan nan nan nan nan nan nan nan nan nan nan nan nan nan
 nan nan nan nan nan nan nan nan nan nan nan nan nan nan nan nan nan nan
 nan nan nan nan nan nan nan nan nan nan nan nan nan nan nan nan nan nan
 nan nan nan nan nan nan nan nan nan nan nan nan nan nan nan nan nan nan
 nan nan nan nan nan nan nan nan nan nan nan nan nan nan nan nan nan nan
 nan nan nan nan nan nan nan nan nan nan nan nan nan nan nan nan nan nan
 nan nan nan nan nan nan nan nan nan nan nan nan nan nan nan nan nan nan
 nan nan nan nan nan nan nan nan nan nan nan nan nan nan nan nan nan nan
 nan nan nan nan nan nan nan nan nan nan nan nan nan nan nan nan nan nan
 nan nan nan nan nan nan nan nan nan nan nan nan nan nan nan nan nan nan
 nan nan nan nan nan nan nan nan nan nan nan nan nan nan nan nan nan nan
 nan nan nan nan nan nan nan nan nan nan nan nan nan nan nan nan nan nan
 nan nan nan nan nan nan nan nan]","[nan nan nan nan nan nan nan nan nan nan nan nan nan nan nan nan nan nan
 nan nan nan nan nan nan nan nan nan nan nan nan nan nan nan nan nan nan
 nan nan nan nan nan nan nan nan nan nan nan nan nan nan nan nan nan nan
 nan nan nan nan nan nan nan nan nan nan nan nan nan nan nan nan nan nan
 nan nan nan nan nan nan nan nan nan nan nan nan nan nan nan nan nan nan
 nan nan nan nan nan nan nan nan nan nan nan nan nan nan nan nan nan nan
 nan nan nan nan nan nan nan nan nan nan nan nan nan nan nan nan nan nan
 nan nan nan nan nan nan nan nan nan nan nan nan nan nan]",,,5.80322,
055,1,2,csp,25b.png,1,1,308,267,NaN,0,1,841,neg_feedback_onset,13,"[ 8.97240265e-01  8.74452098e-01  8.34134571e-01  7.78040621e-01
  7.04417311e-01  6.16770514e-01  5.15100228e-01  4.04665264e-01
  2.85465619e-01  1.57501295e-01  2.60310988e-02 -1.10697905e-01
 -2.49179845e-01 -3.89414721e-01 -5.31402533e-01 -6.75143281e-01
 -8.18884028e-01 -9.62624776e-01 -1.10636552e+00 -1.25010627e+00
 -1.39209408e+00 -1.53232896e+00 -1.66730503e+00 -1.79877522e+00
 -1.92323368e+00 -2.03892745e+00 -2.14235067e+00 -2.22999747e+00
 -2.30186784e+00 -2.35620886e+00 -2.38776170e+00 -2.39827932e+00
 -2.38776170e+00 -2.35796179e+00 -2.31063252e+00 -2.24577389e+00
 -2.17039764e+00 -2.08450378e+00 -1.99335111e+00 -1.90044551e+00
 -1.80753990e+00 -1.71814017e+00 -1.63575218e+00 -1.56037593e+00
 -1.49376437e+00 -1.43767042e+00 -1.39384702e+00 -1.36229417e+00
 -1.34125894e+00 -1.33249426e+00 -1.33600013e+00 -1.34827068e+00
 -1.36930592e+00 -1.39910583e+00 -1.43065867e+00 -1.46571739e+00
 -1.50077611e+00 -1.53057602e+00 -1.55511713e+00 -1.56914061e+00
 -1.57264649e+00 -1.56388181e+00 -1.54284658e+00 -1.50603492e+00
 -1.45519978e+00 -1.39384702e+00 -1.31847077e+00 -1.23608278e+00
 -1.14493011e+00 -1.04676570e+00 -9.46848353e-01 -8.43425132e-01
 -7.40001911e-01 -6.38331626e-01 -5.38414277e-01 -4.43755735e-01
 -3.50850130e-01 -2.63203333e-01 -1.77309471e-01 -9.66744176e-02
 -1.77922999e-02  6.10898178e-02  1.38219000e-01  2.15348181e-01
  2.94230299e-01  3.74865353e-01  4.57253342e-01  5.43147204e-01
  6.32546937e-01  7.23699606e-01  8.16605212e-01  9.13016689e-01
  1.01118110e+00  1.11109845e+00  1.21276874e+00  1.31268609e+00
  1.41435637e+00  1.51602666e+00  1.61769694e+00  1.71586135e+00
  1.81402577e+00  1.91043724e+00  2.00334285e+00  2.09449552e+00
  2.18038938e+00  2.26102443e+00  2.33815362e+00  2.41002399e+00
  2.47663555e+00  2.53798831e+00  2.59408226e+00  2.64491741e+00
  2.68874080e+00  2.72555246e+00  2.75535237e+00  2.77814054e+00
  2.79391696e+00  2.80092871e+00  2.80092871e+00  2.79041109e+00
  2.77463467e+00  2.75009356e+00  2.72029365e+00  2.68348200e+00
  2.64316447e+00  2.59583520e+00  2.54675299e+00  2.49241198e+00
  2.43631803e+00  2.37847114e+00  2.31887132e+00  2.25751856e+00
  2.19441287e+00  2.13130717e+00  2.06820148e+00  2.00509578e+00
  1.94199009e+00  1.87713146e+00  1.81227283e+00  1.74916714e+00
  1.68430851e+00  1.62120281e+00  1.55634418e+00  1.49148555e+00
  1.42837986e+00  1.36352123e+00  1.30041553e+00  1.23555690e+00
  1.17069827e+00  1.10759258e+00  1.04273395e+00  9.77875319e-01
  9.14769625e-01  8.49910995e-01  7.86805301e-01  7.21946670e-01
  6.57088040e-01  5.93982346e-01  5.29123716e-01  4.66018022e-01
  4.02912328e-01  3.39806634e-01  2.80206811e-01  2.20606989e-01
  1.64513039e-01  1.11924960e-01  6.81015616e-02  3.12899067e-02
  4.99586745e-03 -7.27468419e-03 -2.01587634e-03  2.07722910e-02
  6.45956897e-02  1.31207256e-01  2.20606989e-01  3.31041954e-01
  4.60759214e-01  6.09758770e-01  7.71028877e-01  9.44569536e-01
  1.12336900e+00  1.30567434e+00  1.48447381e+00  1.65801447e+00
  1.82103751e+00  1.96828413e+00  2.09975433e+00  2.21194223e+00
  2.30134196e+00  2.36795353e+00  2.41177692e+00  2.43631803e+00
  2.44157684e+00  2.42930628e+00  2.40651812e+00  2.37671821e+00
  2.34341242e+00  2.30835370e+00  2.27855379e+00  2.25576563e+00
  2.23998920e+00  2.23297746e+00  2.23297746e+00  2.24174214e+00
  2.25401269e+00  2.27154205e+00  2.28907141e+00  2.30309490e+00
  2.31361251e+00  2.31536545e+00  2.30660077e+00  2.28205966e+00
  2.23998920e+00  2.17688351e+00  2.09274258e+00  1.98581349e+00
  1.85609623e+00  1.70884961e+00  1.54407363e+00  1.37053297e+00
  1.18998057e+00  1.01118110e+00  8.41146315e-01  6.85135016e-01
  5.48406012e-01  4.37971047e-01  3.55583057e-01  3.06500851e-01
  2.88971491e-01  3.02994979e-01  3.48571313e-01  4.20441687e-01
  5.13347293e-01  6.25535193e-01  7.48240710e-01  8.76205034e-01
  1.00416936e+00  1.12862781e+00  1.24607452e+00  1.35475655e+00
  1.44941509e+00  1.53355601e+00  1.60717932e+00  1.66853208e+00
  1.72112016e+00  1.76494356e+00  1.80350815e+00  1.83681393e+00
  1.86661384e+00  1.89290788e+00  1.91569605e+00  1.93673128e+00
  1.95601358e+00  1.97179000e+00  1.98756643e+00  2.00158991e+00
  2.01736634e+00  2.03314276e+00  2.05067212e+00  2.07170735e+00]","[nan nan nan nan nan nan nan nan nan nan nan nan nan nan nan nan nan nan
 nan nan nan nan nan nan nan nan nan nan nan nan nan nan nan nan nan nan
 nan nan nan nan nan nan nan nan nan nan nan nan nan nan nan nan nan nan
 nan nan nan nan nan nan nan nan nan nan nan nan nan nan nan nan nan nan
 nan nan nan nan nan nan nan nan nan nan nan nan nan nan nan nan nan nan
 nan nan nan nan nan nan nan nan nan nan nan nan nan nan nan nan nan nan
 nan nan nan nan nan nan nan nan nan nan nan nan nan nan nan nan nan nan
 nan nan nan nan nan nan nan nan nan nan nan nan nan nan]",2.3796981970177264,,5.704715,
055,1,2,csp,28b.png,1,1,212,236,210,1,0,784,neg_feedback_onset,14,"[ 5.31953035e-01  5.03624699e-01  4.71755321e-01  4.39885943e-01
  4.02705002e-01  3.61983019e-01  3.15949473e-01  2.62833843e-01
  2.04406650e-01  1.38897373e-01  6.63060115e-02 -1.51379546e-02
 -1.01893484e-01 -1.93960576e-01 -2.93109752e-01 -3.97570491e-01
 -5.03801751e-01 -6.15344574e-01 -7.30428440e-01 -8.49053347e-01
 -9.67678254e-01 -1.09161472e+00 -1.21555119e+00 -1.34125819e+00
 -1.46519466e+00 -1.58913113e+00 -1.70952655e+00 -1.82461042e+00
 -1.93084168e+00 -2.02822033e+00 -2.11497586e+00 -2.18756722e+00
 -2.24953546e+00 -2.29733953e+00 -2.33274995e+00 -2.35753724e+00
 -2.37347193e+00 -2.38409506e+00 -2.38940662e+00 -2.39294766e+00
 -2.39648870e+00 -2.40180027e+00 -2.41065287e+00 -2.42481704e+00
 -2.44606329e+00 -2.47262111e+00 -2.50626100e+00 -2.54875351e+00
 -2.59832810e+00 -2.65498477e+00 -2.72049405e+00 -2.79308541e+00
 -2.87098833e+00 -2.95243230e+00 -3.03741731e+00 -3.12063179e+00
 -3.20207576e+00 -3.27820816e+00 -3.34725848e+00 -3.40745620e+00
 -3.45880130e+00 -3.49952329e+00 -3.53139267e+00 -3.55263892e+00
 -3.56326204e+00 -3.56326204e+00 -3.54909788e+00 -3.52254006e+00
 -3.47650651e+00 -3.41099724e+00 -3.32424171e+00 -3.21269888e+00
 -3.07459825e+00 -2.91171031e+00 -2.72757613e+00 -2.52396621e+00
 -2.30796265e+00 -2.08487701e+00 -1.86179136e+00 -1.64401728e+00
 -1.43863684e+00 -1.24742057e+00 -1.07390951e+00 -9.19874187e-01
 -7.85314591e-01 -6.70230725e-01 -5.72852070e-01 -4.93178625e-01
 -4.29439869e-01 -3.78094760e-01 -3.39143298e-01 -3.09044441e-01
 -2.87798189e-01 -2.71863500e-01 -2.63010895e-01 -2.55928811e-01
 -2.52387769e-01 -2.48846727e-01 -2.48846727e-01 -2.47076206e-01
 -2.45305685e-01 -2.43535164e-01 -2.39994122e-01 -2.34682559e-01
 -2.27600475e-01 -2.16977349e-01 -2.02813181e-01 -1.85107971e-01
 -1.62091198e-01 -1.31992341e-01 -9.65819207e-02 -5.58599376e-02
 -8.05587056e-03  4.32892385e-02  1.01716432e-01  1.61914146e-01
  2.25652902e-01  2.89391658e-01  3.54900935e-01  4.16869170e-01
  4.78837405e-01  5.37264598e-01  5.93921270e-01  6.50577942e-01
  7.05464093e-01  7.60350244e-01  8.18777438e-01  8.78975152e-01
  9.44484429e-01  1.01530527e+00  1.08966715e+00  1.16934060e+00
  1.25432560e+00  1.34462218e+00  1.43845979e+00  1.53583844e+00
  1.63498762e+00  1.73590732e+00  1.84036806e+00  1.94305827e+00
  2.04751901e+00  2.15197975e+00  2.25821101e+00  2.36267175e+00
  2.46890301e+00  2.57336375e+00  2.67959501e+00  2.78405575e+00
  2.88851649e+00  2.99474775e+00  3.09743797e+00  3.20189871e+00
  3.30458892e+00  3.40373810e+00  3.50288728e+00  3.59495437e+00
  3.68170990e+00  3.76138334e+00  3.82866314e+00  3.88354929e+00
  3.91895971e+00  3.93312388e+00  3.92427128e+00  3.88886086e+00
  3.82335158e+00  3.72951397e+00  3.60734802e+00  3.45862425e+00
  3.28688371e+00  3.09743797e+00  2.89382805e+00  2.68136553e+00
  2.46536197e+00  2.24935841e+00  2.04043693e+00  1.83859753e+00
  1.64738127e+00  1.46678812e+00  1.29858863e+00  1.14632382e+00
  1.00822318e+00  8.84286715e-01  7.79825975e-01  6.91299925e-01
  6.24020127e-01  5.72675018e-01  5.42576161e-01  5.28411993e-01
  5.31953035e-01  5.46117203e-01  5.69133976e-01  5.95691791e-01
  6.22249606e-01  6.43495858e-01  6.55889505e-01  6.55889505e-01
  6.39954816e-01  6.08085438e-01  5.60281371e-01  5.00083657e-01
  4.27492296e-01  3.47818851e-01  2.66374885e-01  1.88471961e-01
  1.19421642e-01  5.92239275e-02  1.14198605e-02 -2.22200386e-02
 -4.16957696e-02 -4.70073326e-02 -4.34662906e-02 -2.75316016e-02
 -2.74430755e-03  3.08955915e-02  7.51586166e-02  1.31815289e-01
  2.04406650e-01  3.01785305e-01  4.27492296e-01  5.90380228e-01
  7.97531186e-01  1.05956829e+00  1.37826207e+00  1.75538305e+00
  2.18739017e+00  2.66543084e+00  3.17534089e+00  3.70118563e+00
  4.21817776e+00  4.70507104e+00  5.14238973e+00  5.50888757e+00
  5.79217093e+00  5.98338720e+00  6.07722481e+00  6.07899534e+00
  5.99046929e+00  5.82226979e+00  5.58324945e+00  5.28580193e+00
  4.94232085e+00  4.56165884e+00  4.15266848e+00  3.72420240e+00
  3.28511319e+00  2.83717138e+00  2.38922957e+00  1.94659932e+00
  1.51282167e+00  1.09320819e+00  6.94840967e-01  3.23031557e-01
 -1.69084756e-02 -3.19667567e-01 -5.81704675e-01 -8.03019801e-01
 -9.81842422e-01 -1.12171358e+00 -1.22440380e+00 -1.29876568e+00]","[-1.20902078 -1.02188257 -0.84014258 -0.66380081 -0.49645607 -0.33810836
 -0.19055708 -0.05740105  0.06315914  0.16932409  0.25929438  0.33486943
  0.39604922  0.44283378  0.4806213   0.50761239  0.52560644  0.53820229
  0.54719931  0.55259753  0.55439694  0.55619634  0.55439694  0.55439694
  0.55259753  0.55259753  0.55079813  0.54899872  0.54719931  0.54539991
  0.5436005   0.5418011   0.54000169  0.53820229  0.53820229  0.53640288
  0.53460347  0.53280407  0.53100466  0.52920526  0.52740585  0.52560644
  0.52380704  0.52200763  0.52020823  0.52020823  0.51840882  0.51660942
  0.51481001  0.5130106   0.5112112   0.50941179  0.50761239  0.50581298
  0.50401357  0.50221417  0.50221417  0.50041476  0.49861536  0.49681595
  0.49501655  0.49321714  0.49141773  0.48961833  0.48781892  0.48601952
  0.48422011  0.48422011  0.4824207   0.4806213   0.47882189  0.47882189
  0.47882189  0.47882189  0.4806213   0.48422011  0.48961833  0.49681595
  0.50761239  0.52020823  0.53820229  0.55979516  0.58498684  0.61377733
  0.64616664  0.68035535  0.71634346  0.75413099  0.79191851  0.82610722
  0.85669712  0.88008939  0.89628405  0.89988286  0.88908642  0.86029593
  0.81531078  0.75053217  0.6659601   0.56159456  0.44103437  0.30787834
  0.16212647  0.00917697 -0.14557193 -0.30212024 -0.45506974 -0.60621983
 -0.75017229 -0.88872654 -1.02188257 -1.15143979 -1.27379939 -1.39435958
 -1.51132096 -1.62288412 -1.73264788 -1.83701342 -1.93418133 -2.02055281
 -2.09612786 -2.15370885 -2.18789756 -2.19869399 -2.17710112 -2.12311895
 -2.03494806 -1.91258846 -1.75963897 -1.57969838 -1.38176374 -1.17123326
 -0.95530456 -0.73757645 -0.52524656 -0.3201143  -0.12577847  0.05956033
  0.23230329  0.39424982]",2.8777163111902917,0.3142662292910908,5.648055000000001,-0.05581999999999976
055,2,2,csm,17a.png,1,0,0,NaN,1,1,0,211,neu_feedback_onset,1,"[nan nan nan nan nan nan nan nan nan nan nan nan nan nan nan nan nan nan
 nan nan nan nan nan nan nan nan nan nan nan nan nan nan nan nan nan nan
 nan nan nan nan nan nan nan nan nan nan nan nan nan nan nan nan nan nan
 nan nan nan nan nan nan nan nan nan nan nan nan nan nan nan nan nan nan
 nan nan nan nan nan nan nan nan nan nan nan nan nan nan nan nan nan nan
 nan nan nan nan nan nan nan nan nan nan nan nan nan nan nan nan nan nan
 nan nan nan nan nan nan nan nan nan nan nan nan nan nan nan nan nan nan
 nan nan nan nan nan nan nan nan nan nan nan nan nan nan nan nan nan nan
 nan nan nan nan nan nan nan nan nan nan nan nan nan nan nan nan nan nan
 nan nan nan nan nan nan nan nan nan nan nan nan nan nan nan nan nan nan
 nan nan nan nan nan nan nan nan nan nan nan nan nan nan nan nan nan nan
 nan nan nan nan nan nan nan nan nan nan nan nan nan nan nan nan nan nan
 nan nan nan nan nan nan nan nan nan nan nan nan nan nan nan nan nan nan
 nan nan nan nan nan nan nan nan nan nan nan nan nan nan nan nan nan nan
 nan nan nan nan nan nan nan nan]","[nan nan nan nan nan nan nan nan nan nan nan nan nan nan nan nan nan nan
 nan nan nan nan nan nan nan nan nan nan nan nan nan nan nan nan nan nan
 nan nan nan nan nan nan nan nan nan nan nan nan nan nan nan nan nan nan
 nan nan nan nan nan nan nan nan nan nan nan nan nan nan nan nan nan nan
 nan nan nan nan nan nan nan nan nan nan nan nan nan nan nan nan nan nan
 nan nan nan nan nan nan nan nan nan nan nan nan nan nan nan nan nan nan
 nan nan nan nan nan nan nan nan nan nan nan nan nan nan nan nan nan nan
 nan nan nan nan nan nan nan nan nan nan nan nan nan nan]",,,5.540284999999999,
055,2,2,csm,52a.png,1,1,332,274,334,1,1,505,neu_feedback_onset,2,"[-1.63675782e+00 -1.50256018e+00 -1.33571988e+00 -1.14530431e+00
 -9.38567404e-01 -7.24576575e-01 -5.08772264e-01 -2.98408398e-01
 -9.89254215e-02  8.78631837e-02  2.58330454e-01  4.16103354e-01
  5.59368401e-01  6.89939076e-01  8.07815380e-01  9.12997313e-01
  1.00548488e+00  1.08527807e+00  1.15419037e+00  1.21222178e+00
  1.25755882e+00  1.29382845e+00  1.32284416e+00  1.34279245e+00
  1.35730031e+00  1.36636771e+00  1.37180816e+00  1.37543512e+00
  1.37724860e+00  1.37724860e+00  1.37724860e+00  1.37543512e+00
  1.37362164e+00  1.37180816e+00  1.36999468e+00  1.36636771e+00
  1.36092727e+00  1.35548682e+00  1.34460593e+00  1.33009808e+00
  1.30833630e+00  1.27750712e+00  1.23579704e+00  1.18139259e+00
  1.11066681e+00  1.02180621e+00  9.16624277e-01  7.93307527e-01
  6.53669444e-01  5.01336989e-01  3.38123645e-01  1.67656374e-01
 -2.81089649e-03 -1.69651204e-01 -3.23797140e-01 -4.57994779e-01
 -5.64990194e-01 -6.39342939e-01 -6.75612571e-01 -6.70172127e-01
 -6.23021605e-01 -5.35974488e-01 -4.18098184e-01 -2.76646619e-01
 -1.20687201e-01  3.88991804e-02  1.91231635e-01  3.32683200e-01
  4.54186468e-01  5.55741437e-01  6.35534628e-01  6.99006484e-01
  7.44343524e-01  7.76986193e-01  7.98747972e-01  8.13255825e-01
  8.20509752e-01  8.24136715e-01  8.20509752e-01  8.11442344e-01
  7.98747972e-01  7.80613156e-01  7.58851377e-01  7.31649153e-01
  6.99006484e-01  6.60923370e-01  6.17399812e-01  5.66622327e-01
  5.06777434e-01  4.39678615e-01  3.61698906e-01  2.71024826e-01
  1.71283337e-01  5.88474780e-02 -6.62827526e-02 -2.00480391e-01
 -3.47372401e-01 -5.01518337e-01 -6.62918200e-01 -8.31571989e-01
 -1.00203926e+00 -1.17250653e+00 -1.34116032e+00 -1.50074670e+00
 -1.64945219e+00 -1.77820939e+00 -1.87976436e+00 -1.94867666e+00
 -1.97769236e+00 -1.95774407e+00 -1.88883176e+00 -1.76914198e+00
 -1.60048819e+00 -1.39012432e+00 -1.15074475e+00 -8.91416882e-01
 -6.26648568e-01 -3.70947662e-01 -1.33381572e-01  7.51688125e-02
  2.52890010e-01  3.92528093e-01  4.97710026e-01  5.72062772e-01
  6.15586330e-01  6.35534628e-01  6.35534628e-01  6.19213294e-01
  5.92011069e-01  5.53927956e-01  5.08590916e-01  4.57813431e-01
  4.03408983e-01  3.43564090e-01  2.78278752e-01  2.09366451e-01
  1.33200224e-01  5.15935516e-02 -3.72670470e-02 -1.35195054e-01
 -2.40376987e-01 -3.52812846e-01 -4.74316113e-01 -6.03073307e-01
 -7.37270946e-01 -8.76909029e-01 -1.02017408e+00 -1.16525260e+00
 -1.31033113e+00 -1.45359618e+00 -1.59142078e+00 -1.72017798e+00
 -1.83986776e+00 -1.94504969e+00 -2.03028333e+00 -2.09375519e+00
 -2.13365178e+00 -2.14271919e+00 -2.12277089e+00 -2.07199341e+00
 -1.99220022e+00 -1.88339132e+00 -1.74738020e+00 -1.59142078e+00
 -1.41551307e+00 -1.22328402e+00 -1.01836059e+00 -8.04369765e-01
 -5.81311528e-01 -3.47372401e-01 -1.04365866e-01  1.53148521e-01
  4.26984244e-01  7.24395227e-01  1.04719495e+00  1.39901038e+00
  1.78346848e+00  2.19512881e+00  2.62673743e+00  3.06741346e+00
  3.50083556e+00  3.90524196e+00  4.26068435e+00  4.54721445e+00
  4.75032439e+00  4.86276025e+00  4.87908158e+00  4.81016928e+00
  4.66146379e+00  4.45109992e+00  4.19358553e+00  3.90524196e+00
  3.59695009e+00  3.27959081e+00  2.95860456e+00  2.63943180e+00
  2.32388600e+00  2.01015368e+00  1.70186181e+00  1.39356994e+00
  1.08709155e+00  7.82426638e-01  4.77761728e-01  1.74910301e-01
 -1.29754609e-01 -4.32606037e-01 -7.35457464e-01 -1.03830889e+00
 -1.34116032e+00 -1.64038478e+00 -1.93779577e+00 -2.22976631e+00
 -2.51448292e+00 -2.78650516e+00 -3.04220606e+00 -3.27433171e+00
 -3.47381469e+00 -3.63340107e+00 -3.74402344e+00 -3.79842789e+00
 -3.79298745e+00 -3.72588863e+00 -3.59894492e+00 -3.41941024e+00
 -3.19816548e+00 -2.94609154e+00 -2.68313671e+00 -2.42018187e+00
 -2.17173489e+00 -1.94867666e+00 -1.75826109e+00 -1.60411515e+00
 -1.48986581e+00 -1.41188610e+00 -1.36836254e+00 -1.35204121e+00
 -1.36110862e+00 -1.38649736e+00 -1.42276699e+00 -1.46629055e+00
 -1.50800063e+00 -1.54608374e+00 -1.57509945e+00 -1.59323426e+00
 -1.59867471e+00 -1.58960730e+00 -1.56784552e+00 -1.53520285e+00
 -1.48986581e+00 -1.43546136e+00 -1.37380299e+00 -1.30489069e+00
 -1.23416491e+00 -1.15799868e+00 -1.08001897e+00 -1.00203926e+00
 -9.22246070e-01 -8.42452879e-01 -7.62659688e-01 -6.81053016e-01]","[nan nan nan nan nan nan nan nan nan nan nan nan nan nan nan nan nan nan
 nan nan nan nan nan nan nan nan nan nan nan nan nan nan nan nan nan nan
 nan nan nan nan nan nan nan nan nan nan nan nan nan nan nan nan nan nan
 nan nan nan nan nan nan nan nan nan nan nan nan nan nan nan nan nan nan
 nan nan nan nan nan nan nan nan nan nan nan nan nan nan nan nan nan nan
 nan nan nan nan nan nan nan nan nan nan nan nan nan nan nan nan nan nan
 nan nan nan nan nan nan nan nan nan nan nan nan nan nan nan nan nan nan
 nan nan nan nan nan nan nan nan nan nan nan nan nan nan]",2.1289820655736573,,5.514255000000001,0.14778000000000002
055,2,2,csp,27b.png,1,1,156,NaN,164,1,0,301,neg_feedback_onset,3,"[-0.4857994  -0.49110193 -0.4840319  -0.46458932 -0.43454169 -0.39035401
 -0.33556128 -0.2701635  -0.1976957  -0.11815787 -0.03508502  0.05152284
  0.13989821  0.22827358  0.32018396  0.41032684  0.50223722  0.59414761
  0.68429048  0.77620087  0.86811125  0.95825413  1.05016451  1.14030739
  1.23045026  1.31882563  1.40543349  1.48850634  1.56804417  1.64051198
  1.70767726  1.766005    1.81196019  1.84731034  1.86852043  1.87559046
  1.86852043  1.84554283  1.81019268  1.76070248  1.70237473  1.63520945
  1.55920664  1.4796688   1.39482845  1.30822059  1.21807771  1.12793484
  1.03602445  0.94411407  0.85220368  0.75852579  0.66661541  0.57470503
  0.48102713  0.38911675  0.29543886  0.20352847  0.11161809  0.0179402
 -0.07397018 -0.16588057 -0.25779095 -0.34970134 -0.43984421 -0.52821958
 -0.61305994 -0.69436527 -0.76860058 -0.83223085 -0.88525607 -0.92237373
 -0.9400488  -0.93828129 -0.91000118 -0.86051097 -0.78627566 -0.69259777
 -0.5812448  -0.45751929 -0.32849125 -0.1976957  -0.06866766  0.05152284
  0.16287581  0.26539123  0.35553411  0.43507194  0.50577224  0.56586749
  0.61889271  0.66308039  0.70373306  0.7373157   0.76736333  0.79564345
  0.82038855  0.84513365  0.86811125  0.89285635  0.91760146  0.94411407
  0.96885917  0.99360427  1.01658187  1.03602445  1.05193202  1.06253706
  1.06783958  1.06430457  1.05193202  1.03072193  1.00244181  0.96532416
  0.92290398  0.87694879  0.82922609  0.78150339  0.73908321  0.70196556
  0.67191793  0.65070784  0.63656778  0.63126526  0.63126526  0.63833529
  0.64717283  0.66131289  0.67545295  0.69312802  0.71080309  0.72847817
  0.74615324  0.76206081  0.77796837  0.79387594  0.80624849  0.81508603
  0.82392357  0.82745858  0.82745858  0.82392357  0.81685354  0.80448098
  0.79034093  0.77089834  0.74968826  0.72671066  0.70019805  0.67368544
  0.64540532  0.61535769  0.58531007  0.55526244  0.52521482  0.49516719
  0.46335206  0.43330443  0.4014893   0.36790666  0.33432402  0.29897387
  0.26008871  0.21943604  0.17348085  0.12399064  0.06919791  0.00733516
 -0.05983012 -0.13229793 -0.20830074 -0.28783858 -0.36914392 -0.45044926
 -0.52645207 -0.59715237 -0.65901513 -0.71027284 -0.749158   -0.77390311
 -0.78450815 -0.77920563 -0.76153056 -0.72971542 -0.68729525 -0.63603753
 -0.5794773  -0.52114955 -0.46458932 -0.41156409 -0.36914392 -0.3408638
 -0.33202626 -0.34616632 -0.38505148 -0.45575178 -0.5564997  -0.68906275
 -0.85167343 -1.04256423 -1.25643262 -1.48797609 -1.73189211 -1.98287816
 -2.23563171 -2.48661776 -2.73230129 -2.96914727 -3.19362071 -3.40218658
 -3.58954237 -3.74861803 -3.87234355 -3.95364889 -3.9801615  -3.94481135
 -3.84229592 -3.6690802  -3.42516418 -3.1193854  -2.7605814  -2.36112474
 -1.93869047 -1.50741867 -1.08498441 -0.68199272 -0.31081617  0.02501023
  0.32018396  0.57470503  0.78857342  0.96532416  1.10672475  1.2163102
  1.29408053  1.34533824  1.37185085  1.37361836  1.35240827  1.31352311
  1.25696287  1.18449507  1.09965472  1.00420932  0.90169389  0.79387594
  0.68605799  0.57824004  0.4739571   0.37497669  0.28306631  0.19822595
  0.12045563  0.05152284 -0.01210743 -0.06866766 -0.11992538 -0.16588057
 -0.21006825 -0.25072092]","[nan nan nan nan nan nan nan nan nan nan nan nan nan nan nan nan nan nan
 nan nan nan nan nan nan nan nan nan nan nan nan nan nan nan nan nan nan
 nan nan nan nan nan nan nan nan nan nan nan nan nan nan nan nan nan nan
 nan nan nan nan nan nan nan nan nan nan nan nan nan nan nan nan nan nan
 nan nan nan nan nan nan nan nan nan nan nan nan nan nan nan nan nan nan
 nan nan nan nan nan nan nan nan nan nan nan nan nan nan nan nan nan nan
 nan nan nan nan nan nan nan nan nan nan nan nan nan nan nan nan nan nan
 nan nan nan nan nan nan nan nan nan nan nan nan nan nan]",1.2634142763339058,,5.657684999999998,-0.13455500000000153
055,2,2,csp,39b.png,1,0,184,NaN,176,1,1,394,pos_feedback_onset,4,"[-0.36994253 -0.2490654  -0.13208752 -0.02680743  0.05897635  0.12526381
  0.17010533  0.19155127  0.19740017  0.18765201  0.1681557   0.14086086
  0.10966676  0.0745734   0.03363114 -0.01121038 -0.06385042 -0.12623863
 -0.19837498 -0.2802595  -0.36994253 -0.46937373 -0.57270419 -0.67798428
 -0.78131473 -0.88074593 -0.9723786  -1.05231348 -1.12055058 -1.17514025
 -1.21803214 -1.24532698 -1.26092403 -1.26677292 -1.26482329 -1.25507513
 -1.24532698 -1.23557882 -1.2277803  -1.22388103 -1.2277803  -1.23752845
 -1.25507513 -1.28042034 -1.31356407 -1.34865744 -1.38765006 -1.42469305
 -1.45783679 -1.48123236 -1.49098052 -1.48318199 -1.44808863 -1.37985154
 -1.27847071 -1.13614763 -0.95288229 -0.73062432 -0.47522262 -0.19252609
  0.1057675   0.41380924  0.72185098  1.02014457  1.3028411   1.56604132
  1.81169486  2.03590246  2.24061374  2.42972798  2.5993459   2.75336677
  2.88789133  3.00291957  3.09260261  3.15694044  3.19008418  3.18813454
  3.15304118  3.08090482  2.97172547  2.82745276  2.65003631  2.44142577
  2.20941964  1.95401795  1.68496883  1.40617156  1.12347502  0.84467775
  0.57562863  0.32802546  0.10966676 -0.06774969 -0.19837498 -0.2744106
 -0.28610839 -0.23541798 -0.12233936  0.04532893  0.25978837  0.50934117
  0.77839029  1.05523793  1.32818631  1.5894369   1.83314081  2.05344914
  2.25426116  2.43362724  2.59154737  2.72997119  2.85084833  2.95417879
  3.03801294  3.10235077  3.14524266  3.16863823  3.16863823  3.14914192
  3.11014929  3.05166035  2.979524    2.89568985  2.80405718  2.70852525
  2.61104369  2.51746139  2.42972798  2.3497931   2.28350563  2.22696632
  2.18602407  2.1567796   2.13923292  2.13143439  2.13338402  2.13923292
  2.14508181  2.15093071  2.14898107  2.13728329  2.11193808  2.07099582
  2.01250688  1.93452163  1.8389897   1.72396146  1.59333616  1.44711381
  1.28919368  1.12347502  0.94995784  0.77449102  0.59707458  0.42160776
  0.24809058  0.07847266 -0.087246   -0.24711576 -0.40113664 -0.54930861
 -0.68968206 -0.82225699 -0.94898302 -1.0659609  -1.17514025 -1.27457145
 -1.36620412 -1.44808863 -1.52607388 -1.59626061 -1.6644977  -1.72883553
 -1.79317337 -1.8575112  -1.92379866 -1.99008612 -2.06027285 -2.13045958
 -2.2006463  -2.27083303 -2.33517086 -2.3936598  -2.44435021 -2.48334284
 -2.51063768 -2.52623473 -2.52428509 -2.50673841 -2.47359468 -2.42290427
 -2.35466717 -2.2688834  -2.16360331 -2.03882691 -1.89260456 -1.72298664
 -1.52412425 -1.29601739 -1.02891791 -0.7228258  -0.3679929   0.03558077
  0.49569375  1.01234604  1.58553764  2.21136927  2.88789133  3.60535564
  4.35791331  5.13191693  5.9156687   6.69357158  7.45002851  8.16554319
  8.8206193   9.38991163  9.85782314 10.19900861 10.40177027 10.45441031
 10.35107985 10.09957742  9.70965116  9.20274703  8.60031097  7.93158744
  7.22582092  6.50835661  5.80453972  5.13581619  4.51778307  3.9582389
  3.45913329  3.02046625  2.63833852  2.29910268  1.9949602   1.7142133
  1.44711381  1.18781285  0.93241116  0.67700946  0.42160776  0.17205496
 -0.07359858 -0.30755433 -0.52786267 -0.73257395 -0.91973855 -1.08935648
 -1.24142771 -1.37985154 -1.50267831 -1.61575692 -1.71908738 -1.81461931
 -1.90625198 -1.99203576]","[-1.25873001 -1.21583399 -1.1532773  -1.07284727 -0.97454389 -0.85657985
 -0.72431713 -0.5759684  -0.41510833 -0.24173693 -0.05764152  0.13539055
  0.33378464  0.53754072  0.74487147  0.95220222  1.15953297  1.36328905
  1.56347047  1.75650254  1.94238529  2.11754402  2.28197876  2.43032748
  2.5625902   2.67876692  2.77349562  2.84856365  2.90218368  2.93435569
  2.94507969  2.93793036  2.91290768  2.87358633  2.82175364  2.76277162
  2.69842759  2.6305089   2.56795221  2.51075752  2.4624995   2.43032748
  2.41245414  2.41602881  2.43926415  2.48037284  2.53935486  2.60906089
  2.68591625  2.76277162  2.83426498  2.89324701  2.93793036  2.9611657
  2.9665277   2.95401636  2.92363168  2.87894833  2.82354098  2.75919695
  2.68770359  2.61263556  2.53399286  2.45356283  2.37134546  2.28912809
  2.20691073  2.12290603  2.04068866  1.95668396  1.87446659  1.79224923
  1.70824453  1.62602716  1.54202246  1.45980509  1.37580039  1.29358302
  1.20957832  1.12736096  1.04514359  0.96113889  0.87892152  0.79491682
  0.71269946  0.62869475  0.54647739  0.46426002  0.38025532  0.29803795
  0.21582059  0.13360322  0.05317319 -0.02546951 -0.10232487 -0.17560557
 -0.24352427 -0.30608096 -0.35970098 -0.40438433 -0.43834368 -0.46336635
 -0.48123969 -0.4919637  -0.5026877  -0.51519904 -0.53664705 -0.57418107
 -0.62780109 -0.70465645 -0.80653449 -0.92986054 -1.07642194 -1.242644
 -1.42673941 -1.62334616 -1.83067691 -2.04515699 -2.26499908 -2.48841584
 -2.71361993 -2.94061136 -3.16939012 -3.39638154 -3.6251603  -3.85393906
 -4.08093049 -4.30970925 -4.53491334 -4.76011743 -4.98174685 -5.19801427
 -5.40713236 -5.60552644 -5.78783451 -5.95048191 -6.08810663 -6.19534668
 -6.26684004 -6.30079939]",5.329999463851398,2.5109809336139137,5.129175,0.3717599999999992
055,2,2,csp,58b.png,1,1,24,353,28,1,1,236,pos_feedback_onset,5,"[ 0.35725352  0.32829485  0.29740559  0.2703775   0.2433494   0.22018246
  0.19701552  0.171918    0.1448899   0.11207007  0.07345851  0.02712463
 -0.02886215 -0.09257123 -0.16593321 -0.24508692 -0.33196294 -0.42656128
 -0.52502078 -0.62734143 -0.73352324 -0.84163562 -0.95360917 -1.06365213
 -1.17755625 -1.2895298  -1.40150334 -1.51347688 -1.62351985 -1.73356281
 -1.83781404 -1.93820412 -2.03280246 -2.11967848 -2.19690161 -2.2606107
 -2.30887516 -2.33976441 -2.3494173  -2.33783383 -2.30115284 -2.24130492
 -2.15635947 -2.04824708 -1.91889833 -1.77603554 -1.61965869 -1.45942069
 -1.29918269 -1.14280584 -0.99801247 -0.86866372 -0.75669018 -0.66209184
 -0.58872986 -0.53081251 -0.49027037 -0.46131169 -0.44393649 -0.4342836
 -0.43042244 -0.43042244 -0.43042244 -0.42849186 -0.42270013 -0.41111666
 -0.38988029 -0.35706046 -0.31072658 -0.24894808 -0.16786379 -0.06747371
  0.05222214  0.19122378  0.34953121  0.52135268  0.70861878  0.90746835
  1.11404023  1.32640384  1.5445592   1.76271455  1.98280048  2.20095583
  2.4171806   2.6314748   2.84190784  3.04847972  3.25119044  3.45197059
  3.64888958  3.84387799  4.03500525  4.22227134  4.40567629  4.58135891
  4.74738865  4.90183492  5.0369754   5.14894894  5.23196381  5.28022827
  5.28988116  5.25899191  5.18756051  5.07558697  4.92886301  4.75897212
  4.57556718  4.39023166  4.21841019  4.07361681  3.96357385  3.89793418
  3.88055898  3.91530939  3.99832426  4.12960358  4.30142506  4.50992752
  4.75318039  5.02346135  5.31883984  5.63738526  5.97523647  6.32660173
  6.6856893   7.0505686   7.40965617  7.75716027  8.08921975  8.39811228
  8.6819073   8.94060479  9.17613535  9.38849897  9.58348738  9.76689232
  9.94257495 10.11439642 10.28621789 10.46190052 10.64337488 10.8287104
 11.01983766 11.21482607 11.40595332 11.59515    11.77469379 11.94651526
 12.10868384 12.2631301  12.41178464 12.56043917 12.70523254 12.85002592
 12.99288871 13.1280292  13.24965563 13.35390686 13.43885231 13.49870024
 13.5373118  13.55468701 13.55275643 13.5373118  13.51221429 13.48132503
 13.44464404 13.40603248 13.36549033 13.32687877 13.28633662 13.24772505
 13.20718291 13.16857134 13.12995978 13.09134821 13.05080606 13.0121945
 12.97358293 12.93497136 12.8963598  12.85774823 12.81913666 12.77859452
 12.73998295 12.70137139 12.66275982 12.62414825 12.58553669 12.54692512
 12.50638297 12.46777141 12.42915984 12.39054827 12.35193671 12.31332514
 12.272783   12.23417143 12.19555986 12.1569483  12.11833673 12.07972516
 12.0411136  12.00057145 11.96195988 11.92334832 11.88473675 11.84612518
 11.80751362 11.76890205 11.72835991 11.68974834 11.65113677 11.61252521
 11.57391364 11.53530207 11.49669051 11.45614836 11.41753679 11.37892523
 11.34031366 11.30170209 11.26309053 11.22254838 11.18393682 11.14532525
 11.10671368 11.06810212 11.02949055 10.99087898 10.95033684 10.91172527
 10.8731137  10.83450214 10.79589057 10.757279   10.71866744 10.67812529
 10.63951373 10.60090216 10.56229059 10.52367903 10.48506746 10.44645589
 10.40591375 10.36730218 10.32869061 10.29007905 10.25146748 10.21285591
 10.17231377 10.1337022  10.09509064 10.05647907 10.0178675   9.97925594
  9.94064437  9.90010222]","[-0.18852713 -0.15343599 -0.11834486 -0.08325372 -0.04816258 -0.01307145
  0.01851057  0.04833804  0.07290184  0.0904474   0.1027293   0.10799297
  0.10623841  0.09571107  0.07641095  0.05184715  0.02026513 -0.01833512
 -0.06044448 -0.10781752 -0.15694511 -0.20782725 -0.26046396 -0.31485522
 -0.36924648 -0.42363774 -0.478029   -0.53417482 -0.58856608 -0.6447119
 -0.69910316 -0.75524898 -0.80964024 -0.8640315  -0.9166682  -0.96755035
 -1.01667794 -1.06054186 -1.09738755 -1.12546046 -1.13949692 -1.13423325
 -1.10616034 -1.05176908 -0.96579579 -0.84824049 -0.69910316 -0.52013836
 -0.31836433 -0.10255385  0.12027487  0.33783991  0.53961394  0.71857874
  0.86947062  0.98527137  1.06598099  1.10984491  1.11686313  1.08703567
  1.02211707  0.92210733  0.78700645  0.618569    0.41679497  0.18343891
 -0.08325372 -0.37626471 -0.69559404 -1.03597806 -1.3921531  -1.76236458
 -2.14134885 -2.52208768 -2.89931739 -3.26952888 -3.62219479 -3.95205147
 -4.25032613 -4.50824598 -4.72230191 -4.88547569 -4.99250366 -5.04514036
 -5.04514036 -4.99952188 -4.91705771 -4.80476608 -4.67668343 -4.54158256
 -4.41174535 -4.29594461 -4.20119854 -4.13627994 -4.10820703 -4.12048892
 -4.1783893  -4.28366271 -4.43630915 -4.63457407 -4.87670291 -5.15567744
 -5.46798855 -5.8031089  -6.15402026 -6.51194985 -6.86812488 -7.21201801
 -7.53485646 -7.82435834 -8.06824173 -8.25597931 -8.37704373 -8.42441676
 -8.3945893  -8.28931589 -8.11386021 -7.88050415 -7.60328418 -7.2979913
 -6.98217107 -6.66985996 -6.37509442 -6.10313811 -5.85925472 -5.64344423
 -5.45746121 -5.2995511  -5.16445022 -5.05215859 -4.96443075 -4.90302126
 -4.87143924 -4.87143924 -4.90653037 -4.98022176 -5.09426795 -5.24515984
 -5.43114286 -5.64519879]",12.826617655718028,-0.5490008237644017,5.179795,
055,2,2,csm,1a.png,1,1,68,84,69,1,1,248,neu_feedback_onset,6,"[ 1.54024377e+00  1.27145353e+00  9.96984628e-01  7.26301503e-01
  4.65082823e-01  2.19007255e-01 -8.13942263e-03 -2.12571433e-01
 -3.90502997e-01 -5.38148338e-01 -6.51721677e-01 -7.27437237e-01
 -7.57723460e-01 -7.40687459e-01 -6.70650567e-01 -5.45719894e-01
 -3.67788330e-01 -1.44427429e-01  1.20577028e-01  4.15867710e-01
  7.28194392e-01  1.04809263e+00  1.36609798e+00  1.67274600e+00
  1.96235801e+00  2.22925536e+00  2.47533092e+00  2.69869182e+00
  2.90312383e+00  3.08862696e+00  3.25709407e+00  3.41231097e+00
  3.55427765e+00  3.68677987e+00  3.80981766e+00  3.92528389e+00
  4.03696434e+00  4.14485901e+00  4.24896790e+00  4.34929102e+00
  4.44772125e+00  4.54615147e+00  4.64268881e+00  4.73733326e+00
  4.83197771e+00  4.92472927e+00  5.01748083e+00  5.11212528e+00
  5.20487684e+00  5.30141418e+00  5.39795152e+00  5.49638174e+00
  5.59670486e+00  5.69513509e+00  5.79545820e+00  5.89199554e+00
  5.98474710e+00  6.06992710e+00  6.14564266e+00  6.20810800e+00
  6.25353734e+00  6.28382356e+00  6.29139512e+00  6.27814489e+00
  6.24218000e+00  6.18350044e+00  6.10399911e+00  6.00367599e+00
  5.88631687e+00  5.75570753e+00  5.61374086e+00  5.46798841e+00
  5.31845018e+00  5.17459062e+00  5.03830261e+00  4.91905060e+00
  4.81872749e+00  4.74679771e+00  4.70326126e+00  4.69568970e+00
  4.72408304e+00  4.78844126e+00  4.88308571e+00  5.00423061e+00
  5.14430439e+00  5.29762840e+00  5.45284530e+00  5.60238353e+00
  5.74435020e+00  5.87117376e+00  5.98285421e+00  6.07560577e+00
  6.14942844e+00  6.20810800e+00  6.25164445e+00  6.28003778e+00
  6.29707378e+00  6.30653823e+00  6.30653823e+00  6.30275245e+00
  6.29518089e+00  6.28571645e+00  6.27435912e+00  6.26300178e+00
  6.25353734e+00  6.24596578e+00  6.23839422e+00  6.23271556e+00
  6.22892978e+00  6.22703689e+00  6.22703689e+00  6.22892978e+00
  6.23082267e+00  6.23460845e+00  6.24028711e+00  6.24785867e+00
  6.26110889e+00  6.27814489e+00  6.30275245e+00  6.33493156e+00
  6.37846801e+00  6.43525468e+00  6.50529157e+00  6.59047158e+00
  6.68890180e+00  6.80247514e+00  6.92740581e+00  7.06369382e+00
  7.20376761e+00  7.34952006e+00  7.49337962e+00  7.63534629e+00
  7.77352719e+00  7.90224364e+00  8.02338854e+00  8.13317610e+00
  8.22971344e+00  8.31300055e+00  8.38303744e+00  8.43603833e+00
  8.47389611e+00  8.49471789e+00  8.49850367e+00  8.48525345e+00
  8.45686011e+00  8.41710944e+00  8.36410855e+00  8.30164322e+00
  8.23160632e+00  8.15589077e+00  8.07449654e+00  7.98931653e+00
  7.90413653e+00  7.81517075e+00  7.72431208e+00  7.63345341e+00
  7.54070185e+00  7.44416451e+00  7.34762717e+00  7.24541116e+00
  7.13940938e+00  7.02583604e+00  6.90658404e+00  6.77597470e+00
  6.63779380e+00  6.48825557e+00  6.32736001e+00  6.15510711e+00
  5.97528266e+00  5.78599376e+00  5.58913330e+00  5.38470129e+00
  5.17080484e+00  4.94933683e+00  4.71840437e+00  4.47611458e+00
  4.22246746e+00  3.95746300e+00  3.68299410e+00  3.40284653e+00
  3.11891318e+00  2.83497983e+00  2.56051093e+00  2.29929225e+00
  2.05700246e+00  1.84121311e+00  1.65570999e+00  1.50617176e+00
  1.39449131e+00  1.32256153e+00  1.29416820e+00  1.30552553e+00
  1.35663353e+00  1.44181354e+00  1.55538688e+00  1.69167488e+00
  1.83553445e+00  1.97560823e+00  2.10053891e+00  2.19518335e+00
  2.24818425e+00  2.25007714e+00  2.19329047e+00  2.07593135e+00
  1.89610690e+00  1.66138866e+00  1.37556242e+00  1.05377130e+00
  7.07372613e-01  3.53402373e-01  1.07894672e-02 -3.03430104e-01
 -5.64648784e-01 -7.55830571e-01 -8.59939465e-01 -8.59939465e-01
 -7.50151904e-01 -5.26791004e-01 -1.97428321e-01  2.28471700e-01
  7.30087281e-01  1.28848953e+00  1.88096378e+00  2.48479537e+00
  3.08105540e+00  3.65649365e+00  4.19785990e+00  4.69568970e+00
  5.14619728e+00  5.54370397e+00  5.88820976e+00  6.17214311e+00
  6.39550401e+00  6.55639957e+00  6.65293691e+00  6.68322314e+00
  6.64915113e+00  6.55072091e+00  6.39550401e+00  6.19107200e+00
  5.94688932e+00  5.67431331e+00  5.38280840e+00  5.08562483e+00
  4.79033415e+00  4.50072214e+00  4.22625323e+00  3.96882033e+00
  3.72842343e+00  3.50884831e+00  3.31198786e+00  3.13784207e+00
  2.98830384e+00  2.86526606e+00  2.77062161e+00  2.70437049e+00
  2.66840560e+00  2.66272693e+00  2.68165582e+00  2.72519227e+00]","[-1.0221556  -0.97721334 -0.9229081  -0.85549471 -0.77497315 -0.68134344
 -0.57460556 -0.45288693 -0.31993274 -0.17574298 -0.02219024  0.13885287
  0.30364117  0.47030206  0.63134517  0.7867705   0.93096026  1.06204186
  1.1781427   1.2773902   1.35978435  1.42719775  1.47963039  1.51895487
  1.54891638  1.57138751  1.58636826  1.59947642  1.6069668   1.61445718
  1.61820237  1.62382015  1.62756534  1.63131053  1.63505571  1.6388009
  1.64254609  1.64816387  1.65378166  1.66127203  1.6725076   1.68748835
  1.70995949  1.739921    1.77924548  1.8354233   1.90470929  1.99272123
  2.09758651  2.22117773  2.35600452  2.50206688  2.65374701  2.80355456
  2.94587173  3.07695333  3.19305417  3.29230167  3.37095063  3.43087365
  3.47207072  3.49641445  3.50015964  3.48892407  3.45896256  3.41214771
  3.34660691  3.26234016  3.15934748  3.03762885  2.90092946  2.74737673
  2.58071584  2.40281938  2.21555995  2.02455533  1.82980552  1.63692831
  1.44592369  1.26053685  1.0826404   0.91036172  0.74744602  0.5882755
  0.43659536  0.28678782  0.13698027 -0.01282727 -0.16450741 -0.32180533
 -0.48284844 -0.64950933 -0.82178801 -0.99593928 -1.17196314 -1.34424182
 -1.51090271 -1.66820063 -1.80864521 -1.92661865 -2.01463058 -2.06706322
 -2.0745536  -2.03710171 -1.94908978 -1.81426299 -1.63262134 -1.41352781
 -1.16634536 -0.89856438 -0.62142042 -0.34053127 -0.06713251  0.19690329
  0.44595833  0.68003262  0.89912615  1.10136634  1.28675317  1.45903185
  1.61445718  1.75677434  1.88785595  2.01144717  2.13503839  2.26611999
  2.41218235  2.58446103  2.79231899  3.04137403  3.33537134  3.67056572
  4.0394668   4.42709382  4.80910306  5.16302338  5.45702068  5.66862384
  5.76974393  5.74914539]",7.755450100607061,3.333498745829968,5.2829299999999995,-0.264524999999999
055,2,2,csm,58a.png,1,1,252,270,251,1,1,513,neu_feedback_onset,7,"[-1.70332083 -1.57396391 -1.42638772 -1.26423609 -1.08386518 -0.89074078
 -0.68486287 -0.47351918 -0.26035356 -0.04718794  0.16233382  0.36456787
  0.55769227  0.74170704  0.9129683   1.07147607  1.21905227  1.35023111
  1.4650126   1.56339673  1.63991772  1.69821943  1.73647993  1.75287728
  1.74923342  1.72919221  1.69457557  1.64902736  1.59436951  1.53788973
  1.48140995  1.42857403  1.38666968  1.35387497  1.33383376  1.32836797
  1.33565568  1.35751883  1.38849161  1.4267521   1.46683453  1.50691695
  1.53788973  1.55610902  1.55610902  1.53424588  1.48687574  1.41035475
  1.3046829   1.1698602   1.00770858  0.82369381  0.61781591  0.40100643
  0.17508732 -0.0508318  -0.26946321 -0.47351918 -0.65389009 -0.80146629
 -0.90896006 -0.96543984 -0.97090563 -0.9180697  -0.81239786 -0.65571202
 -0.45712183 -0.223915    0.03115498  0.29715652  0.56680191  0.83098153
  1.0860515   1.32836797  1.55975287  1.77838428  1.98608411  2.18285237
  2.36868907  2.54177226  2.70392389  2.84967816  2.980857    3.09563849
  3.19402262  3.27418747  3.34159882  3.39443474  3.43998295  3.47824344
  3.51103815  3.54565479  3.5784495   3.61488807  3.65314857  3.69505292
  3.7387792   3.78614934  3.83351947  3.88271154  3.93372553  3.98473953
  4.03575352  4.08676752  4.13778151  4.19061743  4.24163143  4.29446735
  4.34548134  4.39831727  4.45297512  4.50763297  4.56411275  4.62241446
  4.68253809  4.74448366  4.80460729  4.86655286  4.92667649  4.98133434
  5.03052641  5.07060883  5.10158162  5.1198009   5.12526668  5.11797897
  5.09793776  5.06514305  5.02506062  4.97586856  4.92303264  4.87019671
  4.81736079  4.7663468   4.72079859  4.67889424  4.64245567  4.6060171
  4.57140046  4.53313997  4.48759176  4.43293391  4.36552256  4.28535771
  4.1887955   4.0794798   3.95558867  3.82440983  3.68594328  3.54747672
  3.41265402  3.28694096  3.17215948  3.07559727  2.9936105   2.93166493
  2.88611672  2.85514394  2.83510273  2.82599309  2.82417116  2.82417116
  2.82417116  2.82234923  2.81688345  2.8077738   2.79319838  2.77497909
  2.75311595  2.72578703  2.6984581   2.66748532  2.63469061  2.6018959
  2.56910119  2.53448455  2.49986791  2.46525127  2.43063463  2.39783992
  2.36322328  2.32860664  2.29216808  2.25755144  2.2229348   2.18831816
  2.15187959  2.11544103  2.07718053  2.03709811  1.9915499   1.94417976
  1.88952191  1.82757634  1.75469921  1.66906858  1.56886252  1.4522591
  1.31561447  1.15892863  0.98037965  0.7781456   0.55404842  0.30808809
  0.04208655 -0.23849042 -0.52817703 -0.8215075  -1.11119411 -1.38994915
 -1.65412876 -1.89644524 -2.11689857 -2.3118449  -2.48310617 -2.63068237
 -2.75821735 -2.86571113 -2.95316369 -3.02239697 -3.0697671  -3.0952741
 -3.0952741  -3.06794517 -3.00964347 -2.91854705 -2.79829978 -2.64890165
 -2.47581846 -2.28633791 -2.08410386 -1.87822595 -1.67416997 -1.47922364
 -1.29885273 -1.13305725 -0.98912491 -0.86705571 -0.76867158 -0.69761637
 -0.65024623 -0.62838309 -0.63202695 -0.65935588 -0.70672601 -0.77231543
 -0.85430221 -0.94722056 -1.04924855 -1.15674232 -1.26605802 -1.37355179
 -1.47922364 -1.57578584 -1.65959455 -1.72882783 -1.77984182 -1.80534882
 -1.80534882 -1.77619796]","[-6.16205826e-01 -5.17122884e-01 -4.21642957e-01 -3.33369063e-01
 -2.52301201e-01 -1.76637864e-01 -1.11783574e-01 -5.41353167e-02
 -5.49459953e-03  3.59400854e-02  7.19702463e-02  1.04397391e-01
  1.35023028e-01  1.67450173e-01  2.01678825e-01  2.41312002e-01
  2.89952719e-01  3.45799469e-01  4.10653758e-01  4.84515588e-01
  5.67384958e-01  6.55658852e-01  7.49337270e-01  8.48420213e-01
  9.47503155e-01  1.04658610e+00  1.14386753e+00  1.24114897e+00
  1.33662889e+00  1.42850580e+00  1.51858120e+00  1.60505359e+00
  1.69152598e+00  1.77439535e+00  1.85546321e+00  1.93292805e+00
  2.00498838e+00  2.06984267e+00  2.12388791e+00  2.16352108e+00
  2.18694069e+00  2.18513918e+00  2.15631505e+00  2.09686529e+00
  2.00498838e+00  1.87888281e+00  1.72395312e+00  1.54200081e+00
  1.34203342e+00  1.13305848e+00  9.22282042e-01  7.20513142e-01
  5.31354797e-01  3.62013041e-01  2.16090890e-01  9.17868348e-02
 -1.27006317e-02 -9.91730177e-02 -1.71233339e-01 -2.34286121e-01
 -2.91934378e-01 -3.49582636e-01 -4.12635417e-01 -4.81092723e-01
 -5.60359077e-01 -6.52235987e-01 -7.60326469e-01 -8.82829016e-01
 -1.02154514e+00 -1.17107030e+00 -1.33500753e+00 -1.50615080e+00
 -1.68450010e+00 -1.87005542e+00 -2.06101528e+00 -2.25918116e+00
 -2.46635459e+00 -2.68433706e+00 -2.91673160e+00 -3.16173669e+00
 -3.42295536e+00 -3.69858609e+00 -3.98682737e+00 -4.28407620e+00
 -4.59033257e+00 -4.89839044e+00 -5.20464681e+00 -5.50549865e+00
 -5.79193843e+00 -6.06036313e+00 -6.30176521e+00 -6.50713712e+00
 -6.66927285e+00 -6.78276785e+00 -6.84401913e+00 -6.84942365e+00
 -6.80258444e+00 -6.71070753e+00 -6.58099895e+00 -6.42606926e+00
 -6.26033052e+00 -6.09459178e+00 -5.93786058e+00 -5.79914446e+00
 -5.68384795e+00 -5.59016953e+00 -5.51630770e+00 -5.46226246e+00
 -5.41902627e+00 -5.38299611e+00 -5.35237047e+00 -5.31994332e+00
 -5.28391316e+00 -5.24608149e+00 -5.20464681e+00 -5.16141062e+00
 -5.11817442e+00 -5.07854125e+00 -5.04070958e+00 -5.01008394e+00
 -4.98666434e+00 -4.97045076e+00 -4.96504624e+00 -4.96864926e+00
 -4.98125981e+00 -5.00287791e+00 -5.03350355e+00 -5.07133521e+00
 -5.11637292e+00 -5.16861665e+00 -5.22446340e+00 -5.28391316e+00
 -5.34516444e+00 -5.40641571e+00 -5.46226246e+00 -5.51270469e+00
 -5.55053635e+00 -5.57395596e+00 -5.57755897e+00 -5.55774239e+00]",4.704811166234566,1.232051350185237,5.48869,0.08005499999999977
055,2,2,csm,39a.png,1,1,44,321,43,1,1,239,neu_feedback_onset,8,"[ 1.25970859  1.23339614  1.1826507   1.10747227  1.00974031  0.88945482
  0.75037472  0.59437947  0.42334854  0.23728192  0.04369746 -0.1592843
 -0.36790445 -0.57840406 -0.7870242  -0.99376489 -1.19298773 -1.38093381
 -1.55572366 -1.71547783 -1.85643739 -1.97860234 -2.08009322 -2.1627895
 -2.2248117  -2.27179822 -2.29999013 -2.31502582 -2.31690528 -2.30750798
 -2.28307499 -2.24360631 -2.18534303 -2.10640567 -2.00115587 -1.86771415
 -1.70420106 -1.51249606 -1.29259915 -1.05202817 -0.80205989 -0.55397107
 -0.31715901 -0.1066594   0.06625099  0.19781325  0.28238898  0.3199782
  0.31246036  0.27111222  0.20157217  0.11323751  0.01738501 -0.08034695
 -0.16868161 -0.2457395  -0.30400278 -0.33595361 -0.341592   -0.31527955
 -0.25325734 -0.15176646 -0.0108069   0.16962134  0.3820004   0.62069192
  0.87817805  1.1394231   1.39690923  1.63748021  1.85173874  2.03592589
  2.18628276  2.30092986  2.38174668  2.43437158  2.46068403  2.46820187
  2.45692511  2.43437158  2.40054128  2.36107261  2.31408609  2.26334065
  2.21071575  2.15433192  2.09606864  2.03592589  1.97578315  1.9156404
  1.85549766  1.79347545  1.73521217  1.67882834  1.62432398  1.57357854
  1.52847148  1.49276173  1.46456981  1.44953413  1.44765467  1.45893143
  1.48712334  1.5322304   1.59237315  1.66755158  1.7577657   1.85925658
  1.97014477  2.08855079  2.21447467  2.34791638  2.48699648  2.63359442
  2.78583075  2.94558491  3.11097746  3.27824947  3.44176256  3.59963726
  3.74247628  3.86464123  3.96049373  4.02627486  4.0582257   4.0582257
  4.03003378  3.97552942  3.90223045  3.81953418  3.73307898  3.65226217
  3.5789632   3.51882045  3.46807501  3.42860633  3.3966555   3.36470467
  3.33275383  3.29328516  3.24441918  3.18803535  3.12037476  3.04519633
  2.96437952  2.88356271  2.80274589  2.73132638  2.6730631   2.63359442
  2.61855874  2.6392328   2.69749609  2.80274589  2.95686168  3.1617229
  3.41357065  3.70676653  4.0337927   4.37961349  4.73295212  5.0787729
  5.409558    5.71591011  5.99219084  6.23652074  6.44889981  6.63308697
  6.79096167  6.92628285  7.04092996  7.134903    7.21008143  7.26458579
  7.29841608  7.30593393  7.28901878  7.24767064  7.17813059  7.08603702
  6.97326937  6.84546604  6.70638594  6.56166746  6.4207079   6.28726618
  6.16698069  6.06361035  5.98091408  5.91889187  5.87566427  5.85123128
  5.84183398  5.84371344  5.85686966  5.87566427  5.90009726  5.92828917
  5.95836055  5.99031138  6.02226221  6.05421305  6.08804334  6.11999417
  6.15382447  6.18765476  6.2196056   6.25343589  6.28538672  6.31921702
  6.35304731  6.38499814  6.41882844  6.45265873  6.48460957  6.51843986
  6.55039069  6.58422099  6.61805128  6.65000211  6.68383241  6.71578324
  6.74961354  6.78344383  6.81539466  6.84922496  6.88305525  6.91500608
  6.94883638  6.98078721  7.01461751  7.0484478   7.08039863  7.11422893
  7.14617976  7.18001006  7.21384035  7.24579118  7.27962148  7.31345177
  7.3454026   7.3792329   7.41118373  7.44501403  7.47884432  7.51079515
  7.54462545  7.57657628  7.61040657  7.64423687  7.6761877   7.710018
  7.74384829  7.77579912  7.80962942  7.84158025  7.87541054  7.90924084
  7.94119167  7.97502197]","[ 8.40869657e-01  7.04821282e-01  5.72400864e-01  4.45422380e-01
  3.25699810e-01  2.13233153e-01  1.08022410e-01  1.18815581e-02
 -7.51894020e-02 -1.53190470e-01 -2.20307669e-01 -2.74727019e-01
 -3.18262499e-01 -3.47286152e-01 -3.61797979e-01 -3.59984001e-01
 -3.41844217e-01 -3.07378629e-01 -2.60215192e-01 -2.02167886e-01
 -1.36864665e-01 -6.79334887e-02 -4.44424692e-03  5.17890815e-02
  9.35105832e-02  1.17092302e-01  1.20720258e-01  1.02580475e-01
  6.08589732e-02 -8.16290251e-04 -8.06313370e-02 -1.76772189e-01
 -2.87424867e-01 -4.05333459e-01 -5.32311943e-01 -6.62918383e-01
 -7.95338801e-01 -9.25945241e-01 -1.05110975e+00 -1.16901834e+00
 -1.27422908e+00 -1.36311402e+00 -1.42660326e+00 -1.45744089e+00
 -1.45199896e+00 -1.40302154e+00 -1.30869467e+00 -1.16539038e+00
 -9.74922656e-01 -7.46361386e-01 -4.86962484e-01 -2.09423799e-01
  7.35568215e-02  3.47467550e-01  5.97796561e-01  8.15473961e-01
  9.91429859e-01  1.11840834e+00  1.19640941e+00  1.22180511e+00
  1.20003737e+00  1.13473415e+00  1.03133738e+00  8.97102986e-01
  7.35658914e-01  5.56075059e-01  3.63793355e-01  1.64255738e-01
 -3.89098353e-02 -2.40261431e-01 -4.34357112e-01 -6.21196881e-01
 -7.93524823e-01 -9.51340938e-01 -1.08738931e+00 -1.20348393e+00
 -1.29599682e+00 -1.36674198e+00 -1.41753337e+00 -1.44655702e+00
 -1.46288283e+00 -1.46832476e+00 -1.46651079e+00 -1.46469681e+00
 -1.46651079e+00 -1.47558068e+00 -1.49372046e+00 -1.52818605e+00
 -1.57897744e+00 -1.64790862e+00 -1.73497958e+00 -1.84019032e+00
 -1.96535483e+00 -2.10503116e+00 -2.25921932e+00 -2.42429135e+00
 -2.59661929e+00 -2.77438917e+00 -2.95397302e+00 -3.13174290e+00
 -3.30407084e+00 -3.46914287e+00 -3.62333103e+00 -3.76119338e+00
 -3.87728799e+00 -3.96980089e+00 -4.03329013e+00 -4.06412776e+00
 -4.06049981e+00 -4.02240626e+00 -3.95166111e+00 -3.85189230e+00
 -3.72672779e+00 -3.58342350e+00 -3.42742137e+00 -3.26416332e+00
 -3.09909129e+00 -2.93764722e+00 -2.77983110e+00 -2.62745692e+00
 -2.48233865e+00 -2.34266232e+00 -2.21024190e+00 -2.08507740e+00
 -1.96716881e+00 -1.85833011e+00 -1.76218925e+00 -1.67874625e+00
 -1.61162905e+00 -1.56446562e+00 -1.53544196e+00 -1.52637207e+00
 -1.53544196e+00 -1.56265164e+00 -1.60437314e+00 -1.66060647e+00
