,sub,run,cat_cond,trial_type,picture,old,response_old,target_pos,response_pos,minimum_error,dot_resp_loc,cat_corr,TN_corr,TN_rt,feedback_type,trial,SP_peak_response,FB_peak_response,preStim_bl,anticipation
0,001,1,1,csm,37b.png,1,1,28,298,-90,21,1,1,307,neu_feedback_onset,1,9.625726223007046,-0.009885007280520332,5.36853,-0.0891250000000019
1,001,1,1,csp,53a.png,1,1,332,317,-15,331,1,1,420,pos_feedback_onset,2,5.420620340715936,4.547473385790864,5.53599,0.10402500000000003
2,001,1,1,csp,22a.png,1,1,268,322,54,272,1,1,298,pos_feedback_onset,3,10.876772721298924,4.325670178625626,5.021940000000001,0.05227000000000004
3,001,1,1,csm,46b.png,1,1,304,313,9,298,1,0,246,neu_feedback_onset,4,6.731545912815551,0.24173712190004198,5.527704999999999,-0.049714999999999954
4,001,1,1,csp,64a.png,1,1,240,304,64,248,1,0,295,neg_feedback_onset,5,4.874469842393124,1.1810454742493914,5.284985,0.08700499999999955
5,001,1,1,csp,51a.png,1,1,164,144,-20,162,1,1,278,pos_feedback_onset,6,1.2345439064119317,5.110272255967302,5.402400000000002,0.35506999999999955
6,001,1,1,csm,44b.png,1,1,216,86,-130,210,1,1,394,neu_feedback_onset,7,4.024239070383643,4.707745451682938,5.457305,0.0037400000000005207
7,001,1,1,csm,18b.png,1,1,188,42,-146,182,1,1,318,neu_feedback_onset,8,2.228755171131171,2.195821157439041,5.2962299999999995,0.31547000000000125
8,001,1,1,csp,37a.png,1,1,328,30,62,329,1,1,375,pos_feedback_onset,9,3.7420281851739725,4.117303766873716,5.595495,-0.21199500000000082
9,001,1,1,csp,44a.png,1,1,292,282,-10,292,1,1,417,pos_feedback_onset,10,4.829993730499625,3.2512026509635525,5.447004999999999,0.05521999999999938
10,001,1,1,csm,56b.png,1,1,116,87,-29,133,1,1,294,neu_feedback_onset,11,6.3657775917599535,1.017992505703298,5.292205,0.38120000000000065
11,001,1,1,csm,28b.png,1,1,244,276,32,249,1,1,250,neu_feedback_onset,12,0.07980867130493652,7.849522627100579,5.65728,-0.15408999999999917
12,001,1,1,csm,54b.png,1,1,232,226,-6,239,1,1,409,neu_feedback_onset,13,-0.02827269357745993,1.4026718066256338,5.800650000000001,-0.03294500000000067
13,001,1,1,csp,36a.png,1,1,20,356,-24,28,1,1,369,pos_feedback_onset,14,5.3063488014011435,2.1218172968005846,5.526870000000001,-0.018719999999998294
14,001,2,1,csm,1b.png,1,1,256,321,65,255,1,0,NaN,neu_feedback_onset,1,3.432706461534148,5.802509522508623,5.69973,-0.10329000000000033
15,001,2,1,csm,51b.png,1,1,228,37,169,239,1,1,310,neu_feedback_onset,2,3.873873217369769,4.289915762974415,5.4890799999999995,0.3729949999999995
16,001,2,1,csp,26a.png,1,1,176,232,56,174,1,1,588,neg_feedback_onset,3,3.9919816153258845,4.036510030809344,5.5198149999999995,0.3292700000000002
17,001,2,1,csm,34b.png,1,0,148,NaN,NaN,147,1,1,347,neu_feedback_onset,4,2.780109153763457,2.8690513676909086,5.510574999999999,
18,001,2,1,csm,14b.png,1,1,280,213,-67,278,1,1,437,neu_feedback_onset,5,0.75555091009541,2.043946814935336,5.35768,0.09901499999999963
19,001,2,1,csm,63b.png,1,1,16,147,131,17,1,1,601,neu_feedback_onset,6,12.922122119702495,2.709657778334911,5.340535000000001,-0.27415500000000037
20,001,2,1,csp,34a.png,1,0,308,NaN,NaN,310,1,1,313,pos_feedback_onset,7,3.2831041763036097,2.8656573685496705,5.5558700000000005,-0.05530999999999864
21,001,2,1,csm,50b.png,1,1,48,326,-82,56,1,1,291,neu_feedback_onset,8,4.415560292185017,1.6023751690796033,5.383575,0.295300000000001
22,001,2,1,csp,2a.png,1,1,132,49,-83,131,1,1,305,pos_feedback_onset,9,7.791780225820487,3.0909051862987114,5.23956,0.2196750000000005
23,001,2,1,csp,65a.png,1,1,92,82,-10,93,1,1,319,pos_feedback_onset,10,1.0310116894141024,5.3009482423701595,5.7783050000000005,-0.1901250000000001
24,001,2,1,csp,17a.png,1,1,64,52,-12,59,1,1,336,pos_feedback_onset,11,4.717402223210003,8.34428754910564,5.365664999999999,-0.46647000000000016
25,001,2,1,csp,45a.png,1,1,24,337,-47,19,1,0,340,neg_feedback_onset,12,0.11066385718423184,0.856206673650892,5.557370000000001,0.08993999999999946
26,001,2,1,csm,59b.png,1,1,196,212,16,200,1,1,425,neu_feedback_onset,13,2.030288389695076,5.9146033943894585,5.453905000000001,0.12761500000000048
27,001,2,1,csp,40a.png,1,1,320,273,-47,320,1,1,348,pos_feedback_onset,14,8.823859187258382,5.939036364024444,5.485015,-0.3070750000000002
28,001,3,1,csp,63a.png,1,1,252,282,30,255,1,1,314,pos_feedback_onset,1,1.9943558764522642,6.047164888868173,5.393220000000001,0.4335899999999997
29,001,3,1,csp,16a.png,1,1,204,298,94,210,1,0,269,neg_feedback_onset,2,2.149249980133753,0.8033613819261578,5.41119,0.2407099999999991
30,001,3,1,csp,47a.png,1,1,136,132,-4,131,1,1,478,pos_feedback_onset,3,7.579574124129432,4.784070939556966,4.99817,0.09620500000000032
31,001,3,1,csp,57a.png,1,1,324,52,88,320,1,1,401,pos_feedback_onset,4,9.775447863627523,6.381383211069926,4.8911500000000006,0.2625100000000007
32,001,3,1,csp,25a.png,1,1,80,68,-12,77,1,1,206,pos_feedback_onset,5,3.480117923330681,2.158100640353283,5.2186449999999995,0.3427499999999988
33,001,3,1,csm,12b.png,1,1,236,226,-10,240,1,1,690,neu_feedback_onset,6,3.6843141226786016,3.5457176625882476,5.2328600000000005,0.14719500000000085
34,001,3,1,csp,1a.png,1,1,124,91,-33,115,1,1,299,pos_feedback_onset,7,0.12760983999666625,3.278351043762253,5.294784999999999,0.3393399999999991
35,001,3,1,csp,32a.png,1,1,56,312,-104,53,1,1,458,pos_feedback_onset,8,1.4152495479154086,4.599165685861666,5.394455,0.26426499999999997
36,001,3,1,csm,53b.png,1,1,4,340,-24,8,1,1,433,neu_feedback_onset,9,2.4613573038152188,5.89850844752258,5.460605000000001,-0.842744999999999
37,001,3,1,csm,10b.png,1,1,276,241,-35,278,1,1,604,neu_feedback_onset,10,7.417338525218938,0.7491708456670694,4.973145000000001,0.21136499999999891
38,001,3,1,csm,49b.png,1,1,104,125,21,101,1,1,381,neu_feedback_onset,11,4.056348285634501,0.5957870134980571,5.245234999999999,0.13353000000000037
39,001,3,1,csm,48b.png,1,1,12,19,7,5,1,1,579,neu_feedback_onset,12,1.0657516392233337,,5.117515,-0.006470000000001086
40,001,3,1,csm,16b.png,1,1,248,358,110,247,1,1,460,neu_feedback_onset,13,1.8512026273531874,0.5599666301874558,5.234164999999999,0.013980000000000103
41,001,3,1,csm,11b.png,1,1,272,236,-36,277,1,1,469,neu_feedback_onset,14,0.4347742090393588,1.1586091245913104,5.435005,0.15293000000000045
42,001,4,1,csm,25b.png,1,0,300,NaN,NaN,308,1,1,422,neu_feedback_onset,1,4.477083361930483,0.7038030336337773,5.463825000000002,0.15786999999999995
43,001,4,1,csm,13b.png,1,1,108,316,-152,109,1,1,637,neu_feedback_onset,2,0.5710590858416913,0.6238774665223301,5.60625,0.14156999999999975
44,001,4,1,csm,29b.png,1,1,200,39,-161,28,1,1,395,neu_feedback_onset,3,12.20197239708356,2.4938689700790935,5.306025,-0.5517849999999989
45,001,4,1,csp,43a.png,1,1,76,56,-20,92,1,1,254,pos_feedback_onset,4,2.4214429722844932,2.244667201857891,5.478345000000001,-0.006205000000001348
46,001,4,1,csm,60b.png,1,1,160,197,37,155,1,1,490,neu_feedback_onset,5,1.3071025572069648,2.9719588819076193,5.447545,0.17640499999999992
47,001,4,1,csp,23a.png,1,1,0,2,2,2,1,1,261,pos_feedback_onset,6,7.475971591587983,7.2853069222858675,5.356160000000001,0.28251500000000096
48,001,4,1,csp,12a.png,1,1,288,272,-16,284,1,1,225,pos_feedback_onset,7,0.2604749369547049,4.9003685712872995,5.7875049999999995,0.3452100000000007
49,001,4,1,csm,20b.png,1,1,120,155,35,120,1,1,509,neu_feedback_onset,8,4.506623115307229,2.879315998935321,5.19846,0.06709500000000013
50,001,4,1,csm,4b.png,1,1,284,293,9,282,1,1,451,neu_feedback_onset,9,8.607147331931902,0.03235140329875917,5.387325,-0.30538999999999916
51,001,4,1,csp,30a.png,1,1,264,268,4,263,1,1,344,pos_feedback_onset,10,5.280962567049718,0.11233657370748092,5.221870000000001,0.4854599999999998
52,001,4,1,csp,48a.png,1,0,260,NaN,NaN,261,1,1,393,pos_feedback_onset,11,,6.562457000789761,5.347775000000001,0.0656049999999988
53,001,4,1,csp,50a.png,1,1,312,135,-177,308,1,1,240,pos_feedback_onset,12,5.017552265209652,-0.023210877599892175,5.42665,0.35268499999999925
54,001,4,1,csp,5a.png,1,1,180,313,133,176,1,1,704,neg_feedback_onset,13,1.7420566569473959,3.9513951740993876,5.32962,-0.04134500000000063
55,001,4,1,csm,24b.png,1,1,60,71,11,59,1,0,411,neu_feedback_onset,14,5.245607171176364,2.4425079631984685,5.436055,-0.016924999999998747
56,001,5,1,csm,47b.png,1,0,184,NaN,NaN,186,1,1,312,neu_feedback_onset,1,1.718793390724807,2.157311981729679,5.7616,0.2809050000000006
57,001,5,1,csp,7a.png,1,1,52,311,-101,56,1,1,394,pos_feedback_onset,2,1.7429974706102012,4.065269655536569,5.566560000000001,0.6211100000000016
58,001,5,1,csm,5b.png,1,1,68,63,-5,65,1,1,470,neu_feedback_onset,3,0.1876654740770306,2.0446977857070747,5.525789999999999,-0.04613000000000067
59,001,5,1,csm,23b.png,1,1,220,240,20,230,1,1,330,neu_feedback_onset,4,1.6502564472333539,,5.27009,0.31749000000000027
60,001,5,1,csp,35a.png,1,1,72,37,-35,72,1,1,323,pos_feedback_onset,5,12.578640382320213,5.980816098378995,4.972795,0.2720450000000021
61,001,5,1,csm,7b.png,1,1,348,331,-17,349,1,1,458,neu_feedback_onset,6,3.407806385077175,1.8203246604438121,5.551225,-0.4904649999999995
62,001,5,1,csp,33a.png,1,0,224,NaN,NaN,232,1,1,452,pos_feedback_onset,7,3.0924200888680535,3.764241977732299,5.20547,0.42093999999999987
63,001,5,1,csm,6b.png,1,1,156,153,-3,163,1,1,666,neu_feedback_onset,8,1.5759189784616425,0.6614007692913746,5.553585000000001,0.3585900000000004
64,001,5,1,csp,41a.png,1,1,44,55,11,40,1,1,424,pos_feedback_onset,9,7.595665162836218,7.07874220539073,5.360754999999999,0.2959500000000004
65,001,5,1,csp,27a.png,1,1,316,317,1,316,1,1,303,pos_feedback_onset,10,2.1214137470642176,5.962525220218926,5.673575000000001,-0.1782900000000005
66,001,5,1,csm,30b.png,1,1,212,201,-11,209,1,1,573,neu_feedback_onset,11,2.4376854546171836,7.843371592483522,5.574140000000002,-0.017884999999999707
67,001,5,1,csm,40b.png,1,1,296,311,15,300,1,1,449,neu_feedback_onset,12,3.2107101759368164,5.221028110634341,5.592064999999999,-0.6426449999999999
68,001,5,1,csp,59a.png,1,1,112,302,-170,114,1,1,434,neg_feedback_onset,13,1.1680446610932935,5.909038112185387,5.755345,0.12360500000000041
69,001,5,1,csp,15a.png,1,1,128,146,18,115,1,1,339,pos_feedback_onset,14,0.5896981226120177,2.1200108402844626,5.5774300000000006,0.11860999999999944
70,001,6,1,csm,41b.png,1,1,344,271,-73,345,1,1,513,neu_feedback_onset,1,1.8492665063481624,0.7790713157059289,5.472440000000001,-0.01454999999999984
71,001,6,1,csm,22b.png,1,1,336,333,-3,341,1,1,447,neu_feedback_onset,2,7.153630093286495,1.5320581691439332,5.297659999999999,-0.024959999999999205
72,001,6,1,csm,55b.png,1,1,8,81,73,10,1,1,480,neu_feedback_onset,3,5.677346240113319,5.998338175724151,5.2943750000000005,-0.27138500000000043
73,001,6,1,csm,45b.png,1,1,40,317,-83,42,1,1,481,neu_feedback_onset,4,0.5165105567760253,0.30309432562848443,5.230289999999999,0.40896499999999936
74,001,6,1,csp,11a.png,1,1,100,353,-107,103,1,1,281,pos_feedback_onset,5,0.44634452102915834,3.9374351336927402,5.444225,0.4660150000000005
75,001,6,1,csm,64b.png,1,1,88,280,-168,87,1,1,472,neu_feedback_onset,6,5.216119325358507,1.0249298931495825,5.3835999999999995,-0.19535499999999928
76,001,6,1,csp,62a.png,1,1,36,42,6,31,1,1,244,pos_feedback_onset,7,2.734223655290074,1.9714309506689915,5.445969999999999,0.23154999999999948
77,001,6,1,csp,21a.png,1,1,144,300,156,146,1,1,378,pos_feedback_onset,8,2.884659927918258,6.106062091274447,5.396649999999999,-0.11572000000000049
78,001,6,1,csm,17b.png,1,1,168,95,-73,176,1,1,328,neu_feedback_onset,9,0.2822231224941187,0.10035759088209031,5.504509999999999,0.27598000000000056
79,001,6,1,csp,42a.png,1,1,140,210,70,142,1,1,814,neg_feedback_onset,10,1.8089840025426454,5.448215122472639,5.47462,0.10039500000000068
80,001,6,1,csp,8a.png,1,1,192,217,25,200,1,1,463,neg_feedback_onset,11,4.750165602103555,4.006486800795171,5.44981,-0.21897500000000125
81,001,6,1,csm,26b.png,1,1,340,187,-153,341,1,1,334,neu_feedback_onset,12,6.172238725750113,1.5480030109584404,5.5072399999999995,0.13649499999999914
82,001,6,1,csp,9a.png,1,1,352,300,-52,349,1,1,267,pos_feedback_onset,13,2.7815738125259575,6.304872161716726,5.678440000000001,-0.03477499999999978
83,001,6,1,csp,6a.png,1,0,84,86,2,84,1,1,339,pos_feedback_onset,14,0.11480875554478565,6.063215712590326,5.718205,0.12984999999999847
84,002,1,1,csm,15b.png,1,1,308,279,-29,307,1,1,384,neu_feedback_onset,1,1.1552763682336624,1.784615847188293,4.04189,-0.14525000000000032
85,002,1,1,csp,21a.png,1,1,172,53,-119,176,1,1,220,pos_feedback_onset,2,1.9363268282678099,3.936186000494679,3.949229999999999,0.19238000000000088
86,002,1,1,csp,43a.png,1,1,124,64,-60,122,1,0,215,neg_feedback_onset,3,9.826367664071677,2.330090546008515,3.9589400000000006,-0.028980000000000672
87,002,1,1,csm,19b.png,1,1,44,263,-141,NaN,0,1,367,neu_feedback_onset,4,10.43036497934658,4.3704155668448434,3.685824999999999,
88,002,1,1,csm,9b.png,1,1,344,266,-78,345,1,1,457,neu_feedback_onset,5,3.5560612806139473,10.266864618637815,4.121694999999999,-0.22437499999999932
89,002,1,1,csm,49b.png,1,1,216,353,137,214,1,1,478,neu_feedback_onset,6,7.837666827743246,2.758652784311175,3.7456300000000007,0.046805000000000874
90,002,1,1,csm,27b.png,1,1,288,269,-19,283,1,1,312,neu_feedback_onset,7,1.39014299084003,4.826968435673428,3.948155,0.1079299999999992
91,002,1,1,csp,58a.png,1,1,128,68,-60,NaN,0,1,300,neg_feedback_onset,8,1.3802178900373625,10.481368330410147,4.4416899999999995,
92,002,1,1,csp,64a.png,1,1,284,271,-13,281,1,1,610,neg_feedback_onset,9,0.0980505538599272,5.139165365405931,3.97754,0.08505499999999966
93,002,1,1,csm,42b.png,1,1,100,304,-156,NaN,0,1,414,neu_feedback_onset,10,0.6031033331559141,12.315906487467768,4.1336200000000005,
94,002,1,1,csp,1a.png,1,1,64,197,133,64,1,0,374,neg_feedback_onset,11,0.24261146521228757,6.773749768641933,3.9136649999999995,-0.05649999999999977
95,002,1,1,csp,38a.png,1,1,328,279,-49,327,1,1,730,neg_feedback_onset,12,8.190001373323422,10.332695172912658,3.6043949999999993,-0.12935000000000008
96,002,1,1,csm,65b.png,1,1,356,185,-171,359,1,1,589,neu_feedback_onset,13,23.221878859033854,10.198859604451382,3.2877400000000003,-0.10560999999999998
97,002,1,1,csp,52a.png,1,1,176,179,3,NaN,0,1,321,neg_feedback_onset,14,0.8253797060779318,6.894362772634836,3.8200599999999993,
98,002,2,1,csp,53a.png,1,1,92,68,-24,87,1,0,NaN,neg_feedback_onset,1,2.0035619411979586,3.691521094931464,4.169075000000001,0.008824999999998973
99,002,2,1,csp,60a.png,1,1,188,270,82,NaN,0,1,308,neg_feedback_onset,2,5.906253331595986,2.611985977408048,4.220949999999999,
100,002,2,1,csm,26b.png,1,1,256,271,15,254,1,1,497,neu_feedback_onset,3,3.708057678118082,4.798469852450051,3.99805,0.06334000000000017
101,002,2,1,csm,56b.png,1,1,352,88,96,352,1,1,522,neu_feedback_onset,4,11.930603038815772,3.185232170917006,3.93706,0.21212999999999926
102,002,2,1,csm,25b.png,1,1,136,270,134,133,1,1,348,neu_feedback_onset,5,4.065473112799894,6.5172069329093905,4.032495,0.09777500000000083
103,002,2,1,csp,47a.png,1,1,84,273,-171,264,1,1,395,neg_feedback_onset,6,8.547854991300248,1.7171265711959485,4.008724999999999,-0.03375000000000039
104,002,2,1,csm,31b.png,1,1,108,270,162,108,1,1,380,neu_feedback_onset,7,8.218445768655421,5.294956899129433,4.0779000000000005,-0.09899000000000013
105,002,2,1,csm,61b.png,1,1,4,270,-94,357,1,1,673,neu_feedback_onset,8,8.267266405989446,4.309657930436293,3.8527849999999995,-0.10831999999999997
106,002,2,1,csp,63a.png,1,1,80,187,107,79,1,0,341,neg_feedback_onset,9,0.5366682187906924,9.398368103075942,4.05565,-0.08694500000000005
107,002,2,1,csp,20a.png,1,1,204,228,24,202,1,1,429,pos_feedback_onset,10,5.476234181171965,3.47918182126554,3.75897,-0.08236500000000024
108,002,2,1,csp,5a.png,1,1,276,264,-12,271,1,1,393,pos_feedback_onset,11,4.675976899266683,5.0238917417398286,3.8509599999999997,0.06331500000000023
109,002,2,1,csp,40a.png,1,1,28,266,-122,29,1,1,322,pos_feedback_onset,12,4.644018246875536,0.42188230711695524,3.835775000000001,0.3630450000000005
110,002,2,1,csm,36b.png,1,1,104,285,-179,103,1,0,340,neu_feedback_onset,13,4.889526285125307,7.201111787498206,3.7932099999999984,-0.054760000000000364
111,002,2,1,csm,66b.png,1,1,116,277,161,111,1,1,333,neu_feedback_onset,14,0.6298049887084199,12.587057729108615,3.921054999999999,-0.20516000000000068
112,002,3,1,csp,66a.png,1,1,24,274,-110,17,1,1,459,pos_feedback_onset,1,6.650821221521184,0.5587600761863422,3.7508150000000002,-0.04919500000000099
113,002,3,1,csp,42a.png,1,1,324,267,-57,325,1,1,370,pos_feedback_onset,2,6.564081973279171,0.5756149285038744,3.81051,0.026085000000000136
114,002,3,1,csm,22b.png,1,1,12,2,-10,17,1,0,333,neu_feedback_onset,3,3.7032744878381463,2.138279109719586,3.883050000000001,-0.10713499999999954
115,002,3,1,csm,23b.png,1,1,268,260,-8,277,1,1,442,neu_feedback_onset,4,3.1797079274587183,0.11880794006935244,3.8168599999999993,0.10168000000000044
116,002,3,1,csm,4b.png,1,1,96,76,-20,95,1,1,260,neu_feedback_onset,5,9.286939884123246,6.556359003780969,3.89897,-0.23850499999999908
117,002,3,1,csp,23a.png,1,1,52,193,141,54,1,0,294,neg_feedback_onset,6,2.4967647398205575,4.045909879601885,4.029815,-0.24635500000000032
118,002,3,1,csp,19a.png,1,0,340,71,91,338,1,1,351,pos_feedback_onset,7,9.197999052898952,0.7866833596319138,3.8221900000000013,0.14731499999999897
119,002,3,1,csm,39b.png,1,1,164,110,-54,347,1,1,361,neu_feedback_onset,8,19.75211776333357,2.6509073537438037,3.6323700000000003,-0.24898500000000023
120,002,3,1,csp,50a.png,1,1,336,266,-70,331,1,0,330,neg_feedback_onset,9,6.244432776063978,2.9054003309654854,4.26604,0.07454500000000008
121,002,3,1,csp,49a.png,1,1,260,261,1,260,1,1,358,pos_feedback_onset,10,15.153839574199157,,3.6242300000000016,-0.12168999999999963
122,002,3,1,csm,58b.png,1,1,296,276,-20,283,1,1,518,neu_feedback_onset,11,20.20358230674305,2.7287927767250015,3.5047249999999996,-0.1120000000000001
123,002,3,1,csm,59b.png,1,1,16,90,74,16,1,1,296,neu_feedback_onset,12,4.658856113919638,6.721392753484054,3.948009999999999,-0.1613799999999994
124,002,3,1,csm,37b.png,1,1,56,50,-6,56,1,1,547,neu_feedback_onset,13,1.999057525966732,8.85954746064678,3.8515649999999995,-0.16008500000000003
125,002,3,1,csp,39a.png,1,1,36,63,27,38,1,1,400,pos_feedback_onset,14,7.4710147526242325,5.593369521169347,3.7644150000000005,-0.4324400000000006
126,002,4,1,csm,12b.png,1,1,32,48,16,31,1,1,539,neu_feedback_onset,1,2.281485878852259,3.979662437079889,4.07651,-0.1782399999999993
127,002,4,1,csm,32b.png,1,1,312,86,134,312,1,1,244,neu_feedback_onset,2,4.969106855385307,1.6652490894185774,3.8544150000000004,0.15360000000000085
128,002,4,1,csp,24a.png,1,1,316,86,130,138,1,1,429,neg_feedback_onset,3,7.018323125291272,1.760842877796532,3.8948049999999994,0.16922999999999888
129,002,4,1,csm,52b.png,1,1,236,85,-151,235,1,1,266,neu_feedback_onset,4,0.6059262175205244,4.071382882165422,4.01369,0.04165500000000044
130,002,4,1,csm,3b.png,1,1,232,53,-179,56,1,1,588,neu_feedback_onset,5,13.466842402358756,4.950730998577033,3.729085,0.08494499999999938
131,002,4,1,csp,34a.png,1,1,132,88,-44,130,1,1,432,pos_feedback_onset,6,,0.31110789932350386,4.1884299999999985,0.04545000000000021
132,002,4,1,csp,48a.png,1,1,112,354,-118,109,1,0,345,neg_feedback_onset,7,6.915443228219848,,3.61958,0.12466500000000025
133,002,4,1,csp,33a.png,1,1,300,59,119,303,1,1,559,pos_feedback_onset,8,3.3660219965739,5.735821791623123,4.0279,0.04646000000000061
134,002,4,1,csm,8b.png,1,1,320,50,90,317,1,1,281,neu_feedback_onset,9,0.35204268195416005,1.0618919982515558,4.07479,-0.0032649999999998514
135,002,4,1,csp,18a.png,1,1,152,NaN,NaN,154,1,0,323,neg_feedback_onset,10,15.769356095487714,5.351755184975531,3.5292499999999998,0.0565500000000001
136,002,4,1,csm,48b.png,1,1,180,62,-118,183,1,1,277,neu_feedback_onset,11,2.6908895719242607,2.720937294022669,3.912275,0.2297700000000007
137,002,4,1,csm,33b.png,1,1,76,80,4,86,1,1,619,neu_feedback_onset,12,3.145674164497,7.991459970918589,3.9829299999999996,-0.2120700000000002
138,002,4,1,csp,12a.png,1,1,88,80,-8,92,1,1,282,pos_feedback_onset,13,9.750085138337344,1.7127868606368764,3.5089949999999996,0.2950150000000007
139,002,4,1,csp,25a.png,1,1,156,89,-67,153,1,1,335,pos_feedback_onset,14,9.18795626668852,3.753031349476295,3.660825,-0.0739399999999999
140,002,5,1,csm,21b.png,1,0,200,90,-110,203,1,1,299,neu_feedback_onset,1,1.6128382350152635,0.5943899653552145,4.21896,0.0849599999999997
141,002,5,1,csp,22a.png,1,1,68,89,21,75,1,0,291,neg_feedback_onset,2,0.9005088949806855,,4.203905000000001,0.2023199999999994
142,002,5,1,csm,45b.png,1,1,280,269,-11,277,1,1,714,neu_feedback_onset,3,7.554432831989308,2.4038155887090116,3.7785100000000007,0.0351849999999998
143,002,5,1,csp,35a.png,1,1,240,272,32,243,1,1,248,pos_feedback_onset,4,0.42604068435939935,1.127862899763218,4.156880000000001,-0.15606500000000034
144,002,5,1,csm,30b.png,1,0,0,81,81,359,1,1,533,neu_feedback_onset,5,16.395951050941566,1.1606513932742537,3.8819950000000008,-0.3418550000000016
145,002,5,1,csm,29b.png,1,1,252,267,15,244,1,1,523,neu_feedback_onset,6,12.200697583212655,2.068183220578638,3.3530050000000005,0.1050150000000003
146,002,5,1,csp,9a.png,1,1,72,NaN,NaN,68,1,1,327,pos_feedback_onset,7,10.934925808832148,0.17736999230185488,3.6722699999999997,0.010965000000001002
147,002,5,1,csm,10b.png,1,1,160,277,117,158,1,0,303,neu_feedback_onset,8,12.824855376299965,9.173205200966077,3.5929449999999994,-0.540820000000001
148,002,5,1,csp,44a.png,1,0,264,86,-178,264,1,1,473,pos_feedback_onset,9,11.186168589950887,7.816243520424469,3.818555000000001,-0.1340699999999999
149,002,5,1,csp,29a.png,1,1,144,87,-57,143,1,1,636,neg_feedback_onset,10,8.781837255246526,2.077045872833152,3.75582,0.09065000000000012
150,002,5,1,csp,41a.png,1,1,220,270,50,217,1,1,250,pos_feedback_onset,11,7.436247088424247,8.022127621067813,3.479645,-0.12147500000000022
151,002,5,1,csm,51b.png,1,1,140,270,130,140,1,1,787,neu_feedback_onset,12,14.845875502346768,3.34923293051802,3.4973350000000005,-0.3695950000000008
152,002,5,1,csm,43b.png,1,1,196,269,73,199,1,1,439,neu_feedback_onset,13,4.485512301814288,5.145840557931635,3.819965,-0.004734999999999268
153,002,5,1,csp,26a.png,1,1,20,86,66,11,1,0,284,neg_feedback_onset,14,6.398016635676576,7.495735384787497,3.839940000000001,-0.2703650000000004
154,002,6,1,csm,1b.png,1,1,48,84,36,54,1,1,267,neu_feedback_onset,1,5.844788222229389,1.5046037660128577,4.02521,
155,002,6,1,csm,57b.png,1,1,120,90,-30,301,1,1,279,neu_feedback_onset,2,1.4568916440002475,10.636424994454176,3.9522500000000003,0.06341000000000019
156,002,6,1,csp,6a.png,1,1,40,230,-170,223,1,0,527,neg_feedback_onset,3,13.252956309803224,12.42484002827711,4.4312,0.06608000000000036
157,002,6,1,csm,53b.png,1,1,272,68,156,95,1,1,584,neu_feedback_onset,4,17.569653064958324,1.4210489893238851,3.580065,-0.09770000000000012
158,002,6,1,csp,54a.png,1,1,60,85,25,64,1,1,423,pos_feedback_onset,5,3.7380983266312042,3.7423911328305954,3.8545000000000003,-0.14585500000000096
159,002,6,1,csm,24b.png,1,0,148,88,-60,148,1,1,332,neu_feedback_onset,6,1.8898416762008377,2.970399233047308,3.972555,0.45431500000000025
160,002,6,1,csm,16b.png,1,1,168,73,-95,168,1,1,258,neu_feedback_onset,7,10.082705816004138,0.8772030673365633,4.187074999999999,-0.19470499999999902
161,002,6,1,csp,59a.png,1,1,292,90,158,293,1,1,444,pos_feedback_onset,8,3.7224255339709953,3.921805698634878,3.9698700000000002,-0.3117100000000006
162,002,6,1,csm,54b.png,1,1,228,82,-146,NaN,0,1,275,neu_feedback_onset,9,6.788981858494701,2.585870632226099,3.8877700000000006,
163,002,6,1,csp,17a.png,1,1,208,90,-118,207,1,1,344,pos_feedback_onset,10,1.7910403956284273,0.6728015009307309,4.088685,-0.01980999999999966
164,002,6,1,csp,30a.png,1,1,224,84,-140,224,1,1,321,pos_feedback_onset,11,5.35050913690961,2.3716835986764453,3.99205,0.0015049999999998676
165,002,6,1,csp,45a.png,1,1,348,255,-93,343,1,1,389,pos_feedback_onset,12,6.14132766687779,7.6842802461434045,3.9154400000000003,-0.3307599999999997
166,002,6,1,csp,14a.png,1,1,212,87,-125,199,1,1,458,pos_feedback_onset,13,,11.570798188308327,3.986045,-0.10523500000000041
167,002,6,1,csm,46b.png,1,1,244,84,-160,244,1,1,699,neu_feedback_onset,14,2.113483215361657,1.7937378466650327,4.2969349999999995,0.0868050000000018
168,003,1,1,csp,18a.png,1,1,320,316,-4,320,1,1,294,pos_feedback_onset,1,,,6.341035,
169,003,1,1,csm,53b.png,1,1,108,119,11,110,1,0,442,neu_feedback_onset,2,,,6.153955000000001,
170,003,1,1,csm,44b.png,1,1,148,130,-18,148,1,1,356,neu_feedback_onset,3,,,6.237005000000001,
171,003,1,1,csm,52b.png,1,1,308,316,8,308,1,1,379,neu_feedback_onset,4,,,5.842524999999999,
172,003,1,1,csm,41b.png,1,1,56,50,-6,55,1,1,468,neu_feedback_onset,5,,,5.880665000000001,
173,003,1,1,csm,33b.png,1,1,256,248,-8,255,1,0,333,neu_feedback_onset,6,,,6.401940000000001,
174,003,1,1,csp,27a.png,1,1,96,44,-52,95,1,0,682,neg_feedback_onset,7,,,6.112920000000001,
175,003,1,1,csp,41a.png,1,1,116,126,10,116,1,1,387,pos_feedback_onset,8,,,6.1804250000000005,
176,003,1,1,csp,26a.png,1,1,80,246,166,79,1,1,302,pos_feedback_onset,9,,,6.381285,
177,003,1,1,csp,53a.png,1,1,252,251,-1,251,1,1,284,pos_feedback_onset,10,,,6.194555000000002,
178,003,1,1,csp,38a.png,1,1,280,243,-37,280,1,1,630,neg_feedback_onset,11,,,6.273135,
179,003,1,1,csp,6a.png,1,1,4,358,-6,3,1,1,301,pos_feedback_onset,12,,,5.6983500000000005,
180,003,1,1,csm,7b.png,1,1,68,45,-23,67,1,1,411,neu_feedback_onset,13,,,5.827985,
181,003,1,1,csm,27b.png,1,1,28,37,9,29,1,1,316,neu_feedback_onset,14,,,5.98126,
182,003,2,1,csm,35b.png,1,1,260,235,-25,259,1,0,NaN,neu_feedback_onset,1,,,6.438809999999999,
183,003,2,1,csp,47a.png,1,0,208,89,-119,208,1,1,330,pos_feedback_onset,2,,,6.239534999999999,
184,003,2,1,csm,17b.png,1,1,40,32,-8,39,1,1,259,neu_feedback_onset,3,,,6.271400000000001,
185,003,2,1,csp,42a.png,1,1,232,233,1,234,1,0,348,neg_feedback_onset,4,,,6.138565,
186,003,2,1,csp,8a.png,1,1,268,311,43,269,1,1,313,pos_feedback_onset,5,,,6.184320000000001,-0.14311499999999988
187,003,2,1,csm,10b.png,1,1,156,134,-22,156,1,1,335,neu_feedback_onset,6,,,6.167509999999999,
188,003,2,1,csm,28b.png,1,1,36,39,3,35,1,1,496,neu_feedback_onset,7,,,5.642514999999999,
189,003,2,1,csm,42b.png,1,1,44,39,-5,44,1,1,361,neu_feedback_onset,8,,,5.93671,
190,003,2,1,csp,34a.png,1,1,188,236,48,187,1,1,362,pos_feedback_onset,9,,,5.87365,
191,003,2,1,csm,20b.png,1,1,100,43,-57,100,1,1,576,neu_feedback_onset,10,,,6.043729999999999,
192,003,2,1,csp,59a.png,1,1,220,233,13,221,1,1,339,pos_feedback_onset,11,,,5.714665000000001,0.10554500000000111
193,003,2,1,csm,31b.png,1,1,296,307,11,296,1,1,426,neu_feedback_onset,12,,,5.8157000000000005,
194,003,2,1,csp,55a.png,1,1,180,178,-2,179,1,1,292,pos_feedback_onset,13,,,5.880995,0.26174500000000034
195,003,2,1,csp,65a.png,1,1,144,238,94,145,1,1,422,pos_feedback_onset,14,,,5.693685,
196,003,3,1,csm,46b.png,1,1,348,337,-11,348,1,1,323,neu_feedback_onset,1,,,6.36209,
197,003,3,1,csp,29a.png,1,1,76,70,-6,74,1,1,349,pos_feedback_onset,2,,,6.299005,
198,003,3,1,csp,31a.png,1,1,300,324,24,301,1,0,336,neg_feedback_onset,3,,,6.1835700000000005,
199,003,3,1,csm,49b.png,1,1,228,233,5,229,1,1,397,neu_feedback_onset,4,2.0658459242678613,,6.00432,
200,003,3,1,csp,56a.png,1,1,60,64,4,60,1,1,542,neg_feedback_onset,5,,,5.942789999999999,
201,003,3,1,csm,56b.png,1,0,316,320,4,316,1,1,486,neu_feedback_onset,6,,,6.15141,0.1931250000000002
202,003,3,1,csm,5b.png,1,1,164,152,-12,163,1,1,345,neu_feedback_onset,7,,,5.887829999999999,
203,003,3,1,csp,7a.png,1,1,84,73,-11,84,1,1,330,pos_feedback_onset,8,,,5.8597150000000005,0.28183500000000095
204,003,3,1,csm,9b.png,1,1,344,343,-1,343,1,1,390,neu_feedback_onset,9,,0.8755270073920164,6.00165,
205,003,3,1,csm,3b.png,1,1,64,59,-5,64,1,1,513,neu_feedback_onset,10,,,5.565644999999999,
206,003,3,1,csp,19a.png,1,1,20,27,7,19,1,1,342,pos_feedback_onset,11,,,5.319875,
207,003,3,1,csp,14a.png,1,1,288,242,-46,288,1,1,372,pos_feedback_onset,12,4.853197046934201,9.470104015095806,5.7330250000000005,
208,003,3,1,csm,1b.png,1,1,312,307,-5,311,1,1,544,neu_feedback_onset,13,,,6.092084999999999,
209,003,3,1,csp,36a.png,1,1,332,240,-92,331,1,1,305,pos_feedback_onset,14,,,6.0261249999999995,
210,003,4,1,csp,62a.png,1,1,168,172,4,168,1,1,332,pos_feedback_onset,1,,,3.2718300000000005,0.02012999999999998
211,003,4,1,csp,48a.png,1,1,152,207,55,153,1,1,301,pos_feedback_onset,2,,,6.189935,
212,003,4,1,csm,13b.png,1,0,248,115,-133,247,1,1,276,neu_feedback_onset,3,,,6.052834999999999,0.6369199999999999
213,003,4,1,csp,11a.png,1,1,328,323,-5,328,1,1,289,pos_feedback_onset,4,11.351005961833462,,5.124720000000001,-0.5983150000000004
214,003,4,1,csm,40b.png,1,1,272,232,-40,272,1,1,302,neu_feedback_onset,5,6.597763180934487,,5.568175000000001,
215,003,4,1,csp,51a.png,1,1,212,210,-2,211,1,1,364,pos_feedback_onset,6,15.368462707572169,,5.155135,0.901955000000001
216,003,4,1,csm,61b.png,1,1,216,212,-4,215,1,1,333,neu_feedback_onset,7,15.952266846541093,,5.018315000000001,0.046065000000001355
217,003,4,1,csp,22a.png,1,1,324,330,6,324,1,1,418,pos_feedback_onset,8,,9.275643875945645,5.14405,
218,003,4,1,csm,4b.png,1,1,92,90,-2,93,1,1,653,neu_feedback_onset,9,10.420275692562825,6.888127631090127,5.4031199999999995,
219,003,4,1,csm,26b.png,1,1,8,17,9,7,1,1,288,neu_feedback_onset,10,11.232348509126641,,5.8663599999999985,
220,003,4,1,csp,13a.png,1,1,356,347,-9,356,1,1,329,pos_feedback_onset,11,,,6.151165000000001,
221,003,4,1,csm,57b.png,1,1,72,48,-24,71,1,1,428,neu_feedback_onset,12,,,5.866999999999999,
222,003,4,1,csp,46a.png,1,1,204,222,18,206,1,1,392,neg_feedback_onset,13,1.981171900680242,,5.993170000000002,
223,003,4,1,csm,15b.png,1,1,292,313,21,294,1,1,461,neu_feedback_onset,14,,7.732078140745993,5.656125,
224,003,5,1,csm,34b.png,1,0,236,266,30,236,1,1,269,neu_feedback_onset,1,,,2.5855049999999995,
225,003,5,1,csp,40a.png,1,1,48,235,-173,46,1,1,295,pos_feedback_onset,2,,,6.068379999999999,
226,003,5,1,csm,50b.png,1,1,244,232,-12,244,1,1,352,neu_feedback_onset,3,5.300429991491117,,5.717555,
227,003,5,1,csp,30a.png,1,1,184,189,5,183,1,0,459,neg_feedback_onset,4,6.720390424271801,,5.690220000000001,0.33303999999999956
228,003,5,1,csm,45b.png,1,1,112,135,23,114,1,1,601,neu_feedback_onset,5,,6.705909773566466,5.74298,-0.08179999999999943
229,003,5,1,csm,19b.png,1,1,172,333,161,172,1,1,396,neu_feedback_onset,6,3.8736595974032575,3.7367577158049565,5.593935,0.24710000000000054
230,003,5,1,csp,57a.png,1,1,88,96,8,88,1,1,319,pos_feedback_onset,7,7.5555366504673644,,5.172035,0.577
231,003,5,1,csp,35a.png,1,1,32,36,4,32,1,1,393,pos_feedback_onset,8,,,5.940635000000001,
232,003,5,1,csm,8b.png,1,1,16,203,-173,196,1,1,379,neu_feedback_onset,9,1.1196468235093073,3.4174069648639716,5.792005,-0.04721500000000045
233,003,5,1,csm,2b.png,1,1,240,244,4,240,1,1,358,neu_feedback_onset,10,10.662872494278323,0.5269623645266014,5.341525,0.3476700000000008
234,003,5,1,csp,23a.png,1,1,196,15,179,194,1,1,259,pos_feedback_onset,11,6.590735780802161,4.290638521435701,5.32414,0.6341899999999994
235,003,5,1,csm,51b.png,1,1,336,344,8,335,1,1,549,neu_feedback_onset,12,11.830900114286482,18.078838238241342,5.35735,
236,003,5,1,csp,24a.png,1,1,136,348,-148,137,1,1,380,pos_feedback_onset,13,13.921921686185396,,5.095525000000001,0.9254949999999988
237,003,5,1,csp,49a.png,1,1,132,187,55,131,1,1,343,pos_feedback_onset,14,3.403993611975609,1.1098892866277044,5.926715,-0.03836499999999976
238,003,6,1,csp,50a.png,1,1,304,313,9,306,1,1,350,pos_feedback_onset,1,,,,
239,003,6,1,csp,63a.png,1,1,124,138,14,122,1,1,399,pos_feedback_onset,2,,,,
240,003,6,1,csm,23b.png,1,1,192,177,-15,192,1,1,348,neu_feedback_onset,3,,,,
241,003,6,1,csm,48b.png,1,1,120,113,-7,121,1,1,531,neu_feedback_onset,4,,,,
242,003,6,1,csp,1a.png,1,1,160,163,3,160,1,1,344,pos_feedback_onset,5,,,,
243,003,6,1,csm,11b.png,1,1,12,13,1,11,1,1,322,neu_feedback_onset,6,,,,
244,003,6,1,csp,61a.png,1,1,264,266,2,262,1,1,289,pos_feedback_onset,7,,,,
245,003,6,1,csp,37a.png,1,1,0,7,7,1,1,1,317,pos_feedback_onset,8,,,,
246,003,6,1,csm,60b.png,1,1,276,284,8,275,1,1,457,neu_feedback_onset,9,,,,
247,003,6,1,csp,43a.png,1,1,340,337,-3,339,1,1,466,neg_feedback_onset,10,,,,
248,003,6,1,csm,12b.png,1,1,128,135,7,128,1,1,702,neu_feedback_onset,11,,,,
249,003,6,1,csm,32b.png,1,1,140,135,-5,140,1,1,442,neu_feedback_onset,12,,,,
250,003,6,1,csp,45a.png,1,1,176,224,48,178,1,1,338,pos_feedback_onset,13,,,,
251,003,6,1,csm,39b.png,1,1,52,122,70,53,1,1,357,neu_feedback_onset,14,,,,
252,004,1,1,csp,53a.png,1,1,300,312,12,296,1,1,571,neg_feedback_onset,1,4.160497888907182,18.8976377952756,4.741619999999999,0.26151500000000016
253,004,1,1,csp,44a.png,1,1,352,356,4,356,1,1,574,neg_feedback_onset,2,0.8921608533398263,,5.25746,-0.2673899999999989
254,004,1,1,csp,10a.png,1,1,100,131,31,97,1,0,NaN,neg_feedback_onset,3,0.626030951334953,15.853252762369248,4.82564,0.05010500000000029
255,004,1,1,csp,41a.png,1,1,336,151,175,338,1,1,496,pos_feedback_onset,4,7.094718657708384,4.879684606844821,4.833525000000001,
256,004,1,1,csm,7b.png,1,1,56,232,176,53,1,0,NaN,neu_feedback_onset,5,1.0972736171873356,16.108960191606265,4.581644999999999,-0.3195700000000006
257,004,1,1,csp,65a.png,1,1,264,45,141,271,1,1,327,pos_feedback_onset,6,20.676279553218578,6.845685517759415,4.029345000000001,-0.07687000000000044
258,004,1,1,csp,35a.png,1,1,108,136,28,108,1,0,344,neg_feedback_onset,7,11.427657308763099,16.87236920318241,4.188259999999999,0.13721499999999942
259,004,1,1,csm,32b.png,1,1,356,37,41,2,1,1,646,neu_feedback_onset,8,7.8295673309242515,11.130713990153426,4.501015,-0.08802499999999913
260,004,1,1,csm,49b.png,1,1,296,310,14,300,1,1,606,neu_feedback_onset,9,6.83417515529722,4.646512055015359,4.556585,-0.06598999999999933
261,004,1,1,csm,22b.png,1,1,276,304,28,279,1,1,982,neu_feedback_onset,10,1.2566649492565374,9.087058806780764,4.172949999999999,0.007209999999999717
262,004,1,1,csm,34b.png,1,1,72,52,-20,64,1,1,656,neu_feedback_onset,11,5.777950361107351,5.49394007997572,4.300660000000001,-0.11423499999999898
263,004,1,1,csm,64b.png,1,1,132,227,95,128,1,1,741,neu_feedback_onset,12,2.4044759855398508,9.047659978845358,4.125450000000001,-0.4802899999999992
264,004,1,1,csp,45a.png,1,1,280,63,143,284,1,1,571,pos_feedback_onset,13,2.305078821825911,9.29978359271359,4.40614,-0.03324000000000016
265,004,1,1,csm,52b.png,1,1,124,46,-78,125,1,1,718,neu_feedback_onset,14,0.5636476151771271,3.8553514778706544,4.330720000000001,-0.07158500000000023
266,004,2,1,csp,12a.png,1,0,188,183,-5,180,1,1,775,neg_feedback_onset,1,2.2461814063938053,,5.28074,0.04463999999999935
267,004,2,1,csp,31a.png,1,1,0,136,136,178,0,0,NaN,neg_feedback_onset,2,,14.928267950863889,5.501049999999999,-0.05582500000000046
268,004,2,1,csp,19a.png,1,1,312,308,-4,309,1,1,552,neg_feedback_onset,3,16.934423309177788,,4.284165,-0.37813999999999925
269,004,2,1,csm,26b.png,1,1,316,289,-27,315,1,1,569,neu_feedback_onset,4,1.0498392451118277,10.249713850952599,4.985185,-0.5285949999999984
270,004,2,1,csm,8b.png,1,1,116,127,11,108,1,1,781,neu_feedback_onset,5,6.129107889492411,7.399873849672369,4.0945599999999995,0.14644999999999975
271,004,2,1,csm,17b.png,1,1,332,321,-11,329,1,1,557,neu_feedback_onset,6,3.0654966183637042,9.291426494261831,4.676729999999999,-0.07204999999999995
272,004,2,1,csm,57b.png,1,1,228,304,76,221,1,1,977,neu_feedback_onset,7,6.625646765859142,11.89549138122368,4.413305,0.0007699999999992713
273,004,2,1,csp,9a.png,1,0,236,290,54,238,1,1,506,pos_feedback_onset,8,0.7256731445938154,16.348052203460206,4.909235,0.23558500000000038
274,004,2,1,csm,11b.png,1,1,212,262,50,216,1,1,642,neu_feedback_onset,9,0.02279747193572525,9.222479934510737,4.27679,0.07798500000000042
275,004,2,1,csm,62b.png,1,1,232,217,-15,233,1,1,744,neu_feedback_onset,10,12.386750950433107,8.683928672090806,4.016589999999999,-0.1600350000000006
276,004,2,1,csp,26a.png,1,1,220,36,176,223,1,1,533,pos_feedback_onset,11,0.04061402305308194,10.330411682518557,4.59201,0.06548999999999872
277,004,2,1,csp,64a.png,1,1,176,116,-60,176,1,1,470,pos_feedback_onset,12,2.2262477164951227,6.225555641957734,4.239645,0.00964000000000187
278,004,2,1,csm,59b.png,1,1,96,97,1,95,1,1,769,neu_feedback_onset,13,4.0206809039775395,6.898630961335942,4.125545,-0.3381049999999992
279,004,2,1,csp,22a.png,1,1,348,341,-7,345,1,1,689,neg_feedback_onset,14,30.485212984465356,,4.062855,-0.19160499999999914
280,004,3,1,csm,43b.png,1,1,64,44,-20,60,1,1,713,neu_feedback_onset,1,,10.11975594163857,4.920695,0.1068099999999994
281,004,3,1,csm,60b.png,1,1,244,228,-16,254,1,1,643,neu_feedback_onset,2,1.7850038458478181,5.068211375964109,4.52436,-0.1414099999999996
282,004,3,1,csp,3a.png,1,1,180,183,3,NaN,0,1,582,neg_feedback_onset,3,1.3451299185200245,21.641039185172474,4.260554999999999,
283,004,3,1,csm,31b.png,1,1,292,305,13,289,1,1,607,neu_feedback_onset,4,2.5999297094657763,3.3375922753695066,4.268000000000001,-0.011720000000001285
284,004,3,1,csm,6b.png,1,0,8,48,40,11,1,1,616,neu_feedback_onset,5,3.0783917608268387,6.4024345571867425,4.823784999999999,-0.0807999999999991
285,004,3,1,csm,50b.png,1,1,288,311,23,290,1,1,540,neu_feedback_onset,6,15.836195174398389,5.8133952904682005,3.9528749999999997,0.1076450000000011
286,004,3,1,csp,47a.png,1,1,168,324,156,164,1,1,462,pos_feedback_onset,7,6.843920547934907,4.134814049586742,3.9880649999999997,0.16767500000000002
287,004,3,1,csp,1a.png,1,1,172,170,-2,NaN,0,1,592,neg_feedback_onset,8,7.6072424796864055,,4.282235000000001,
288,004,3,1,csp,48a.png,1,1,196,47,-149,192,1,1,775,neg_feedback_onset,9,2.0290653281427677,13.791612188353275,4.7933400000000015,-0.07442999999999955
289,004,3,1,csp,11a.png,1,1,40,44,4,35,1,1,664,neg_feedback_onset,10,,,4.68164,0.044050000000001255
290,004,3,1,csm,63b.png,1,1,52,48,-4,56,1,1,528,neu_feedback_onset,11,2.225351223774519,2.0494671052318445,4.595005,-0.2097900000000017
291,004,3,1,csp,28a.png,1,1,328,196,-132,325,1,1,570,pos_feedback_onset,12,2.6520207961108953,13.417359279079657,4.1613549999999995,-0.6267949999999995
292,004,3,1,csm,65b.png,1,1,20,327,-53,18,1,1,572,neu_feedback_onset,13,1.3540856789987126,6.496712804075085,4.443835000000001,-0.21851000000000065
293,004,3,1,csp,66a.png,1,1,36,42,6,28,1,1,407,pos_feedback_onset,14,0.5939741926758373,11.90602071707894,4.066675,0.1470549999999995
294,004,4,1,csp,59a.png,1,0,32,2,-30,36,1,0,NaN,neg_feedback_onset,1,4.649356605467283,,4.3390949999999995,0.17756500000000042
295,004,4,1,csp,13a.png,1,1,28,318,-70,30,1,1,660,neg_feedback_onset,2,9.335540813114314,13.405528606631218,4.288449999999999,-0.10103000000000062
296,004,4,1,csm,12b.png,1,1,240,123,-117,245,1,1,924,neu_feedback_onset,3,-0.1459902061964681,,4.25371,0.15020000000000167
297,004,4,1,csm,19b.png,1,1,156,78,-78,154,1,1,624,neu_feedback_onset,4,,1.2791620102743657,4.853340000000001,-0.08685999999999972
298,004,4,1,csm,39b.png,1,0,252,238,-14,250,1,1,546,neu_feedback_onset,5,7.785890256412861,4.348456243210089,3.9089300000000007,-0.1810649999999998
299,004,4,1,csm,10b.png,1,1,88,77,-11,84,1,1,579,neu_feedback_onset,6,2.3577753245087085,3.3134057043371237,4.171305000000002,-0.30920000000000014
300,004,4,1,csm,29b.png,1,1,148,132,-16,146,1,1,560,neu_feedback_onset,7,4.576270291532819,9.17122497232176,3.7879099999999992,0.19571499999999986
301,004,4,1,csp,39a.png,1,1,184,200,16,191,1,1,591,neg_feedback_onset,8,8.732968592823005,10.304097292601721,3.9416149999999996,-0.023769999999999403
302,004,4,1,csp,37a.png,1,1,164,352,-172,162,1,1,697,neg_feedback_onset,9,3.1815360213746726,12.662505953881958,4.23679,0.06160500000000102
303,004,4,1,csm,56b.png,1,1,192,292,100,193,1,1,694,neu_feedback_onset,10,0.24958860994473242,4.262824379517084,4.17487,-0.21162000000000036
304,004,4,1,csp,33a.png,1,1,324,316,-8,324,1,1,649,neg_feedback_onset,11,1.324286584421372,,4.293255,-0.3096950000000005
305,004,4,1,csp,54a.png,1,0,216,351,135,216,1,1,542,pos_feedback_onset,12,1.9513219579611243,14.19153602657359,4.428279999999999,-0.2715500000000013
306,004,4,1,csm,51b.png,1,1,272,270,-2,271,1,1,703,neu_feedback_onset,13,4.54089190348108,6.09299097848716,4.10448,-0.06252499999999994
307,004,4,1,csp,16a.png,1,1,260,266,6,259,1,1,587,pos_feedback_onset,14,3.7969835500680347,11.057219973331645,4.503970000000001,-0.1528249999999991
308,004,5,1,csp,8a.png,1,1,60,38,-22,59,1,1,466,pos_feedback_onset,1,-1.2612133559741778e-14,13.833386917997467,5.270345000000001,-0.0679949999999998
309,004,5,1,csm,54b.png,1,1,76,75,-1,75,1,1,635,neu_feedback_onset,2,-0.427512999434234,5.104960335668627,4.6396250000000006,-0.06989499999999982
310,004,5,1,csm,48b.png,1,1,256,101,-155,266,1,1,488,neu_feedback_onset,3,8.23500813879346,4.325369414999194,3.9287150000000004,-0.12717499999999982
311,004,5,1,csp,43a.png,1,1,204,146,-58,206,1,1,502,neg_feedback_onset,4,0.2753538972703171,19.604584815198024,4.147390000000001,0.19455500000000026
312,004,5,1,csm,37b.png,1,1,268,219,-49,271,1,1,597,neu_feedback_onset,5,0.046463638024862364,3.4795115240901264,4.48738,-0.018295000000000172
313,004,5,1,csp,32a.png,1,1,320,310,-10,316,1,1,474,pos_feedback_onset,6,1.769662222242319,13.736435732148909,4.419770000000001,0.09293499999999888
314,004,5,1,csm,3b.png,1,1,344,319,-25,341,1,1,660,neu_feedback_onset,7,2.703748836401019,16.282109180595544,4.008754999999999,-0.2014149999999999
315,004,5,1,csm,66b.png,1,1,104,261,157,NaN,0,1,687,neu_feedback_onset,8,0.9126273040800725,0.4847620744965303,4.442119999999998,
316,004,5,1,csp,15a.png,1,1,152,138,-14,154,1,1,564,neg_feedback_onset,9,0.6485358920285885,26.048963691565042,4.156285,-0.038869999999999294
317,004,5,1,csp,61a.png,1,1,136,139,3,135,1,1,481,pos_feedback_onset,10,0.9208040012703785,7.192308331296166,4.37661,-0.23139999999999983
318,004,5,1,csm,33b.png,1,1,248,251,3,240,1,1,729,neu_feedback_onset,11,-0.08918386162771112,2.69233970205327,4.479509999999999,0.04090500000000086
319,004,5,1,csp,36a.png,1,1,16,18,2,13,1,1,527,pos_feedback_onset,12,2.519601797198489,17.31135721070022,3.9728499999999998,-0.3891800000000005
320,004,5,1,csm,14b.png,1,1,224,52,-172,227,1,1,489,neu_feedback_onset,13,3.20475059382425,0.40451379489726413,4.209999999999999,-0.07602999999999938
321,004,5,1,csp,49a.png,1,1,340,332,-8,342,1,1,558,pos_feedback_onset,14,0.8204041695359472,9.281218573464532,4.450855000000001,-0.4272350000000005
322,004,6,1,csp,57a.png,1,1,92,95,3,91,1,1,599,neg_feedback_onset,1,1.6970338115883177,7.873748844428713,4.764195,-0.07606000000000002
323,004,6,1,csm,9b.png,1,1,80,72,-8,82,1,1,590,neu_feedback_onset,2,14.625728362688658,8.375348977676975,4.3779699999999995,-0.7048049999999995
324,004,6,1,csp,4a.png,1,1,44,57,13,50,1,1,478,pos_feedback_onset,3,12.484706180257033,4.50267816875906,4.344074999999999,-0.5509149999999998
325,004,6,1,csm,1b.png,1,1,48,66,18,52,1,1,622,neu_feedback_onset,4,20.41844803790669,1.9756466404295447,4.078085,-0.8023349999999985
326,004,6,1,csm,40b.png,1,1,128,216,88,129,1,1,673,neu_feedback_onset,5,4.577881199564011,0.5437319197580972,4.316735,0.030324999999998603
327,004,6,1,csp,17a.png,1,1,24,27,3,28,1,1,531,pos_feedback_onset,6,7.6895309801802885,13.924891836978007,4.2939549999999995,0.2119850000000003
328,004,6,1,csm,23b.png,1,1,140,141,1,135,1,1,620,neu_feedback_onset,7,4.570744832637074,0.9054299171546493,4.082595,0.340935
329,004,6,1,csm,36b.png,1,1,144,146,2,145,1,1,465,neu_feedback_onset,8,2.783439068060738,6.498446164158177,4.5239,0.12694000000000072
330,004,6,1,csp,14a.png,1,1,200,205,5,198,1,1,485,pos_feedback_onset,9,5.874190284746625,11.28320612646845,4.136484999999999,-0.06396999999999853
331,004,6,1,csp,63a.png,1,1,4,19,15,2,1,1,507,pos_feedback_onset,10,8.596605981748722,18.42194919404637,4.257785,-0.3203300000000002
332,004,6,1,csp,5a.png,1,1,112,53,-59,110,1,1,590,neg_feedback_onset,11,1.932613471799297,5.900353235964897,4.540225,-0.04268500000000053
333,004,6,1,csm,38b.png,1,1,12,21,9,14,1,1,569,neu_feedback_onset,12,14.870074369877532,3.154129608188039,4.229535,-0.06482999999999972
334,004,6,1,csp,24a.png,1,1,68,39,-29,67,1,1,538,pos_feedback_onset,13,9.627706842523741,10.634319033228202,4.06239,-0.8097050000000006
335,004,6,1,csm,30b.png,1,1,84,137,53,87,1,1,653,neu_feedback_onset,14,4.905219897134087,4.93587312306868,4.112150000000001,-0.3852649999999995
336,005,1,1,csp,6a.png,1,1,228,226,-2,NaN,0,1,303,neg_feedback_onset,1,7.498233790207022,1.7317231644747255,4.734715,
337,005,1,1,csp,16a.png,1,1,236,283,47,237,1,1,548,neg_feedback_onset,2,5.084966046073345,17.048666006798733,4.616550000000001,0.11313499999999976
338,005,1,1,csm,52b.png,1,1,32,359,-33,32,1,1,359,neu_feedback_onset,3,3.174766450358946,4.264107551852257,5.10384,-0.13815499999999936
339,005,1,1,csp,60a.png,1,1,252,253,1,253,1,1,319,pos_feedback_onset,4,4.5886285877400805,2.8154959262454424,4.97458,0.3495549999999996
340,005,1,1,csp,51a.png,1,1,192,281,89,191,1,0,304,neg_feedback_onset,5,1.4742854306696178,4.253035324534876,5.238470000000001,0.28433499999999867
341,005,1,1,csp,33a.png,1,1,108,127,19,108,1,1,267,pos_feedback_onset,6,8.432243143039198,2.0990211193045636,4.9830749999999995,0.21272000000000002
342,005,1,1,csp,50a.png,1,1,56,36,-20,56,1,1,448,pos_feedback_onset,7,11.844017781492884,4.301797139358099,4.833115,-0.3767150000000008
343,005,1,1,csm,12b.png,1,1,144,125,-19,145,1,1,407,neu_feedback_onset,8,6.167718017303727,6.839320193725595,4.59092,0.6437950000000008
344,005,1,1,csm,10b.png,1,1,80,75,-5,77,1,1,310,neu_feedback_onset,9,11.033305353033914,1.8794177309622182,4.926085,0.4117549999999994
345,005,1,1,csp,3a.png,1,1,328,318,-10,329,1,1,277,pos_feedback_onset,10,23.571165124900247,1.5896377241024569,4.59718,-0.27955999999999825
346,005,1,1,csm,47b.png,1,1,184,180,-4,183,1,1,508,neu_feedback_onset,11,7.800258508155006,10.212270854581261,4.66523,-0.4744049999999982
347,005,1,1,csm,1b.png,1,1,272,295,23,274,1,1,249,neu_feedback_onset,12,,2.9188940968982826,4.332330000000001,
348,005,1,1,csm,8b.png,1,1,284,271,-13,284,1,1,369,neu_feedback_onset,13,7.677520295202973,5.900136306473952,4.234374999999999,0.5401499999999988
349,005,1,1,csm,7b.png,1,1,128,359,-129,126,1,1,418,neu_feedback_onset,14,12.155103966637336,5.721572277836021,4.6377999999999995,0.09712500000000013
350,005,2,1,csm,64b.png,1,1,196,214,18,NaN,0,1,339,neu_feedback_onset,1,8.487348476653299,3.4926058578852093,4.8994100000000005,
351,005,2,1,csp,7a.png,1,1,232,288,56,231,1,1,289,pos_feedback_onset,2,11.262881191213172,3.622536211965902,4.67154,
352,005,2,1,csm,4b.png,1,1,116,127,11,116,1,1,321,neu_feedback_onset,3,9.98373189270822,1.9768517232209244,4.502675,0.5819549999999989
353,005,2,1,csm,35b.png,1,1,300,307,7,301,1,1,336,neu_feedback_onset,4,0.6431054014688606,1.6132868923729666,5.19044,0.7544449999999996
354,005,2,1,csp,54a.png,1,1,268,283,15,267,1,0,359,neg_feedback_onset,5,5.746851667822089,,4.392404999999999,0.23050999999999977
355,005,2,1,csp,40a.png,1,1,204,199,-5,205,1,0,484,neg_feedback_onset,6,1.0195437500138673,7.1347741282395365,4.50937,0.25355999999999934
356,005,2,1,csm,18b.png,1,1,68,44,-24,66,1,1,271,neu_feedback_onset,7,1.7129282826305547,0.9760850003108168,4.495119999999999,0.043700000000000294
357,005,2,1,csm,50b.png,1,1,12,325,-47,13,1,1,550,neu_feedback_onset,8,24.49487294858743,5.750084646018402,4.222699999999999,-0.6719649999999993
358,005,2,1,csm,39b.png,1,1,96,109,13,96,1,1,283,neu_feedback_onset,9,6.135307837347137,6.013670189388393,4.431155,-0.3155400000000004
359,005,2,1,csm,57b.png,1,1,336,31,55,336,1,1,335,neu_feedback_onset,10,0.06417321768264617,1.1696758901577589,4.79951,0.7554000000000007
360,005,2,1,csp,18a.png,1,1,256,229,-27,256,1,0,253,neg_feedback_onset,11,7.739829553826472,6.857340139577319,4.2077800000000005,0.3595499999999996
361,005,2,1,csp,30a.png,1,1,356,360,4,358,1,1,270,pos_feedback_onset,12,1.9241412775453224,2.2654119134630473,4.544104999999999,0.48049499999999945
362,005,2,1,csp,64a.png,1,1,160,134,-26,160,1,1,344,pos_feedback_onset,13,3.18661219932699,10.506059363809136,4.764934999999999,-0.12898499999999968
363,005,2,1,csp,8a.png,1,1,40,233,-167,38,1,1,348,pos_feedback_onset,14,1.6803970286450656,3.3141268455023485,4.717040000000001,0.0063699999999986545
364,005,3,1,csm,37b.png,1,1,52,40,-12,52,1,1,256,neu_feedback_onset,1,9.580582853989377,0.554138498367953,4.711299999999999,0.015105000000000146
365,005,3,1,csm,36b.png,1,1,48,41,-7,46,1,1,240,neu_feedback_onset,2,11.696860493386714,0.9840189886657031,4.401010000000001,0.3884599999999985
366,005,3,1,csp,29a.png,1,1,324,314,-10,327,1,1,439,pos_feedback_onset,3,4.519825631506954,2.2793525914062114,4.452535,-0.2591599999999996
367,005,3,1,csp,39a.png,1,1,104,137,33,104,1,1,353,pos_feedback_onset,4,0.9363864813134878,0.7488311637922667,4.608140000000001,0.616509999999999
368,005,3,1,csp,20a.png,1,1,76,86,10,74,1,1,344,pos_feedback_onset,5,2.8034154213686646,0.04897510355231493,4.617825000000001,0.024670000000000414
369,005,3,1,csp,42a.png,1,1,188,259,71,187,1,1,272,pos_feedback_onset,6,4.182391409351836,2.8370976191576114,4.378715,0.8836249999999994
370,005,3,1,csm,59b.png,1,1,84,104,20,85,1,1,219,neu_feedback_onset,7,0.14507837386065708,5.213045988109792,5.07312,-0.2991199999999985
371,005,3,1,csm,21b.png,1,1,296,306,10,299,1,1,327,neu_feedback_onset,8,5.728567796171591,1.8716927081853185,4.4441299999999995,0.43930499999999917
372,005,3,1,csm,30b.png,1,1,260,255,-5,259,1,0,540,neu_feedback_onset,9,7.287935821758107,9.77840114593635,4.161534999999999,0.45877499999999927
373,005,3,1,csm,24b.png,1,1,16,38,22,17,1,1,341,neu_feedback_onset,10,14.139349425174018,0.8480863744614894,4.564425000000001,-0.5530899999999992
374,005,3,1,csp,63a.png,1,1,312,297,-15,314,1,1,384,pos_feedback_onset,11,2.2253981444247435,1.7064914916270983,4.488635,0.23466499999999968
375,005,3,1,csp,55a.png,1,1,212,212,0,212,1,1,355,pos_feedback_onset,12,9.003021148036243,7.346688213467511,4.3774750000000004,0.37318999999999924
376,005,3,1,csp,45a.png,1,1,168,122,-46,166,1,1,347,pos_feedback_onset,13,0.4749724669849969,4.177765700178714,5.588744999999999,0.09494500000000006
377,005,3,1,csm,58b.png,1,1,332,306,-26,333,1,1,513,neu_feedback_onset,14,17.94724924840521,0.4308113638309993,4.343945000000001,0.19540500000000094
378,005,4,1,csp,53a.png,1,1,28,25,-3,29,1,1,294,pos_feedback_onset,1,1.5840973363512085,-1.6209256159527285e-15,4.779005,-0.16636500000000076
379,005,4,1,csp,36a.png,1,1,60,77,17,61,1,1,408,pos_feedback_onset,2,1.0422434154727183,4.186575824025794,4.822290000000001,-0.3205449999999992
380,005,4,1,csm,34b.png,1,1,180,178,-2,NaN,0,1,313,neu_feedback_onset,3,1.3225091745866133,0.5078080582193043,4.67596,
381,005,4,1,csm,45b.png,1,1,200,218,18,198,1,1,370,neu_feedback_onset,4,2.0191640987180692,1.9496862980744911,4.593485,0.5788449999999994
382,005,4,1,csm,3b.png,1,1,64,53,-11,63,1,1,250,neu_feedback_onset,5,3.8010573902197637,6.284192695323832,4.513170000000001,-0.528459999999999
383,005,4,1,csm,22b.png,1,1,100,319,-141,100,1,1,342,neu_feedback_onset,6,5.757502113394218,0.7115587413334848,4.299955,0.08146500000000145
384,005,4,1,csm,17b.png,1,1,208,99,-109,NaN,0,1,326,neu_feedback_onset,7,11.049519254496762,5.5970854396536485,4.45766,
385,005,4,1,csp,35a.png,1,1,24,34,10,NaN,0,1,615,neg_feedback_onset,8,9.65832590972136,3.0025666337611163,4.43405,
386,005,4,1,csp,43a.png,1,1,224,220,-4,212,1,1,347,pos_feedback_onset,9,0.5052995063927158,2.5084814165542086,4.665100000000001,0.5400299999999998
387,005,4,1,csp,28a.png,1,1,0,1,1,NaN,0,1,311,neg_feedback_onset,10,12.88136820239533,6.595556919771295,4.282114999999999,
388,005,4,1,csp,38a.png,1,1,288,56,128,289,1,1,396,pos_feedback_onset,11,7.714590370217355,3.564336892377984,4.12814,0.206055000000001
389,005,4,1,csm,43b.png,1,1,36,55,19,36,1,1,356,neu_feedback_onset,12,9.210270943917585,1.2513678856916688,4.370210000000001,-0.4354249999999986
390,005,4,1,csm,48b.png,1,1,124,137,13,124,1,1,335,neu_feedback_onset,13,10.033777868972209,2.5262079166760456,4.483705,0.4078349999999995
391,005,4,1,csp,49a.png,1,1,152,139,-13,NaN,0,1,395,neg_feedback_onset,14,9.621180704086004,6.361753797870724,4.593615,
392,005,5,1,csp,62a.png,1,1,264,301,37,265,1,1,329,pos_feedback_onset,1,1.2420545074404765,-0.023566017419694763,4.944515000000001,0.34963000000000033
393,005,5,1,csm,29b.png,1,1,220,210,-10,219,1,1,414,neu_feedback_onset,2,0.16668253824773946,4.821016547574659,5.228855,0.24258000000000113
394,005,5,1,csm,11b.png,1,1,316,297,-19,318,1,1,459,neu_feedback_onset,3,0.5907592527333642,,4.776365,0.16852999999999874
395,005,5,1,csp,52a.png,1,1,304,312,8,304,1,1,306,pos_feedback_onset,4,1.909782502247983,1.2767691737680593,4.49292,0.1621049999999986
396,005,5,1,csm,62b.png,1,1,156,145,-11,155,1,1,304,neu_feedback_onset,5,5.258192001235639,2.942553319645236,4.467315,0.11376000000000008
397,005,5,1,csp,37a.png,1,1,292,263,-29,NaN,0,1,324,neg_feedback_onset,6,5.553804774816763,6.159094346386721,4.56939,
398,005,5,1,csp,19a.png,1,1,20,28,8,20,1,1,347,pos_feedback_onset,7,21.639216687641706,0.052681098964629115,4.112025000000001,0.05226999999999915
399,005,5,1,csm,27b.png,1,1,148,129,-19,146,1,0,316,neu_feedback_onset,8,7.520860819750323,7.960190147239482,4.3316849999999985,0.10001000000000015
400,005,5,1,csm,44b.png,1,1,72,225,153,72,1,1,444,neu_feedback_onset,9,14.424914877071396,1.4806412473110575,4.3657449999999995,-0.2506049999999993
401,005,5,1,csp,46a.png,1,1,340,341,1,341,1,1,504,neg_feedback_onset,10,8.69251009065934,2.3529771546196994,4.469479999999999,-0.34407999999999994
402,005,5,1,csm,46b.png,1,1,276,283,7,276,1,1,523,neu_feedback_onset,11,6.589280987826613,5.5389818239148,4.307060000000001,0.17777500000000046
403,005,5,1,csm,14b.png,1,1,248,239,-9,247,1,1,468,neu_feedback_onset,12,5.209517706365361,4.849374171181557,4.540265,0.0012199999999991107
404,005,5,1,csp,32a.png,1,1,120,111,-9,121,1,1,270,pos_feedback_onset,13,5.150144034755021,0.2147341072510271,4.7141399999999996,0.04487000000000041
405,005,5,1,csp,12a.png,1,1,8,29,21,9,1,1,477,pos_feedback_onset,14,11.507012234877292,6.969437109998614,4.447939999999999,-0.26041000000000025
406,005,6,1,csp,22a.png,1,1,132,133,1,132,1,1,318,pos_feedback_onset,1,8.087130180300228,-0.15706738917052943,4.396155,1.0105399999999998
407,005,6,1,csm,26b.png,1,1,44,65,21,45,1,1,304,neu_feedback_onset,2,8.17122323042442,0.17477867700140354,4.551005000000001,
408,005,6,1,csp,13a.png,1,1,112,119,7,113,1,1,492,neg_feedback_onset,3,6.207614016872725,5.233660265391916,4.835029999999999,0.28985499999999975
409,005,6,1,csp,2a.png,1,1,240,236,-4,240,1,1,324,pos_feedback_onset,4,15.298972830720706,7.128667517376465,4.333755,0.2203450000000009
410,005,6,1,csp,56a.png,1,1,352,312,-40,353,1,1,329,pos_feedback_onset,5,0.5270202442697145,5.049277724526098,4.662059999999999,-0.39224499999999995
411,005,6,1,csm,16b.png,1,1,280,297,17,280,1,1,319,neu_feedback_onset,6,2.1336887206964663,0.7784619093983189,4.39708,-0.07955000000000112
412,005,6,1,csp,24a.png,1,1,320,304,-16,NaN,0,0,621,neg_feedback_onset,7,1.4151302843259832,5.621948767650107,4.46178,
413,005,6,1,csm,19b.png,1,1,140,254,114,141,1,1,451,neu_feedback_onset,8,2.539095891514825,,4.591595,0.028415000000000745
414,005,6,1,csp,65a.png,1,1,244,263,19,245,1,1,272,pos_feedback_onset,9,,1.8245012557232296,4.846045,-0.09539000000000097
415,005,6,1,csp,47a.png,1,1,348,359,11,348,1,1,385,pos_feedback_onset,10,1.0973768764097247,2.0346518331011274,4.772744999999999,-0.707114999999999
416,005,6,1,csm,32b.png,1,1,172,263,91,167,1,1,351,neu_feedback_onset,11,2.422728288902065,6.397027887719719,4.338909999999999,0.011165000000000092
417,005,6,1,csm,20b.png,1,1,176,180,4,177,1,1,316,neu_feedback_onset,12,16.590957988787807,3.4430730596699823,3.695085,0.6235400000000002
418,005,6,1,csm,65b.png,1,1,308,316,8,308,1,1,506,neu_feedback_onset,13,5.527403554430067,2.3586749661438278,4.14704,0.33809500000000003
419,005,6,1,csm,66b.png,1,1,4,26,22,3,1,1,304,neu_feedback_onset,14,5.613115524084219,3.6476808855772647,4.3905899999999995,0.0380900000000004
420,006,1,1,csm,31b.png,1,1,48,306,-102,52,1,1,353,neu_feedback_onset,1,7.823015858397978,0.5317944717939007,5.429299999999999,0.4198650000000006
421,006,1,1,csm,35b.png,1,1,36,142,106,36,1,1,580,neu_feedback_onset,2,5.059043023062547,1.282599119771994,5.35457,-0.2189349999999992
422,006,1,1,csp,26a.png,1,1,132,313,-179,129,1,1,326,pos_feedback_onset,3,11.593366632405885,0.27258725736677863,4.99113,0.7306250000000016
423,006,1,1,csp,49a.png,1,1,24,225,-159,24,1,1,398,pos_feedback_onset,4,13.670406853117743,1.2804353811358422,4.9262250000000005,0.3669549999999999
424,006,1,1,csp,59a.png,1,1,40,146,106,38,1,1,364,pos_feedback_onset,5,18.586032680902623,0.6065170609012712,4.519765000000001,0.5240300000000016
425,006,1,1,csm,47b.png,1,1,200,208,8,201,1,1,411,neu_feedback_onset,6,4.946137600991985,0.15401415942317911,5.161300000000001,1.0115849999999993
426,006,1,1,csp,52a.png,1,0,288,317,29,289,1,1,281,pos_feedback_onset,7,21.243080592787994,2.490533048469893,4.745710000000001,0.9068500000000004
427,006,1,1,csp,9a.png,1,1,168,138,-30,167,1,1,296,pos_feedback_onset,8,12.015600329966217,0.5646554379113262,4.721695000000001,0.580144999999999
428,006,1,1,csm,55b.png,1,1,56,318,-98,51,1,1,275,neu_feedback_onset,9,9.814691656590092,2.212387786567512,4.962,0.6123400000000023
429,006,1,1,csm,22b.png,1,1,8,41,33,10,1,1,330,neu_feedback_onset,10,16.855566984598646,0.010346904285836544,4.671334999999999,0.6878649999999995
430,006,1,1,csm,51b.png,1,1,292,315,23,290,1,1,413,neu_feedback_onset,11,15.163992776758608,6.500261564905441,4.881465,0.8367499999999986
431,006,1,1,csp,41a.png,1,1,308,227,-81,312,1,1,464,neg_feedback_onset,12,12.48048774182769,2.96181728666546,5.028890000000001,-0.4512900000000002
432,006,1,1,csm,6b.png,1,1,224,230,6,225,1,1,519,neu_feedback_onset,13,12.149996768372294,10.057302024631202,4.873705000000001,0.012209999999998722
433,006,1,1,csp,25a.png,1,1,164,37,-127,164,1,0,357,neg_feedback_onset,14,9.47634951456311,1.2758186757342593,4.828125,-0.014204999999998691
434,006,2,1,csp,3a.png,1,1,296,124,-172,297,1,0,399,neg_feedback_onset,1,19.86526355777704,,4.843530000000001,-0.14591000000000154
435,006,2,1,csp,15a.png,1,1,184,306,122,185,1,1,538,neg_feedback_onset,2,2.2587100003158054,2.65671231054239,5.224885,0.3638400000000006
436,006,2,1,csp,18a.png,1,0,260,NaN,NaN,259,1,1,307,pos_feedback_onset,3,8.666472042756752,0.14078317967432427,4.8469549999999995,1.272359999999999
437,006,2,1,csm,26b.png,1,1,4,222,-142,4,1,1,344,neu_feedback_onset,4,22.867289990577646,0.28771514211701416,4.5530100000000004,-0.06763000000000119
438,006,2,1,csm,42b.png,1,1,340,313,-27,334,1,1,293,neu_feedback_onset,5,16.031553550559835,2.0515189860324456,4.7747399999999995,0.273085
439,006,2,1,csm,11b.png,1,1,172,126,-46,NaN,0,0,271,neu_feedback_onset,6,11.588486544718304,5.449035430297157,4.618075,
440,006,2,1,csm,10b.png,1,0,276,NaN,NaN,270,1,1,301,neu_feedback_onset,7,11.663563229718294,3.594571658195796,4.8199250000000005,0.4628899999999998
441,006,2,1,csp,34a.png,1,1,188,234,46,188,1,1,292,pos_feedback_onset,8,20.577337451546278,0.23321221676021145,4.443675000000001,0.8559299999999999
442,006,2,1,csm,21b.png,1,1,112,230,118,113,1,1,297,neu_feedback_onset,9,6.748354176535939,1.8745493871665548,4.70737,0.5374250000000007
443,006,2,1,csm,30b.png,1,1,108,52,-56,108,1,1,303,neu_feedback_onset,10,0.39453041597429267,1.0682899994999133,5.386150000000001,0.8672650000000006
444,006,2,1,csm,45b.png,1,1,264,43,139,263,1,1,559,neu_feedback_onset,11,16.08913582705781,10.073373845592206,4.368165,0.46564999999999923
445,006,2,1,csp,54a.png,1,1,68,315,-113,68,1,1,455,pos_feedback_onset,12,13.037697930699405,5.587407838571966,4.5281,0.004475000000000229
446,006,2,1,csp,65a.png,1,1,120,237,117,119,1,1,293,pos_feedback_onset,13,19.00563478244792,0.9100242189186641,4.327585000000001,0.48574999999999946
447,006,2,1,csp,63a.png,1,1,344,319,-25,345,1,1,338,pos_feedback_onset,14,17.89653443463677,2.0230278899714973,4.7168350000000006,-0.58962
448,006,3,1,csp,44a.png,1,1,116,120,4,117,1,1,382,pos_feedback_onset,1,14.429703145246808,1.8072223308649695,4.753839999999999,0.7579899999999986
449,006,3,1,csp,12a.png,1,0,104,NaN,NaN,107,1,1,236,pos_feedback_onset,2,2.5101961201546117,0.6346140580809768,4.934475000000001,0.3557100000000002
450,006,3,1,csm,56b.png,1,0,248,NaN,NaN,246,1,1,266,neu_feedback_onset,3,0.701828535836639,0.3117427838630665,5.39448,0.7167599999999998
451,006,3,1,csm,66b.png,1,1,28,48,20,27,1,1,280,neu_feedback_onset,4,7.18056968151617,2.7716874428789824,4.886589999999999,0.2311999999999994
452,006,3,1,csm,36b.png,1,1,96,310,-146,96,1,0,284,neu_feedback_onset,5,10.0421401578527,-0.09308916724401577,4.48266,0.225765
453,006,3,1,csm,27b.png,1,1,220,NaN,NaN,219,1,1,536,neu_feedback_onset,6,3.2847142375008618,6.388356228310587,5.170465000000001,0.3263600000000011
454,006,3,1,csm,2b.png,1,1,216,56,-160,212,1,1,408,neu_feedback_onset,7,5.574892007523298,4.085375055881794,4.8383,0.24619000000000213
455,006,3,1,csp,62a.png,1,1,244,237,-7,243,1,1,285,pos_feedback_onset,8,23.20323647374584,1.7200808731337383,4.446814999999999,0.5256399999999992
456,006,3,1,csm,44b.png,1,1,128,56,-72,127,1,1,248,neu_feedback_onset,9,28.695840961366912,0.2929917942097448,4.260600000000001,0.836735
457,006,3,1,csp,60a.png,1,1,252,228,-24,253,1,0,318,neg_feedback_onset,10,0.6712909147754398,,4.989639999999999,0.8930050000000014
458,006,3,1,csm,65b.png,1,1,144,NaN,NaN,146,1,1,349,neu_feedback_onset,11,3.114420923607292,6.875374341828848,5.070445,0.38208999999999804
459,006,3,1,csp,53a.png,1,0,76,NaN,NaN,75,1,1,408,pos_feedback_onset,12,23.734249942545375,9.177797645441759,4.503555,0.014974999999999739
460,006,3,1,csp,7a.png,1,1,140,130,-10,139,1,1,320,pos_feedback_onset,13,11.685388524633339,0.23088886696335975,4.747125,0.6625700000000005
461,006,3,1,csp,14a.png,1,1,12,228,-144,9,1,1,409,pos_feedback_onset,14,16.62086090195318,0.28539954578657906,4.599130000000001,0.24243000000000148
462,006,4,1,csm,57b.png,1,1,192,309,117,190,1,1,268,neu_feedback_onset,1,,0.5624805028159351,4.54568,0.7578899999999997
463,006,4,1,csm,12b.png,1,1,88,127,39,87,1,1,306,neu_feedback_onset,2,1.677641334734361,3.3454160935196646,4.905994999999999,1.0446149999999994
464,006,4,1,csp,22a.png,1,1,356,237,-119,355,1,1,370,pos_feedback_onset,3,24.379072023640006,2.3839263896263673e-14,4.494079999999999,0.5670250000000001
465,006,4,1,csm,48b.png,1,1,64,44,-20,62,1,1,243,neu_feedback_onset,4,11.787630698342916,0.8973876872652754,4.292805,0.7151050000000012
466,006,4,1,csm,34b.png,1,1,212,38,-174,213,1,1,304,neu_feedback_onset,5,4.761816623896401,2.355928688920127,4.592365,-0.0009100000000010766
467,006,4,1,csm,41b.png,1,1,124,229,105,123,1,0,452,neu_feedback_onset,6,5.937357514898919,4.554149399893757,4.660575,-0.26509499999999875
468,006,4,1,csp,2a.png,1,1,284,306,22,285,1,1,239,pos_feedback_onset,7,20.190429464652482,5.399375697185,4.382199999999999,0.17713
469,006,4,1,csp,10a.png,1,1,300,130,-170,301,1,1,323,pos_feedback_onset,8,22.23716519613045,2.237421651961747,4.290384999999999,0.6770750000000012
470,006,4,1,csp,61a.png,1,1,84,228,144,84,1,1,222,pos_feedback_onset,9,4.246603069191224e-15,8.017054542357156,5.211435,0.5863649999999998
471,006,4,1,csp,37a.png,1,1,80,135,55,79,1,1,342,pos_feedback_onset,10,4.769085533776825,,5.630115000000001,0.019864999999999355
472,006,4,1,csp,29a.png,1,1,240,52,172,239,1,1,279,pos_feedback_onset,11,16.3250433563337,2.3003821070233242e-14,4.3361600000000005,0.6082300000000007
473,006,4,1,csm,54b.png,1,1,32,49,17,31,1,1,368,neu_feedback_onset,12,11.987591426260343,3.720034778288414,4.68547,-0.17065999999999892
474,006,4,1,csp,33a.png,1,1,176,271,95,176,1,1,270,pos_feedback_onset,13,18.394206158879292,-0.08227789510476227,4.276265,0.800044999999999
475,006,4,1,csm,60b.png,1,1,16,321,-55,14,1,1,422,neu_feedback_onset,14,21.510435721286512,1.7623169193735564,4.42806,-0.6000550000000002
476,006,5,1,csm,24b.png,1,0,328,NaN,NaN,330,1,1,404,neu_feedback_onset,1,27.507606715237717,0.5497083804581562,4.40729,0.7500149999999994
477,006,5,1,csp,48a.png,1,1,72,230,158,70,1,1,527,neg_feedback_onset,2,0.0635949983877282,,5.5822,0.5292100000000008
478,006,5,1,csp,21a.png,1,1,92,355,-97,93,1,1,284,pos_feedback_onset,3,2.5507796980532444,0.2131822407153229,4.83264,1.0291099999999993
479,006,5,1,csp,20a.png,1,1,336,129,153,339,1,1,271,pos_feedback_onset,4,10.846278136440109,4.45493373990956,4.880015000000002,0.26589499999999955
480,006,5,1,csm,25b.png,1,1,280,315,35,280,1,1,368,neu_feedback_onset,5,1.2335441912455685,4.190470564471558,4.920375000000001,0.9209149999999999
481,006,5,1,csp,58a.png,1,1,320,139,179,319,1,1,366,pos_feedback_onset,6,21.73983245529933,0.35263380869722455,4.490145,0.37790499999999927
482,006,5,1,csm,8b.png,1,1,100,140,40,101,1,1,407,neu_feedback_onset,7,1.8153844314193481,5.751860261573483,5.017670000000001,0.49649500000000124
483,006,5,1,csp,51a.png,1,1,148,238,90,147,1,1,374,pos_feedback_onset,8,19.153157188623286,0.10229719377103041,4.554209999999999,0.3480249999999998
484,006,5,1,csm,13b.png,1,1,256,220,-36,254,1,1,501,neu_feedback_onset,9,7.591217426267282,0.3106900699368925,5.011515000000001,0.838309999999999
485,006,5,1,csm,59b.png,1,1,268,147,-121,267,1,1,359,neu_feedback_onset,10,0.015226705534645325,0.12373665905378181,5.221090000000001,0.8298450000000006
486,006,5,1,csp,36a.png,1,1,0,237,-123,4,1,1,521,pos_feedback_onset,11,1.8730123089059432,4.959465746328478,5.032535,0.011569999999999858
487,006,5,1,csm,16b.png,1,1,332,50,78,331,1,1,452,neu_feedback_onset,12,5.867481744811658,4.9641471647544115,4.995840000000001,0.7910850000000007
488,006,5,1,csm,18b.png,1,1,136,44,-92,135,1,1,411,neu_feedback_onset,13,0.14587121683896842,0.7194677241800814,5.0181249999999995,0.7102249999999986
489,006,5,1,csp,27a.png,1,1,52,59,7,50,1,1,455,pos_feedback_onset,14,3.787777965377839,8.092397523419157,5.034350000000001,
490,006,6,1,csp,57a.png,1,1,44,313,-91,42,1,1,474,pos_feedback_onset,1,8.705347830077676,5.500250829570877,4.79372,
491,006,6,1,csm,49b.png,1,0,208,NaN,NaN,207,1,1,375,neu_feedback_onset,2,1.241598586735087,7.563442203004064,5.909719999999999,-0.5403000000000011
492,006,6,1,csp,56a.png,1,1,236,358,122,236,1,1,615,neg_feedback_onset,3,-0.20962398697334955,,5.075754999999999,-0.1537449999999998
493,006,6,1,csp,31a.png,1,1,20,233,-147,21,1,1,294,pos_feedback_onset,4,7.21119696993542,0.15863651261881642,4.765575,0.12789000000000073
494,006,6,1,csm,38b.png,1,1,196,137,-59,195,1,1,449,neu_feedback_onset,5,3.6588728740178156,6.9621601688144095,4.659905,0.20756500000000067
495,006,6,1,csp,46a.png,1,1,272,227,-45,272,1,1,554,neg_feedback_onset,6,22.68545578626734,4.703138440054621,4.696335000000001,-0.011735000000000717
496,006,6,1,csm,14b.png,1,1,228,153,-75,222,1,0,565,neu_feedback_onset,7,,,4.40048,-0.35136500000000037
497,006,6,1,csm,5b.png,1,1,348,224,-124,350,1,1,337,neu_feedback_onset,8,13.094015769387259,,4.645709999999999,0.6657200000000003
498,006,6,1,csp,8a.png,1,1,160,320,160,159,1,1,306,pos_feedback_onset,9,7.087895483181084,4.27538402055403,4.301699999999999,
499,006,6,1,csm,15b.png,1,1,204,135,-69,203,1,1,297,neu_feedback_onset,10,2.4349697674049056,0.32594419135812264,5.3477049999999995,0.8980200000000007
500,006,6,1,csp,38a.png,1,0,352,NaN,NaN,350,1,1,253,pos_feedback_onset,11,16.627777978113443,1.7938827390789283,4.71431,0.26371500000000125
501,006,6,1,csm,58b.png,1,1,152,134,-18,155,1,1,290,neu_feedback_onset,12,5.2265494309286895,-0.0202009054868742,4.749405000000001,0.10141499999999937
502,006,6,1,csm,40b.png,1,1,324,35,71,325,1,1,427,neu_feedback_onset,13,19.40261772280971,,4.55052,0.8518449999999991
503,006,6,1,csp,5a.png,1,1,304,131,-173,305,1,1,480,pos_feedback_onset,14,16.171516452121825,2.869661295332846,4.522365000000001,
504,007,1,1,csp,33a.png,1,1,104,128,24,104,1,1,438,pos_feedback_onset,1,5.6157811494722285,3.281820892486286,5.680955,0.2039250000000008
505,007,1,1,csp,28a.png,1,1,116,129,13,116,1,1,468,pos_feedback_onset,2,0.47399366484160604,3.6539727139916587,5.685730000000001,-0.05521499999999957
506,007,1,1,csm,19b.png,1,1,16,277,-99,19,1,1,480,neu_feedback_onset,3,6.7898730143732875,2.7613422920658754,5.397855000000001,-0.04021499999999989
507,007,1,1,csp,2a.png,1,1,296,181,-115,293,1,1,373,pos_feedback_onset,4,11.266635200692933,3.8021808749293617,5.1378249999999985,0.09879999999999978
508,007,1,1,csm,46b.png,1,1,260,84,-176,263,1,1,551,neu_feedback_onset,5,1.5096908422379636,3.1757316554334043,5.214975000000001,0.07303000000000104
509,007,1,1,csp,60a.png,1,1,48,88,40,46,1,1,396,pos_feedback_onset,6,9.980853450643021,3.6016818153713253,4.850150000000001,-0.06184000000000012
510,007,1,1,csm,13b.png,1,1,152,331,179,156,1,0,491,neu_feedback_onset,7,11.47954835353329,4.445827263021879,5.021345000000001,-0.05271999999999988
511,007,1,1,csp,20a.png,1,1,292,277,-15,291,1,1,353,pos_feedback_onset,8,6.809018705334731,4.626824068427729,5.20119,0.04678000000000182
512,007,1,1,csp,62a.png,1,1,128,101,-27,120,1,1,482,neg_feedback_onset,9,6.336955072089535,5.3087580613124725,5.286135,0.12065000000000037
513,007,1,1,csm,5b.png,1,1,96,90,-6,97,1,1,302,neu_feedback_onset,10,1.9171012959910203,,5.635069999999999,0.1468549999999995
514,007,1,1,csm,38b.png,1,1,160,303,143,160,1,1,555,neu_feedback_onset,11,8.391065948049997,6.219943432871831,5.3436,-0.058244999999999436
515,007,1,1,csp,50a.png,1,1,356,284,-72,352,1,1,379,pos_feedback_onset,12,5.527082394990332,4.746720033965405,5.50616,-0.26705999999999896
516,007,1,1,csm,9b.png,1,1,316,324,8,310,1,1,769,neu_feedback_onset,13,9.93418791439665,10.221617603803127,5.198754999999999,-0.08219499999999869
517,007,1,1,csm,64b.png,1,1,180,177,-3,178,1,1,530,neu_feedback_onset,14,6.3618613107123405,3.5835478613888143,5.203430000000001,0.06562499999999893
518,007,2,1,csp,53a.png,1,1,248,257,9,246,1,1,404,pos_feedback_onset,1,5.07022562338463,2.587143535136181,5.43605,0.11946499999999993
519,007,2,1,csm,27b.png,1,1,336,330,-6,333,1,1,604,neu_feedback_onset,2,2.38739795718059,1.7570406788527855,5.476255,-0.05273000000000039
520,007,2,1,csp,5a.png,1,1,44,49,5,45,1,1,503,neg_feedback_onset,3,0.8797593169969481,3.116536950174374,5.306565000000001,0.13704999999999945
521,007,2,1,csm,3b.png,1,1,192,214,22,195,1,1,482,neu_feedback_onset,4,8.995855052934756,2.0267232975135743,5.07606,0.06083499999999997
522,007,2,1,csm,58b.png,1,1,196,67,-129,198,1,1,533,neu_feedback_onset,5,4.853690629136082,2.7547895861161047,5.152780000000002,-0.1044900000000002
523,007,2,1,csm,37b.png,1,1,280,276,-4,280,1,1,346,neu_feedback_onset,6,0.4033476834711225,2.6082836363359534,5.376255,0.48300499999999946
524,007,2,1,csp,64a.png,1,1,56,72,16,59,1,1,530,neg_feedback_onset,7,5.72969686824626,5.752357578010589,5.13759,-0.20398499999999942
525,007,2,1,csm,51b.png,1,1,312,273,-39,308,1,1,555,neu_feedback_onset,8,6.310506268846217,5.6702534210516315,5.29284,-0.11182999999999943
526,007,2,1,csp,41a.png,1,1,352,1,9,353,1,1,482,pos_feedback_onset,9,1.9726346903524816,3.5540958432960488,5.453619999999999,-0.10044999999999948
527,007,2,1,csm,24b.png,1,1,28,272,-116,33,1,1,496,neu_feedback_onset,10,3.246569679760114e-14,1.1091351553725093,5.335489999999998,0.1649250000000002
528,007,2,1,csp,44a.png,1,1,24,49,25,22,1,1,406,pos_feedback_onset,11,11.567578506919382,2.115097771545274,4.97419,-0.1582650000000001
529,007,2,1,csp,22a.png,1,1,232,235,3,234,1,1,437,pos_feedback_onset,12,-0.011211945954689422,5.380459974520354,5.351435,0.11859499999999912
530,007,2,1,csm,57b.png,1,1,228,217,-11,228,1,1,1000,neu_feedback_onset,13,0.1867053420352795,3.6849304605642375,5.171250000000001,0.47707500000000014
531,007,2,1,csp,4a.png,1,1,184,178,-6,183,1,1,355,pos_feedback_onset,14,2.834814249437149,2.520487295977289,5.207925,0.18599500000000013
532,007,3,1,csm,44b.png,1,1,8,355,-13,8,1,0,NaN,neu_feedback_onset,1,1.9457244794795652,5.2094793725086594,5.459919999999999,0.07999499999999937
533,007,3,1,csp,21a.png,1,1,168,137,-31,169,1,0,NaN,neg_feedback_onset,2,11.082450042226274,4.709674750683232,5.00873,-0.10418500000000108
534,007,3,1,csp,34a.png,1,1,0,2,2,360,1,0,NaN,neg_feedback_onset,3,1.3136593707589286,3.720433394977033,5.234544999999998,0.25624
535,007,3,1,csp,1a.png,1,1,144,129,-15,143,1,0,NaN,neg_feedback_onset,4,0.12725573438397436,3.697275716978816,5.2374849999999995,-0.013485000000000191
536,007,3,1,csm,35b.png,1,1,80,65,-15,83,1,0,NaN,neu_feedback_onset,5,1.5340919580660803,1.7689765452322852,5.145715,0.3736750000000004
537,007,3,1,csp,6a.png,1,1,132,134,2,134,1,0,NaN,neg_feedback_onset,6,0.8947122456072155,4.237686470362439,5.069380000000001,0.0044050000000011025
538,007,3,1,csp,26a.png,1,1,148,147,-1,144,1,0,NaN,neg_feedback_onset,7,2.010525502484644,5.915426044783026,5.112345000000001,0.27177000000000007
539,007,3,1,csm,12b.png,1,1,60,277,-143,243,1,0,NaN,neu_feedback_onset,8,1.5350940519436862,3.85541981787389,5.194470000000001,-0.09512500000000124
540,007,3,1,csp,61a.png,1,1,264,257,-7,265,1,0,NaN,neg_feedback_onset,9,3.2764684501088963,5.355832159523195,4.965865,0.3136450000000002
541,007,3,1,csm,17b.png,1,1,304,298,-6,304,1,0,NaN,neu_feedback_onset,10,0.4627989009606531,3.449790775128354,5.206365,0.01580000000000137
542,007,3,1,csm,11b.png,1,1,200,81,-119,200,1,0,NaN,neu_feedback_onset,11,7.031378793373984,0.7754290786856102,5.1560299999999994,0.2833200000000007
543,007,3,1,csm,6b.png,1,1,220,233,13,215,1,0,NaN,neu_feedback_onset,12,4.052321276873992,1.8380987746008153,5.314854999999999,0.10719499999999993
544,007,3,1,csp,40a.png,1,1,108,35,-73,107,1,0,NaN,neg_feedback_onset,13,-4.155009669659648e-15,6.231570445661883,5.336355,0.03700499999999973
545,007,3,1,csm,15b.png,1,1,72,290,-142,75,1,0,NaN,neu_feedback_onset,14,0.7277623470429593,2.3229712906024953,5.317670000000001,0.3170299999999999
546,007,4,1,csm,8b.png,1,1,52,292,-120,45,1,1,488,neu_feedback_onset,1,0.1649150604241541,0.6952900654878575,5.408845000000001,0.5002600000000008
547,007,4,1,csm,33b.png,1,1,240,224,-16,237,1,1,546,neu_feedback_onset,2,0.05772038222888244,2.291369524086746,5.336069999999999,0.2942399999999994
548,007,4,1,csm,31b.png,1,1,156,220,64,154,1,1,560,neu_feedback_onset,3,0.09897696424096421,2.4992324224746847,5.013050000000001,0.15998499999999893
549,007,4,1,csp,46a.png,1,1,216,309,93,218,1,1,389,pos_feedback_onset,4,3.4477183827813485,5.280279054272512,4.9174549999999995,-0.09138500000000072
550,007,4,1,csp,8a.png,1,1,100,92,-8,102,1,1,562,neg_feedback_onset,5,1.7764705935415472,3.958971924116194,5.038974999999999,0.0699949999999987
551,007,4,1,csp,15a.png,1,1,204,205,1,203,1,1,527,neg_feedback_onset,6,2.7428936644892885,6.436459325268556,5.038109999999999,0.007634999999998726
552,007,4,1,csm,45b.png,1,1,164,211,47,169,1,1,539,neu_feedback_onset,7,1.5070342955569327,2.159249591686705,5.1060550000000005,0.43337000000000003
553,007,4,1,csm,20b.png,1,1,4,307,-57,10,1,1,753,neu_feedback_onset,8,1.4504877192446877,2.422376484940025,4.913175,-0.23151499999999903
554,007,4,1,csp,24a.png,1,1,68,86,18,68,1,1,520,neg_feedback_onset,9,4.083893360903914,7.4779635214761155,5.0471,0.1702400000000006
555,007,4,1,csp,13a.png,1,1,328,306,-22,327,1,1,570,neg_feedback_onset,10,8.69860742384077,1.3173311055189514,5.15663,0.05951499999999932
556,007,4,1,csm,23b.png,1,1,64,13,-51,56,1,0,667,neu_feedback_onset,11,1.884077635871257,2.463415322808333,5.30631,-0.02651500000000162
557,007,4,1,csp,51a.png,1,1,76,125,49,76,1,1,375,pos_feedback_onset,12,2.550482499793447,6.755408028240156,5.083940000000001,-0.7232799999999999
558,007,4,1,csp,56a.png,1,1,88,90,2,91,1,1,419,pos_feedback_onset,13,7.534899683318645,4.32057623169346,4.86609,0.43117499999999964
559,007,4,1,csm,52b.png,1,1,252,242,-10,253,1,1,276,neu_feedback_onset,14,0.683469534376326,3.55780268513053,5.275289999999999,0.18169500000000127
560,007,5,1,csp,38a.png,1,1,32,280,-112,28,1,1,446,pos_feedback_onset,1,5.3237633014685155,3.4027122395685296,5.195385,0.2335200000000004
561,007,5,1,csm,39b.png,1,1,112,314,-158,113,1,1,361,neu_feedback_onset,2,1.3709362656825967,1.8531913648049503,5.239485,0.04474999999999962
562,007,5,1,csp,66a.png,1,1,256,289,33,253,1,1,475,pos_feedback_onset,3,0.11375932965233582,2.3064627501908217,5.04574,-0.05511000000000177
563,007,5,1,csm,2b.png,1,1,224,59,-165,219,1,1,426,neu_feedback_onset,4,0.037162388047865334,1.3689950424534545,5.07629,-0.02034499999999806
564,007,5,1,csm,29b.png,1,1,236,237,1,232,1,1,209,neu_feedback_onset,5,5.292058231203355,2.7739265117544174,4.82147,0.5675949999999998
565,007,5,1,csm,7b.png,1,1,172,143,-29,167,1,1,447,neu_feedback_onset,6,1.4829163988827756,1.0256899990145392,4.9480200000000005,0.06828000000000056
566,007,5,1,csp,52a.png,1,1,284,273,-11,288,1,1,411,pos_feedback_onset,7,0.7849365651862578,8.207676331637487,5.008685000000001,-0.05156000000000116
567,007,5,1,csm,42b.png,1,1,176,179,3,177,1,1,278,neu_feedback_onset,8,1.1199415597514542,4.901841707230743,5.106069999999999,-0.24437500000000068
568,007,5,1,csp,30a.png,1,1,272,296,24,271,1,1,449,neg_feedback_onset,9,1.2755874742458282,7.750600870844927,4.836595,0.5005000000000006
569,007,5,1,csp,36a.png,1,1,36,54,18,42,1,1,510,neg_feedback_onset,10,3.593847509269127,16.92459876809,4.903379999999999,-0.6726700000000001
570,007,5,1,csm,16b.png,1,1,40,21,-19,35,1,0,695,neu_feedback_onset,11,3.262208002050272,1.7412904128221474,4.99447,0.006990000000000052
571,007,5,1,csm,1b.png,1,0,140,NaN,NaN,140,1,1,620,neu_feedback_onset,12,1.7586521257976948,1.8414862668051206,5.128075,-0.5795249999999994
572,007,5,1,csp,47a.png,1,0,208,NaN,NaN,208,1,1,417,pos_feedback_onset,13,0.28031367446239497,7.042118922833955,5.0568349999999995,-0.33438499999999927
573,007,5,1,csp,65a.png,1,1,348,244,-104,347,1,1,351,pos_feedback_onset,14,0.5980932316470737,4.4344437574578635,4.964945,0.3331749999999998
574,007,6,1,csm,61b.png,1,1,12,249,-123,9,1,1,438,neu_feedback_onset,1,0.853883353889931,-0.12437411161348648,5.687545000000001,0.15107500000000051
575,007,6,1,csp,18a.png,1,1,20,134,114,22,1,1,432,pos_feedback_onset,2,5.484873629914889,2.970486030672279,5.073590000000001,0.3006299999999982
576,007,6,1,csm,53b.png,1,1,276,280,4,274,1,1,512,neu_feedback_onset,3,0.2617378951436109,4.363617366228439,5.2321599999999995,0.08603000000000005
577,007,6,1,csp,48a.png,1,1,300,282,-18,301,1,1,357,pos_feedback_onset,4,9.814215795985763,1.87253512371005,4.73614,0.11939000000000011
578,007,6,1,csm,66b.png,1,1,268,272,4,271,1,1,516,neu_feedback_onset,5,1.3948589990218676,3.779943063797026,5.065745,0.4571050000000003
579,007,6,1,csp,29a.png,1,1,308,276,-32,311,1,1,666,neg_feedback_onset,6,4.017472791310152,7.015428579397171,4.7273499999999995,-0.10937999999999803
580,007,6,1,csp,3a.png,1,1,188,185,-3,196,1,1,391,pos_feedback_onset,7,4.042412638848092,4.294405625309976,4.734695,-0.34752500000000097
581,007,6,1,csp,37a.png,1,1,92,81,-11,93,1,1,417,pos_feedback_onset,8,0.664795419688882,0.5991500453194141,5.105329999999998,0.38949500000000015
582,007,6,1,csm,21b.png,1,1,344,335,-9,337,1,0,NaN,neu_feedback_onset,9,7.667362119013068,2.3158454099550094,4.85056,-0.34133999999999887
583,007,6,1,csm,43b.png,1,1,120,247,127,113,1,1,460,neu_feedback_onset,10,14.102487439822287,1.0479949791583107,4.431665,
584,007,6,1,csm,47b.png,1,1,340,248,-92,338,1,1,403,neu_feedback_onset,11,4.063840775464809,3.1608287287395376,5.0344,-0.21886000000000116
585,007,6,1,csp,14a.png,1,1,84,88,4,85,1,1,527,neg_feedback_onset,12,8.749839676788413,6.159292749471744,4.98992,0.07196499999999961
586,007,6,1,csm,32b.png,1,1,332,310,-22,334,1,1,513,neu_feedback_onset,13,2.55128508345478,2.7128505121852866,5.1372149999999985,-0.12849500000000003
587,007,6,1,csp,55a.png,1,1,288,292,4,290,1,1,458,pos_feedback_onset,14,3.9702252887207328,4.44299690883564,5.054625,-0.20674999999999955
588,008,1,1,csp,64a.png,1,1,104,94,-10,104,1,1,349,pos_feedback_onset,1,18.93882445765562,8.991511973939339,5.09501,0.0623099999999992
589,008,1,1,csm,57b.png,1,1,8,NaN,NaN,8,1,0,175,neu_feedback_onset,2,10.056857836987072,6.623874165748728,4.88587,0.666529999999999
590,008,1,1,csm,54b.png,1,1,280,261,-19,281,1,1,657,neu_feedback_onset,3,0.9791048102258031,21.21916519282756,5.205265,0.13992499999999986
591,008,1,1,csm,9b.png,1,0,352,NaN,NaN,352,1,1,157,neu_feedback_onset,4,5.310221541089758,3.323727079475667,5.233115000000001,-0.06267499999999959
592,008,1,1,csm,47b.png,1,1,128,127,-1,128,1,1,223,neu_feedback_onset,5,2.42024541872186,5.425882493611495,5.559289999999999,
593,008,1,1,csp,19a.png,1,1,100,89,-11,102,1,0,137,neg_feedback_onset,6,12.946554212475103,9.064666405805895,4.992255000000001,0.33688500000000055
594,008,1,1,csm,62b.png,1,1,4,123,119,3,1,1,249,neu_feedback_onset,7,7.736221561693794,2.3258795304287276,4.7890950000000005,0.27229499999999884
595,008,1,1,csm,20b.png,1,0,212,NaN,NaN,212,1,0,167,neu_feedback_onset,8,0.2783329543239234,8.867045694128725,4.99841,1.1145700000000005
596,008,1,1,csp,35a.png,1,1,316,100,144,316,1,1,295,pos_feedback_onset,9,2.2134262994707266,2.415808606514868,4.926525,0.4682100000000009
597,008,1,1,csp,47a.png,1,1,172,233,61,173,1,1,436,pos_feedback_onset,10,1.3604890625759964,14.015266359640231,5.241865000000001,-0.05015500000000106
598,008,1,1,csp,41a.png,1,1,344,286,-58,345,1,1,312,pos_feedback_onset,11,7.649749364964341,1.0386310163152568,4.808784999999999,0.8371549999999992
599,008,1,1,csp,30a.png,1,1,276,275,-1,274,1,1,216,pos_feedback_onset,12,6.791173023555198,8.358339458841153,4.94031,0.3046199999999999
600,008,1,1,csm,66b.png,1,1,252,247,-5,NaN,0,1,299,neu_feedback_onset,13,3.7151968754714346,11.942643997841436,4.77256,
601,008,1,1,csp,13a.png,1,1,236,248,12,235,1,1,187,pos_feedback_onset,14,5.4801022946622036,2.4622225133080735,4.5926149999999994,0.513634999999999
602,008,2,1,csp,48a.png,1,0,148,NaN,NaN,146,1,0,NaN,neg_feedback_onset,1,6.212641837760971,,5.324305000000001,-0.12870999999999988
603,008,2,1,csm,6b.png,1,1,20,59,39,20,1,1,116,neu_feedback_onset,2,,8.804795162227652,4.87059,-0.13892499999999952
604,008,2,1,csp,26a.png,1,0,16,NaN,NaN,17,1,0,202,neg_feedback_onset,3,10.320414888996716,6.096918000856333,4.892875000000002,0.04797000000000118
605,008,2,1,csm,39b.png,1,0,188,NaN,NaN,186,1,0,209,neu_feedback_onset,4,,11.940357759792164,4.98627,0.0659799999999997
606,008,2,1,csm,4b.png,1,1,48,97,49,47,1,1,442,neu_feedback_onset,5,6.948396415841507,2.4802078051102816,4.72402,-0.2509700000000006
607,008,2,1,csp,12a.png,1,1,216,218,2,213,1,1,539,pos_feedback_onset,6,2.196830751006774,2.3740190057202346,4.54177,-0.05755000000000088
608,008,2,1,csp,43a.png,1,1,272,279,7,272,1,0,290,neg_feedback_onset,7,5.191289370980475,3.237620952089599,4.366159999999999,0.6412500000000012
609,008,2,1,csm,33b.png,1,1,168,144,-24,165,1,1,282,neu_feedback_onset,8,4.503949023570401,7.79946751727721,4.8493,-0.09665999999999997
610,008,2,1,csp,22a.png,1,1,56,91,35,58,1,1,215,pos_feedback_onset,9,5.4352528916507925,8.50732913858727,4.426105,0.4925349999999993
611,008,2,1,csm,26b.png,1,1,52,269,-143,47,1,1,560,neu_feedback_onset,10,5.647832472555855,3.787229195145173,4.534659999999999,0.14845499999999934
612,008,2,1,csm,58b.png,1,1,72,250,178,72,1,1,183,neu_feedback_onset,11,9.578229753047987,6.729034176223459,4.418875000000001,0.3087300000000006
613,008,2,1,csm,8b.png,1,1,196,242,46,196,1,0,270,neu_feedback_onset,12,3.4575384953350925,7.456754890678934,4.597635,0.6158799999999998
614,008,2,1,csp,4a.png,1,1,68,62,-6,70,1,1,370,pos_feedback_onset,13,8.040404984953316,9.397534808612546,4.705360000000001,-0.48175999999999863
615,008,2,1,csp,44a.png,1,1,160,182,22,160,1,1,655,neg_feedback_onset,14,,6.364136263242176,5.060695,0.11697999999999809
616,008,3,1,csm,45b.png,1,1,232,264,32,230,1,1,476,neu_feedback_onset,1,0.5697250875292441,2.107525550327614,5.09544,1.249620000000001
617,008,3,1,csp,42a.png,1,1,12,139,127,11,1,1,202,pos_feedback_onset,2,7.578650347601972,,4.74537,0.07279499999999928
618,008,3,1,csm,13b.png,1,1,284,297,13,287,1,1,406,neu_feedback_onset,3,2.2227897783368307,6.741322161396343,4.953009999999999,
619,008,3,1,csm,7b.png,1,1,268,217,-51,270,1,1,239,neu_feedback_onset,4,2.442705546638135,3.6458664227053665,4.4856,0.08628999999999909
620,008,3,1,csm,52b.png,1,1,28,226,-162,26,1,1,293,neu_feedback_onset,5,4.932577087802384,3.573535427476471,4.701295000000001,-0.1798599999999997
621,008,3,1,csp,21a.png,1,1,36,34,-2,38,1,1,293,pos_feedback_onset,6,9.613738318383719,4.7724421678962345,4.473909999999999,0.5989100000000009
622,008,3,1,csm,19b.png,1,1,304,312,8,302,1,0,369,neu_feedback_onset,7,16.078432599135443,9.919714934346416,4.7957100000000015,-0.03855000000000075
623,008,3,1,csm,32b.png,1,1,336,207,-129,336,1,1,350,neu_feedback_onset,8,,0.07497673646711359,4.83701,0.21734000000000187
624,008,3,1,csp,16a.png,1,1,140,141,1,141,1,1,384,pos_feedback_onset,9,0.1761365035798841,4.730277528375978,5.122865,0.4558850000000003
625,008,3,1,csp,37a.png,1,1,324,306,-18,323,1,1,297,pos_feedback_onset,10,5.652337281374551,10.164660541010266,4.917475,-0.12729499999999927
626,008,3,1,csp,36a.png,1,1,312,309,-3,311,1,1,261,pos_feedback_onset,11,0.03744154919199664,2.076739679662928,5.066845000000001,0.1700550000000005
627,008,3,1,csp,66a.png,1,1,112,134,22,111,1,1,218,pos_feedback_onset,12,4.015584160596024,3.938732886384898,4.991315000000001,-0.3402750000000019
628,008,3,1,csm,21b.png,1,1,116,286,170,118,1,1,513,neu_feedback_onset,13,0.7308016945581637,1.2101326666202692,4.96806,-0.14756499999999928
629,008,3,1,csp,1a.png,1,1,308,101,153,307,1,1,217,pos_feedback_onset,14,11.170809394559534,6.335358857407898,4.671639999999999,0.3432699999999995
630,008,4,1,csp,31a.png,1,1,32,274,-118,30,1,1,306,pos_feedback_onset,1,,2.5225816125476683,5.185335,0.28934000000000104
631,008,4,1,csm,65b.png,1,1,0,1,1,2,1,1,277,neu_feedback_onset,2,12.22344817090571,11.784398904841444,4.73103,-0.015699999999999825
632,008,4,1,csm,11b.png,1,1,256,264,8,262,1,1,290,neu_feedback_onset,3,3.848224374875233,4.23409678737789,4.783244999999999,0.3048499999999992
633,008,4,1,csm,37b.png,1,1,136,141,5,136,1,1,417,neu_feedback_onset,4,2.816813671560715,0.5785655927866376,4.735670000000001,0.1104549999999982
634,008,4,1,csm,53b.png,1,1,200,204,4,197,1,1,385,neu_feedback_onset,5,5.30279225717561,0.2334614898270607,4.391820000000001,0.026044999999999874
635,008,4,1,csp,51a.png,1,1,76,239,163,75,1,1,288,pos_feedback_onset,6,16.31239370393316,3.6285541668240056,4.3280699999999985,0.25253500000000084
636,008,4,1,csp,28a.png,1,1,132,94,-38,132,1,1,480,neg_feedback_onset,7,5.454232639677144,8.728585053279236,4.911415000000001,
637,008,4,1,csm,31b.png,1,1,320,282,-38,320,1,1,394,neu_feedback_onset,8,5.88753203678577,3.712906491311698,4.899375,-0.6772349999999996
638,008,4,1,csp,39a.png,1,1,124,86,-38,124,1,1,229,pos_feedback_onset,9,9.23684298946096,2.9328221824451473,4.46435,
639,008,4,1,csm,16b.png,1,1,260,280,20,260,1,1,256,neu_feedback_onset,10,,0.5296456101226774,4.849015,0.3258300000000016
640,008,4,1,csp,23a.png,1,1,88,100,12,89,1,1,407,pos_feedback_onset,11,17.813514435342878,2.551175626928587,4.492075,
641,008,4,1,csp,24a.png,1,1,300,314,14,300,1,1,178,pos_feedback_onset,12,,-0.03076779263021105,4.604825,0.6653800000000007
642,008,4,1,csp,58a.png,1,1,144,232,88,143,1,1,390,pos_feedback_onset,13,0.9026056685631086,4.249777814934826,4.811625,
643,008,4,1,csm,60b.png,1,1,164,239,75,164,1,1,332,neu_feedback_onset,14,2.518415493490068,0.012304087383572252,4.75057,-0.5421500000000012
644,008,5,1,csp,45a.png,1,0,356,NaN,NaN,357,1,1,373,pos_feedback_onset,1,4.820274084648607,3.580163665132362,5.232690000000001,0.4132599999999993
645,008,5,1,csp,59a.png,1,1,120,80,-40,120,1,1,410,pos_feedback_onset,2,,0.2836255259130357,6.193524999999999,0.3257650000000014
646,008,5,1,csp,33a.png,1,0,80,NaN,NaN,80,1,1,239,pos_feedback_onset,3,4.220983148381753,-1.0524914273446484e-14,4.672845000000001,0.3276249999999994
647,008,5,1,csm,17b.png,1,1,40,43,3,42,1,1,630,neu_feedback_onset,4,5.25099690679386,3.6866525932623366,4.829940000000001,-0.12668000000000035
648,008,5,1,csm,44b.png,1,1,96,49,-47,95,1,1,326,neu_feedback_onset,5,8.22701465794528,4.901272449899448,4.632300000000001,0.17969999999999953
649,008,5,1,csm,3b.png,1,1,348,230,-118,345,1,1,398,neu_feedback_onset,6,14.621404704550269,1.145593255851235,4.504149999999999,-0.15292999999999868
650,008,5,1,csp,65a.png,1,1,176,231,55,176,1,1,339,pos_feedback_onset,7,9.411867488266527,7.560988562241124,4.521260000000001,0.18595499999999987
651,008,5,1,csp,15a.png,1,1,64,82,18,68,1,1,258,pos_feedback_onset,8,11.702978837946912,4.394584798919385,4.718115000000001,0.8750200000000001
652,008,5,1,csm,10b.png,1,1,156,258,102,154,1,1,492,neu_feedback_onset,9,,6.375931548440512,5.172439999999999,0.09189500000000006
653,008,5,1,csm,42b.png,1,1,340,330,-10,342,1,1,354,neu_feedback_onset,10,,2.1958294227750104,4.648055000000001,-0.22354499999999966
654,008,5,1,csp,38a.png,1,1,84,61,-23,85,1,1,286,pos_feedback_onset,11,26.75784864162958,9.10042006668522,4.6745350000000006,-0.3065750000000005
655,008,5,1,csp,2a.png,1,1,180,209,29,179,1,1,339,pos_feedback_onset,12,16.152028425730865,6.936280019210305,4.915265,0.3441000000000001
656,008,5,1,csm,61b.png,1,1,288,313,25,288,1,1,554,neu_feedback_onset,13,3.3669279506948677,5.343805435995048,4.97798,0.04692000000000007
657,008,5,1,csm,51b.png,1,1,244,205,-39,241,1,1,344,neu_feedback_onset,14,4.538348129066738,4.223047879004449,4.602115,0.019419999999999327
658,008,6,1,csp,60a.png,1,1,228,46,178,228,1,1,322,pos_feedback_onset,1,,1.7526829872868643,4.96032,0.42508500000000105
659,008,6,1,csp,32a.png,1,1,240,230,-10,240,1,1,329,pos_feedback_onset,2,0.4541480485162052,2.439438725240383,5.148359999999999,-0.09761500000000112
660,008,6,1,csp,10a.png,1,1,44,229,-175,40,1,1,273,pos_feedback_onset,3,6.089684841558225,4.56172067026017,4.63735,-0.03002000000000038
661,008,6,1,csm,34b.png,1,1,292,310,18,291,1,1,411,neu_feedback_onset,4,6.414152758069685,3.2202393272229664,4.697035000000001,-0.18948000000000054
662,008,6,1,csp,17a.png,1,1,192,222,30,189,1,1,468,neg_feedback_onset,5,1.55357391667826,7.042742973754562,4.665050000000001,0.6391100000000014
663,008,6,1,csp,57a.png,1,1,296,35,99,294,1,1,359,pos_feedback_onset,6,6.49656807071257,8.288699207906856,5.062749999999999,0.07753999999999994
664,008,6,1,csm,27b.png,1,1,264,264,0,262,1,1,319,neu_feedback_onset,7,1.5239197530864002,-6.472600233564662e-15,4.743360000000001,
665,008,6,1,csp,7a.png,1,1,204,244,40,203,1,1,320,pos_feedback_onset,8,,5.653451200522291,4.569294999999999,0.28201500000000035
666,008,6,1,csm,40b.png,1,1,108,108,0,110,1,1,689,neu_feedback_onset,9,0.8725805963755932,5.522863246969907,5.124455000000001,
667,008,6,1,csm,18b.png,1,1,208,60,-148,210,1,1,290,neu_feedback_onset,10,,1.831438132347688,4.442125,0.11846500000000049
668,008,6,1,csp,50a.png,1,1,224,246,22,224,1,1,214,pos_feedback_onset,11,5.001082280649034,,4.75847,0.24013000000000062
669,008,6,1,csm,50b.png,1,1,220,220,0,219,1,1,458,neu_feedback_onset,12,6.816895503615989,1.4966413461364318,5.009024999999999,
670,008,6,1,csm,46b.png,1,1,328,318,-10,333,1,1,439,neu_feedback_onset,13,7.237118830908462,15.122665226854759,4.576545,-0.36221999999999976
671,008,6,1,csm,36b.png,1,1,332,329,-3,331,1,1,488,neu_feedback_onset,14,4.880646084970037,4.664044937905032,4.78451,-0.1765750000000006
672,009,1,1,csp,7a.png,1,1,292,306,14,289,1,1,383,pos_feedback_onset,1,15.844293147077673,8.296939513092324,5.107675,-0.2511599999999987
673,009,1,1,csp,8a.png,1,1,116,304,-172,106,1,1,338,pos_feedback_onset,2,5.744426568172701,4.495921979437876,5.317415,-0.25204000000000093
674,009,1,1,csp,57a.png,1,1,344,306,-38,345,1,1,395,pos_feedback_onset,3,1.1585448735972126,3.446089590255025,5.37053,0.1990400000000001
675,009,1,1,csm,39b.png,1,1,300,283,-17,NaN,0,1,460,neu_feedback_onset,4,11.189669203286432,0.6572194755254843,5.179465,
676,009,1,1,csm,24b.png,1,0,284,NaN,NaN,283,1,1,300,neu_feedback_onset,5,6.945743446283688,4.35156920282467,5.3727149999999995,-0.44419500000000056
677,009,1,1,csp,63a.png,1,1,248,359,111,254,1,0,323,neg_feedback_onset,6,8.812844996601964,4.976403856321374,5.113275000000001,-0.08765
678,009,1,1,csp,35a.png,1,1,176,158,-18,170,1,1,330,pos_feedback_onset,7,4.860879993306604,2.727012067417986,5.378450000000001,0.1177400000000004
679,009,1,1,csm,44b.png,1,0,48,352,-56,38,1,1,549,neu_feedback_onset,8,13.265798070962926,3.732037277714435,5.16103,-0.15084000000000142
680,009,1,1,csm,12b.png,1,1,36,NaN,NaN,213,0,1,296,neu_feedback_onset,9,21.787127182903752,5.388952393158138,4.384355,0.48599499999999995
681,009,1,1,csm,61b.png,1,1,356,359,3,360,1,1,273,neu_feedback_onset,10,8.720073906395193,1.3500534513375608,5.336480000000002,-0.088565
682,009,1,1,csp,31a.png,1,1,88,192,104,91,1,1,366,pos_feedback_onset,11,14.100119992696083,1.7176184443088929,4.600280000000001,0.3364250000000011
683,009,1,1,csm,9b.png,1,1,108,198,90,110,1,1,400,neu_feedback_onset,12,17.725263395191785,5.809262512363164,4.369384999999999,-0.06700999999999979
684,009,1,1,csm,28b.png,1,1,328,155,-173,332,1,0,335,neu_feedback_onset,13,7.94412467684504,4.170125170158348,4.92024,-0.3146900000000006
685,009,1,1,csp,20a.png,1,1,324,231,-93,319,1,1,492,neg_feedback_onset,14,12.267453397490923,13.890893438160697,4.560645,-0.23022000000000098
686,009,2,1,csm,2b.png,1,1,308,86,138,306,1,0,268,neu_feedback_onset,1,15.736533536621254,4.741182092708773,4.982335,-0.3427499999999988
687,009,2,1,csp,34a.png,1,1,100,NaN,NaN,98,1,1,449,pos_feedback_onset,2,10.914362952010226,8.729054812670594,5.119629999999999,-1.080259999999999
688,009,2,1,csp,5a.png,1,1,24,NaN,NaN,15,1,1,331,pos_feedback_onset,3,22.118379747959438,7.4419140779487165,4.955155,-0.4783249999999999
689,009,2,1,csp,1a.png,1,1,260,156,-104,258,1,0,344,neg_feedback_onset,4,9.226317907789284,4.3510923798004075,4.67104,0.4428599999999996
690,009,2,1,csm,21b.png,1,1,228,357,129,226,1,1,455,neu_feedback_onset,5,10.88006506619993,4.8255923328020405,4.696755000000001,-0.008560000000000123
691,009,2,1,csp,26a.png,1,1,144,227,83,149,1,1,404,pos_feedback_onset,6,10.738457254593943,11.514059219343936,4.812329999999999,-0.879855
692,009,2,1,csp,45a.png,1,1,268,236,-32,277,1,1,344,pos_feedback_onset,7,7.354443199448363,6.149512636285985,4.6408000000000005,-0.160029999999999
693,009,2,1,csp,13a.png,1,1,84,322,-122,90,1,1,377,pos_feedback_onset,8,1.719168831168831,5.45238877792668,4.8125,0.43330999999999875
694,009,2,1,csm,42b.png,1,1,320,287,-33,321,1,1,587,neu_feedback_onset,9,6.222520204091607,0.35317334399737776,4.70573,0.22418000000000315
695,009,2,1,csm,18b.png,1,1,148,275,127,150,1,1,314,neu_feedback_onset,10,12.875420139114306,4.937636417036274,4.389915,0.011975000000001401
696,009,2,1,csm,35b.png,1,1,120,158,38,111,1,0,362,neu_feedback_onset,11,9.40943788955457,8.533762043034088,4.340694999999999,-0.035214999999999996
697,009,2,1,csm,23b.png,1,1,20,178,158,23,1,1,696,neu_feedback_onset,12,31.18460408112221,2.566247683961472,3.83816,0.33147000000000126
698,009,2,1,csp,65a.png,1,1,332,357,25,330,1,1,521,neg_feedback_onset,13,15.038289759017228,15.672919326676322,4.295534999999999,0.11263500000000004
699,009,2,1,csm,10b.png,1,1,204,320,116,201,1,1,490,neu_feedback_onset,14,0.24699177343165957,5.041759335414332,4.878705000000001,0.5121349999999998
700,009,3,1,csp,12a.png,1,1,12,357,-15,13,1,1,301,pos_feedback_onset,1,14.885505597690445,5.16158514708269,5.0677150000000015,-0.1625999999999994
701,009,3,1,csm,30b.png,1,0,52,NaN,NaN,33,1,1,384,neu_feedback_onset,2,8.165409748141975,2.821899858044035,5.0248550000000005,-0.78538
702,009,3,1,csp,56a.png,1,1,200,146,-54,191,1,1,345,pos_feedback_onset,3,11.96414444204931,7.180922144922344,4.569445,0.19097000000000008
703,009,3,1,csp,25a.png,1,1,244,152,-92,250,1,1,359,pos_feedback_onset,4,7.943116488738565,7.239874264051633,4.238135,0.6013800000000007
704,009,3,1,csm,32b.png,1,1,44,144,100,45,1,1,380,neu_feedback_onset,5,3.564990880825056,5.2095456561231765,4.69889,-0.24275500000000072
705,009,3,1,csp,52a.png,1,1,68,323,-105,72,1,1,559,neg_feedback_onset,6,13.434322620147992,8.70111611094416,4.246325000000001,0.21218000000000004
706,009,3,1,csp,22a.png,1,1,64,NaN,NaN,63,1,0,304,neg_feedback_onset,7,5.093186160477165,8.955559726167653,4.980085000000001,0.3517000000000001
707,009,3,1,csm,16b.png,1,1,264,163,-101,266,1,1,389,neu_feedback_onset,8,7.554089817530998,0.7380769839241875,4.774234999999999,0.04511999999999983
708,009,3,1,csm,54b.png,1,1,272,4,92,274,1,1,472,neu_feedback_onset,9,4.2529392481549255,3.5495782480437628,4.514760000000001,0.45176000000000016
709,009,3,1,csm,60b.png,1,1,104,260,156,101,1,1,355,neu_feedback_onset,10,0.8361940757472623,10.774259771779969,4.471449999999999,0.03654000000000002
710,009,3,1,csp,9a.png,1,1,280,224,-56,281,1,1,352,pos_feedback_onset,11,7.9168874787504055,6.888975671413547,4.358910000000001,0.5006399999999998
711,009,3,1,csm,13b.png,1,1,72,290,-142,78,1,1,595,neu_feedback_onset,12,0.31775967302286545,1.5406142379798298,4.947135,0.3380749999999999
712,009,3,1,csm,45b.png,1,1,132,297,165,136,1,1,404,neu_feedback_onset,13,6.416247986649895,0.8282805196667397,4.47637,-0.11400500000000058
713,009,3,1,csp,6a.png,1,1,340,151,171,336,1,1,313,pos_feedback_onset,14,10.812199964390459,11.461143998580356,4.465095,0.255595
714,009,4,1,csm,37b.png,1,1,152,313,161,153,1,1,438,neu_feedback_onset,1,10.709469497840065,2.094442257452701,4.812609999999999,-0.11877499999999941
715,009,4,1,csm,33b.png,1,1,96,304,-152,91,1,1,437,neu_feedback_onset,2,11.54208987628286,1.4097548670227673,4.817845,-0.08281500000000008
716,009,4,1,csm,62b.png,1,0,128,NaN,NaN,121,1,1,797,neu_feedback_onset,3,4.151802641478705,11.792434125237026,5.037330000000001,-0.21642000000000206
717,009,4,1,csp,15a.png,1,1,32,308,-84,25,1,0,321,neg_feedback_onset,4,15.339514603853425,5.916441577795382,4.777334999999999,0.058120000000000616
718,009,4,1,csp,43a.png,1,0,232,NaN,NaN,235,1,1,485,pos_feedback_onset,5,9.207828324755097,9.451799076996519,4.8184000000000005,-0.08229000000000042
719,009,4,1,csm,5b.png,1,1,164,146,-18,149,1,1,359,neu_feedback_onset,6,4.627602248575592,2.9141152457214625,4.982709999999999,0.261490000000002
720,009,4,1,csp,59a.png,1,0,184,NaN,NaN,181,1,1,477,pos_feedback_onset,7,9.11573754397949,8.788072950701387,4.8587950000000015,-0.3313650000000008
721,009,4,1,csp,10a.png,1,0,304,150,-154,310,1,1,413,pos_feedback_onset,8,5.8401341221786485,7.742813918305605,4.691245,0.09526500000000038
722,009,4,1,csm,56b.png,1,1,124,255,131,117,1,1,542,neu_feedback_onset,9,9.561504617275178,5.218336391615243,4.459340000000001,0.09861000000000075
723,009,4,1,csm,27b.png,1,1,92,162,70,95,1,1,461,neu_feedback_onset,10,11.809818267336684,13.343200207319535,4.634829999999999,-0.18216999999999928
724,009,4,1,csp,41a.png,1,1,236,12,136,244,1,1,338,pos_feedback_onset,11,12.321793577340028,8.381765383469041,4.253845,0.3519300000000003
725,009,4,1,csm,29b.png,1,1,136,227,91,135,1,1,443,neu_feedback_onset,12,3.260851484983809,0.44590820231053485,4.809480000000001,0.35299499999999906
726,009,4,1,csp,28a.png,1,1,216,335,119,211,1,1,347,pos_feedback_onset,13,0.43741146985299195,4.773374361509147,4.65237,0.1115049999999993
727,009,4,1,csp,36a.png,1,1,180,203,23,178,1,0,404,neg_feedback_onset,14,1.95599415314428,3.5752752179706015,4.662335000000001,0.5656750000000006
728,009,5,1,csm,51b.png,1,1,288,170,-118,298,1,1,577,neu_feedback_onset,1,6.439992771819578,1.1616303506137875,5.063515,-0.1841550000000014
729,009,5,1,csm,50b.png,1,1,8,231,-137,16,1,1,285,neu_feedback_onset,2,11.724335557305524,5.384489546639331,4.501704999999999,-0.11835500000000021
730,009,5,1,csp,38a.png,1,1,296,24,88,299,1,1,388,pos_feedback_onset,3,9.647141730565927,5.8287076897439976,4.469925000000001,0.10257500000000075
731,009,5,1,csm,47b.png,1,1,56,338,-78,57,1,1,394,neu_feedback_onset,4,12.993155041671107,2.3376391004044117,4.60631,-0.13303000000000065
732,009,5,1,csp,21a.png,1,1,156,298,142,162,1,1,385,pos_feedback_onset,5,18.016315973589222,7.118551706194862,4.102115,0.5162049999999998
733,009,5,1,csm,26b.png,1,1,60,162,102,57,1,1,550,neu_feedback_onset,6,6.708726277467293,1.6171164790480894,4.920244999999999,-0.40869
734,009,5,1,csm,36b.png,1,1,220,209,-11,222,1,1,564,neu_feedback_onset,7,0.5839076599125457,0.9996619552809085,4.64457,0.5594899999999998
735,009,5,1,csp,2a.png,1,1,160,164,4,167,1,1,363,pos_feedback_onset,8,2.654137162311953,5.854276329599568,4.7817799999999995,0.12587499999999974
736,009,5,1,csp,64a.png,1,1,16,310,-66,17,1,1,369,pos_feedback_onset,9,22.946319817753086,1.8234549226547192,3.9558049999999993,0.07267000000000046
737,009,5,1,csm,64b.png,1,1,188,203,15,190,1,1,392,neu_feedback_onset,10,6.892769318870846,4.122965428514092,4.74976,-0.029805000000000526
