sub,run,cat_cond,trial_type,picture,old,response_old,target_pos,response_pos,dot_resp_loc,cat_corr,TN_corr,TN_rt,feedback_type,trial,SP_timeseries,FB_timeseries,SP_peak_response,FB_peak_response,preStim_bl,anticipation
035,1,2,csm,31a.png,1,1,284,311,NaN,0,1,547,neu_feedback_onset,1,"[ 1.06081970e+00  1.06649759e+00  1.04378602e+00  9.94577612e-01
  9.22657633e-01  8.31811343e-01  7.25824004e-01  6.06588249e-01
  4.74104076e-01  3.28371486e-01  1.71283109e-01 -9.46315521e-04
 -1.86424158e-01 -3.88935679e-01 -6.10373511e-01 -8.50737653e-01
 -1.11192074e+00 -1.39013750e+00 -1.68728057e+00 -1.99956469e+00
 -2.32320460e+00 -2.65252240e+00 -2.98562547e+00 -3.31683590e+00
 -3.63858318e+00 -3.94708204e+00 -4.23665459e+00 -4.50162293e+00
 -4.73820181e+00 -4.94260596e+00 -5.10915750e+00 -5.23596378e+00
 -5.32113217e+00 -5.36466269e+00 -5.36844795e+00 -5.33438059e+00
 -5.26624587e+00 -5.17161432e+00 -5.05616383e+00 -4.93125018e+00
 -4.80255127e+00 -4.68142288e+00 -4.57165028e+00 -4.48269662e+00
 -4.41645453e+00 -4.37292402e+00 -4.35399771e+00 -4.35399771e+00
 -4.36913876e+00 -4.39563559e+00 -4.42781032e+00 -4.45619979e+00
 -4.48080399e+00 -4.49215978e+00 -4.49026714e+00 -4.47134083e+00
 -4.43538084e+00 -4.38427981e+00 -4.31993035e+00 -4.24233248e+00
 -4.15716408e+00 -4.06821042e+00 -3.97736413e+00 -3.89030310e+00
 -3.80702734e+00 -3.73321473e+00 -3.66886527e+00 -3.61397897e+00
 -3.56855583e+00 -3.53448847e+00 -3.50799163e+00 -3.48717269e+00
 -3.47392428e+00 -3.46256849e+00 -3.45121270e+00 -3.43796429e+00
 -3.42282324e+00 -3.40389693e+00 -3.38118535e+00 -3.35090326e+00
 -3.31683590e+00 -3.27519802e+00 -3.22788224e+00 -3.17299594e+00
 -3.11053912e+00 -3.04240440e+00 -2.96480653e+00 -2.87963813e+00
 -2.79068447e+00 -2.69605292e+00 -2.60331400e+00 -2.51246771e+00
 -2.42919194e+00 -2.36105722e+00 -2.30617092e+00 -2.27210356e+00
 -2.25696252e+00 -2.26074778e+00 -2.28156672e+00 -2.31752671e+00
 -2.36484249e+00 -2.41783615e+00 -2.47650772e+00 -2.53896454e+00
 -2.60331400e+00 -2.66955608e+00 -2.74147606e+00 -2.81718130e+00
 -2.90234970e+00 -2.99508862e+00 -3.09539807e+00 -3.20327804e+00
 -3.31494327e+00 -3.43039376e+00 -3.54016636e+00 -3.64426107e+00
 -3.73321473e+00 -3.80891997e+00 -3.86191364e+00 -3.89598100e+00
 -3.90733678e+00 -3.89598100e+00 -3.86380627e+00 -3.81459786e+00
 -3.74835578e+00 -3.66697264e+00 -3.57423372e+00 -3.47203164e+00
 -3.35847378e+00 -3.23545276e+00 -3.10296859e+00 -2.96291389e+00
 -2.81718130e+00 -2.66387819e+00 -2.50868244e+00 -2.35159407e+00
 -2.19450569e+00 -2.04120258e+00 -1.89168473e+00 -1.74973740e+00
 -1.61536059e+00 -1.49233958e+00 -1.37878171e+00 -1.27657964e+00
 -1.18762598e+00 -1.11570600e+00 -1.06081970e+00 -1.02675234e+00
 -1.01728918e+00 -1.03432286e+00 -1.08542390e+00 -1.16869967e+00
 -1.29361332e+00 -1.45637959e+00 -1.66267637e+00 -1.91061104e+00
 -2.19829095e+00 -2.52382349e+00 -2.88531602e+00 -3.27519802e+00
 -3.68779158e+00 -4.11741883e+00 -4.55461660e+00 -4.99370700e+00
 -5.42333425e+00 -5.83403518e+00 -6.22013192e+00 -6.56837603e+00
 -6.87498226e+00 -7.13616534e+00 -7.34624739e+00 -7.50522839e+00
 -7.61878626e+00 -7.69259887e+00 -7.73423675e+00 -7.75694832e+00
 -7.77398200e+00 -7.79669357e+00 -7.84211672e+00 -7.91971459e+00
 -8.03895035e+00 -8.20550188e+00 -8.42315445e+00 -8.68812279e+00
 -8.99472902e+00 -9.33350998e+00 -9.69310988e+00 -1.00583877e+01
 -1.04160949e+01 -1.07510906e+01 -1.10539116e+01 -1.13150947e+01
 -1.15289620e+01 -1.16936209e+01 -1.18109640e+01 -1.18866693e+01
 -1.19264145e+01 -1.19415556e+01 -1.19396629e+01 -1.19339850e+01
 -1.19301998e+01 -1.19396629e+01 -1.19680524e+01 -1.20191534e+01
 -1.20948587e+01 -1.22008460e+01 -1.23371154e+01 -1.24998817e+01
 -1.26929301e+01 -1.29086900e+01 -1.31490542e+01 -1.34083446e+01
 -1.36827761e+01 -1.39685634e+01 -1.42562433e+01 -1.45420306e+01
 -1.48183547e+01 -1.50776452e+01 -1.53142241e+01 -1.55186282e+01
 -1.56851798e+01 -1.58025229e+01 -1.58687650e+01 -1.58763355e+01
 -1.58214492e+01 -1.57022134e+01 -1.55167356e+01 -1.52688009e+01
 -1.49621947e+01 -1.46044874e+01 -1.42070349e+01 -1.37774077e+01
 -1.33288541e+01 -1.28727300e+01 -1.24203912e+01 -1.19813008e+01
 -1.15611367e+01 -1.11655768e+01 -1.07946211e+01 -1.04482697e+01
 -1.01246298e+01 -9.81991616e+00 -9.53034361e+00 -9.25023421e+00
 -8.97201745e+00 -8.69380069e+00 -8.40990603e+00 -8.11654822e+00
 -7.81183462e+00 -7.49576524e+00 -7.16644744e+00 -6.82577385e+00
 -6.47752974e+00 -6.12360773e+00 -5.76779310e+00 -5.41387109e+00
 -5.06941224e+00 -4.73630918e+00 -4.42023980e+00 -4.12309672e+00]","[-2.02049278 -1.82253397 -1.61245524 -1.39025659 -1.15593801 -0.91151949
 -0.66306099 -0.41460249 -0.16816398  0.07221456  0.29845319  0.50853192
  0.69841077  0.87010974  1.01756884  1.14684806  1.25794739  1.35086683
  1.43368633  1.5043859   1.56902551  1.62760515  1.68416481  1.73870448
  1.79122416  1.83970387  1.88616359  1.92454336  1.95484317  1.97302306
  1.97908303  1.9669631   1.93666328  1.88616359  1.81344403  1.71446463
  1.59326536  1.44580625  1.27612728  1.08220845  0.86606976  0.63175118
  0.37925271  0.11261432 -0.16412401 -0.4469223  -0.73376056 -1.01857884
 -1.30137713 -1.57407548 -1.8346539  -2.08109241 -2.30531105 -2.50932982
 -2.68708874 -2.83858783 -2.96180708 -3.05472652 -3.11734614 -3.15370592
 -3.16178587 -3.14562597 -3.10522621 -3.04462658 -2.96584706 -2.87090763
 -2.76182829 -2.64264901 -2.51134981 -2.37399064 -2.22653153 -2.07503245
 -1.91545341 -1.74981441 -1.57811545 -1.40237652 -1.21855763 -1.03069876
 -0.83879993 -0.64084112 -0.43682236 -0.22674363 -0.01060494  0.21159372
  0.43985234  0.67619091  0.91858944  1.16704794  1.41954641  1.67608486
  1.93262331  2.18714177  2.43762025  2.6779988   2.90625742  3.12239611
  3.32035491  3.50215381  3.66779281  3.81929189  3.95261109  4.07583034
  4.18692967  4.28792906  4.37882851  4.46164801  4.53638755  4.59900718
  4.64748688  4.68384666  4.70000656  4.69596659  4.66768676  4.61314709
  4.5283076   4.40710834  4.24954929  4.05159049  3.81121194  3.52437368
  3.19107569  2.81131799  2.38712056  1.92252337  1.42358639  0.90040955
  0.35905283 -0.18432388 -0.71962065 -1.23673752 -1.7195146  -2.16391191
 -2.55780953 -2.89918746 -3.18602572 -3.41832432 -3.60214321 -3.73748239
 -3.82838184 -3.88292151]",-0.11062879061328458,3.1871872175173186,5.283650000000001,
035,1,2,csp,58b.png,1,1,196,223,196,1,1,393,pos_feedback_onset,2,"[ -3.7651253   -3.23521801  -2.7176821   -2.21870325  -1.74446716
  -1.30115951  -0.8887803   -0.50939142  -0.16093099   0.1607248
   0.45763783   0.7339319    0.9978546    1.25146781   1.50095724
   1.75044666   2.00612177   2.27210636   2.55458612   2.85562295
   3.17934063   3.52780106   3.90100425   4.2927645    4.70308181
   5.12370861   5.54227351   5.94640514   6.32785591   6.67219255
   6.96704368   7.20209983   7.36911342   7.46602253   7.49282718
   7.44952736   7.34230877   7.17941898   6.97322937   6.73404943
   6.47425053   6.20414214   5.93609566   5.67629675   5.43299302
   5.21237014   5.01649001   4.84741454   4.70720561   4.59586322
   4.51544927   4.46390187   4.44122101   4.4474067    4.48039704
   4.53606823   4.61442028   4.7113294    4.82473368   4.95050934
   5.08865638   5.23711289   5.39587889   5.56495437   5.74433932
   5.93403376   6.13816147   6.35466056   6.58146912   6.82064906
   7.06807659   7.32168981   7.57324113   7.82066865   8.05984859
   8.28459527   8.49078487   8.67635552   8.8413072    8.98563992
   9.10935369   9.21863418   9.3114195    9.39389534   9.46606171
   9.52998048   9.58358978   9.6268896    9.65575614   9.66606562
   9.65575614   9.62070391   9.55678513   9.46399981   9.34234794
   9.19389143   9.02275405   8.83512151   8.63717949   8.43923747
   8.24748114   8.06603428   7.90520639   7.76705935   7.65571697
   7.57324113   7.52169372   7.49901287   7.50519856   7.536127
   7.58973629   7.65777886   7.73819281   7.82273055   7.90314449
   7.97324896   8.02067257   8.04335343   8.02892015   7.97324896
   7.87015416   7.72169764   7.52169372   7.2742662    6.98147696
   6.65157359   6.29074178   5.90929101   5.51546886   5.11958482
   4.73194836   4.35874517   4.01234663   3.69481464   3.40614919
   3.14841219   2.91747983   2.70510453   2.50097682   2.29891101
   2.08653572   1.85560336   1.59786635   1.3112628    0.99373081
   0.64527037   0.26794339  -0.13206444  -0.55269124  -0.9898132
  -1.43930654  -1.90117126  -2.37334546  -2.85789103  -3.35068419
  -3.85378683  -4.36513705  -4.87854917  -5.39402318  -5.90124961
  -6.39198087  -6.86209318  -7.30127704  -7.70334677  -8.06211668
  -8.37552488  -8.64357137  -8.86831804  -9.05388868  -9.20646899
  -9.33430655  -9.44771083  -9.55699132  -9.6724575   -9.80235695
  -9.95906105 -10.1466936  -10.37144027 -10.63536296 -10.93846168
 -11.27661263 -11.64569203 -12.03745228 -12.44158391 -12.85190122
 -13.25397095 -13.63954552 -13.99831543 -14.32409501 -14.61069856
 -14.85400229 -15.05194432 -15.20246273 -15.30761943 -15.36947631
 -15.39009527 -15.375662   -15.32823839 -15.25401013 -15.15710102
 -15.03751104 -14.9014259  -14.7488456  -14.57770822 -14.39213758
 -14.18594797 -13.95913941 -13.70552619 -13.42304643 -13.10757633
 -12.7591159  -12.37560323 -11.95497644 -11.5013593  -11.01681373
 -10.50546351  -9.97555622  -9.43327756  -8.88481321  -8.33841075
  -7.80025588  -7.28065807  -6.78374112  -6.31362882  -5.87650686
  -5.47649902  -5.11154342  -4.78576384  -4.4950365   -4.23729949
  -4.00842903  -3.80430132  -3.61666878  -3.44346951  -3.27851783
  -3.11562804  -2.95273825  -2.78778656  -2.61871109  -2.44757372
  -2.27025065  -2.0888038   -1.90529505  -1.71972441  -1.53209187
  -1.34239743  -1.1506411   -0.95476097  -0.75475705  -0.55062934
  -0.34031594  -0.12794065   0.08649654   0.30093373   0.51537092
   0.72568432   0.92981203   1.12363026   1.30507711   1.47415259]","[-9.21410897e-02 -6.72940543e-02 -3.41646737e-02  3.10587943e-03
  4.03764326e-02  7.14352269e-02  9.42116760e-02  1.08705780e-01
  1.08705780e-01  1.00423435e-01  8.17881583e-02  5.69411229e-02
  2.79529149e-02 -1.03529314e-03 -3.00235012e-02 -5.48705366e-02
 -7.55763995e-02 -9.42116760e-02 -1.12846953e-01 -1.31482229e-01
 -1.54258678e-01 -1.87388059e-01 -2.32940957e-01 -2.99199718e-01
 -3.90305515e-01 -5.12470106e-01 -6.65693491e-01 -8.58258016e-01
 -1.09016368e+00 -1.36555166e+00 -1.68235136e+00 -2.03849220e+00
 -2.43397418e+00 -2.86258554e+00 -3.31604394e+00 -3.79020820e+00
 -4.27679597e+00 -4.76752492e+00 -5.25204212e+00 -5.72206520e+00
 -6.17138243e+00 -6.59171144e+00 -6.98098166e+00 -7.33298133e+00
 -7.64356928e+00 -7.91688667e+00 -8.14672174e+00 -8.33721568e+00
 -8.49043907e+00 -8.60639190e+00 -8.68921535e+00 -8.74098001e+00
 -8.76168587e+00 -8.75547411e+00 -8.72234473e+00 -8.66850949e+00
 -8.59189780e+00 -8.49872141e+00 -8.39312151e+00 -8.27716868e+00
 -8.15707468e+00 -8.03698067e+00 -7.92102784e+00 -7.81335735e+00
 -7.71603980e+00 -7.62907517e+00 -7.55246348e+00 -7.48827531e+00
 -7.43029889e+00 -7.38060482e+00 -7.33505192e+00 -7.29156961e+00
 -7.24601671e+00 -7.20046381e+00 -7.14662857e+00 -7.08451098e+00
 -7.01204046e+00 -6.92507584e+00 -6.82154652e+00 -6.69731134e+00
 -6.55237030e+00 -6.38672340e+00 -6.20244122e+00 -6.00573552e+00
 -5.80488865e+00 -5.60611237e+00 -5.42390078e+00 -5.26653622e+00
 -5.14437163e+00 -5.06983052e+00 -5.04705407e+00 -5.07604228e+00
 -5.16093632e+00 -5.29345384e+00 -5.46945368e+00 -5.68065348e+00
 -5.91462973e+00 -6.16310008e+00 -6.41364102e+00 -6.66211138e+00
 -6.89608763e+00 -7.11142860e+00 -7.30606371e+00 -7.47378120e+00
 -7.61043990e+00 -7.71811038e+00 -7.79058090e+00 -7.82578087e+00
 -7.82371028e+00 -7.77608680e+00 -7.68083983e+00 -7.53796938e+00
 -7.34126368e+00 -7.08865215e+00 -6.78427597e+00 -6.42399395e+00
 -6.01608846e+00 -5.56470064e+00 -5.07604228e+00 -4.56046630e+00
 -4.03039621e+00 -3.49618494e+00 -2.96818544e+00 -2.45882122e+00
 -1.97223344e+00 -1.51463387e+00 -1.09016368e+00 -6.96752285e-01
 -3.32329099e-01  1.13882246e-02  3.38540858e-01  6.57411146e-01
  9.72140262e-01  1.28686938e+00  1.60573967e+00  1.93082171e+00
  2.25797435e+00  2.58719756e+00  2.91642078e+00  3.24357342e+00]",8.600323099112256,-0.2529566246682783,4.849905,0.14981500000000114
035,1,2,csm,4a.png,1,0,60,NaN,63,1,1,373,neu_feedback_onset,3,"[ 1.97072508  1.73954909  1.50837309  1.27920733  1.05406201  0.83494738
  0.62186342  0.41883059  0.22182844  0.03487742 -0.14604292 -0.32294281
 -0.49381202 -0.66870169 -0.84560158 -1.02853214 -1.22352407 -1.42856712
 -1.64768176 -1.87885775 -2.12008487 -2.36533245 -2.60856979 -2.84376624
 -3.06690133 -3.26993416 -3.4508545  -3.6056419  -3.73429637 -3.84083834
 -3.92928829 -4.00165643 -4.06397343 -4.12428021 -4.18056654 -4.23685287
 -4.29112897 -4.34540508 -4.39566073 -4.43787547 -4.46802886 -4.4861209
 -4.49014135 -4.48009022 -4.45596751 -4.42179366 -4.37756869 -4.32932327
 -4.28107784 -4.23283242 -4.18659722 -4.14036202 -4.09613705 -4.04990185
 -3.99763597 -3.93933942 -3.86898151 -3.78656224 -3.69208162 -3.58553964
 -3.46492608 -3.33426139 -3.19354557 -3.04478884 -2.89000144 -2.73119358
 -2.5703755  -2.40955742 -2.25275979 -2.10400306 -1.97132815 -1.85875549
 -1.774326   -1.7280908  -1.72608057 -1.774326   -1.87885775 -2.03967583
 -2.25879047 -2.53017098 -2.85180714 -3.21565805 -3.6136828  -4.03985072
 -4.48411067 -4.9424422  -5.40479419 -5.86513595 -6.31542657 -6.7496354
 -7.15771128 -7.52759286 -7.85324948 -8.12261977 -8.32766282 -8.45832751
 -8.51662407 -8.49853203 -8.41008209 -8.25730491 -8.05226186 -7.81103473
 -7.54367467 -7.26827371 -6.99488297 -6.73556381 -6.49835714 -6.28728341
 -6.10636307 -5.95559612 -5.82895188 -5.72442013 -5.63597018 -5.55556114
 -5.4751521  -5.39273283 -5.29825221 -5.19171023 -5.07109667 -4.9344013
 -4.78162412 -4.61879581 -4.44591638 -4.26901649 -4.09010637 -3.91119626
 -3.73429637 -3.55739648 -3.38250681 -3.20560692 -3.02267635 -2.83371511
 -2.63269251 -2.42161877 -2.19647346 -1.95725656 -1.70597831 -1.44464893
 -1.17728887 -0.90590836 -0.6385483  -0.37721891 -0.12795089  0.10322511
  0.31228861  0.49521918  0.65000658  0.77062014  0.85504964  0.89927461
  0.90329506  0.85907009  0.76860992  0.62990432  0.43893285  0.19770573
 -0.09377704 -0.42948479 -0.80539705 -1.21347294 -1.63964085 -2.07183945
 -2.49800736 -2.90005257 -3.2659137  -3.58352941 -3.84083834 -4.03180982
 -4.1544336  -4.21474038 -4.21675061 -4.17051541 -4.09010637 -3.98557462
 -3.87300196 -3.75841908 -3.6518771  -3.55337602 -3.4669363  -3.38853749
 -3.31616935 -3.24380122 -3.16741263 -3.08499336 -2.99654342 -2.90005257
 -2.79954127 -2.69701974 -2.59449821 -2.49800736 -2.40553697 -2.31708702
 -2.23265753 -2.14822804 -2.05776787 -1.95524634 -1.84066345 -1.70597831
 -1.55119091 -1.37429102 -1.17929909 -0.96621514 -0.74106982 -0.5078836
 -0.27469739 -0.04151117  0.18363415  0.39671811  0.60176116  0.79474286
  0.97767342  1.15256309  1.32544253  1.49631174  1.66919118  1.84207061
  2.01696028  2.18782949  2.35266802  2.50343497  2.63409966  2.73260074
  2.79089729  2.80094842  2.75471323  2.64616102  2.46926113  2.22803401
  1.92046943  1.55460829  1.13648128  0.6821702   0.20172618 -0.28876897
 -0.76921299 -1.22553429 -1.63763063 -1.99344063 -2.28090295 -2.49398691
 -2.63068228 -2.69299929 -2.69098906 -2.63872318 -2.55429369 -2.45378239
 -2.35930177 -2.28492341 -2.24270866 -2.24069843 -2.27889273 -2.34925064
 -2.44172103 -2.53821188 -2.61460047 -2.65480499 -2.63470273 -2.54223234
 -2.36533245 -2.10199284]","[-2.16073857e+00 -1.91832827e+00 -1.67180933e+00 -1.42323605e+00
 -1.17671711e+00 -9.32252485e-01 -6.89842187e-01 -4.49486213e-01
 -2.13238889e-01  1.88997859e-02  2.46929812e-01  4.68796864e-01
  6.82446618e-01  8.83770425e-01  1.07071396e+00  1.23505992e+00
  1.37475399e+00  1.48568752e+00  1.56375185e+00  1.60483835e+00
  1.60894699e+00  1.57402348e+00  1.50212212e+00  1.39324292e+00
  1.25149452e+00  1.08303991e+00  8.85824750e-01  6.70120671e-01
  4.37981996e-01  1.91463049e-01 -6.32731964e-02 -3.26226740e-01
 -5.95343257e-01 -8.70622748e-01 -1.15001089e+00 -1.43967065e+00
 -1.73960204e+00 -2.05391369e+00 -2.38465995e+00 -2.73594945e+00
 -3.10778219e+00 -3.50015818e+00 -3.91307742e+00 -4.34653990e+00
 -4.79438265e+00 -5.25660568e+00 -5.72910033e+00 -6.20775795e+00
 -6.69052422e+00 -7.17123617e+00 -7.64989379e+00 -8.12033412e+00
 -8.57639417e+00 -9.01601962e+00 -9.42893886e+00 -9.81309755e+00
 -1.01582241e+01 -1.04622641e+01 -1.07190547e+01 -1.09306501e+01
 -1.11011590e+01 -1.12346901e+01 -1.13435693e+01 -1.14401226e+01
 -1.15407845e+01 -1.16599353e+01 -1.18099010e+01 -1.20071162e+01
 -1.22577438e+01 -1.25658925e+01 -1.29315622e+01 -1.33526988e+01
 -1.38190304e+01 -1.43243943e+01 -1.48564643e+01 -1.54029147e+01
 -1.59575823e+01 -1.65060870e+01 -1.70443200e+01 -1.75620098e+01
 -1.80571020e+01 -1.85254880e+01 -1.89630591e+01 -1.93636524e+01
 -1.97272679e+01 -2.00477425e+01 -2.03209677e+01 -2.05407804e+01
 -2.07030720e+01 -2.08016796e+01 -2.08366031e+01 -2.07996253e+01
 -2.06928004e+01 -2.05140742e+01 -2.02634466e+01 -1.99470806e+01
 -1.95629219e+01 -1.91191878e+01 -1.86179326e+01 -1.80673736e+01
 -1.74736738e+01 -1.68409419e+01 -1.61794494e+01 -1.54953593e+01
 -1.47968889e+01 -1.40943099e+01 -1.33937853e+01 -1.27035322e+01
 -1.20358767e+01 -1.13949275e+01 -1.07909560e+01 -1.02321798e+01
 -9.72270727e+00 -9.26664722e+00 -8.87016258e+00 -8.53119903e+00
 -8.25386521e+00 -8.03199816e+00 -7.86354355e+00 -7.74233840e+00
 -7.66221974e+00 -7.61086162e+00 -7.58210108e+00 -7.56566648e+00
 -7.55334054e+00 -7.53485162e+00 -7.50609107e+00 -7.45884161e+00
 -7.39104890e+00 -7.30065862e+00 -7.18356212e+00 -7.04386805e+00
 -6.88157641e+00 -6.69668720e+00 -6.49536339e+00 -6.27965931e+00
 -6.04957496e+00 -5.80921899e+00 -5.56064572e+00 -5.30180082e+00]",0.6631233082691642,-0.06902530516990742,4.974565,-0.96516
035,1,2,csp,37b.png,1,1,232,122,230,1,1,301,pos_feedback_onset,4,"[ 2.82805784  2.68763253  2.51264098  2.29876242  2.05031763  1.769467
  1.4605313   1.12351055  0.76056511  0.38033657 -0.01501471 -0.42332832
 -0.83380232 -1.24427632 -1.64826915 -2.04146003 -2.41520741 -2.7673509
 -3.09356971 -3.38954307 -3.65311058 -3.87995148 -4.07222614 -4.22777418
 -4.34227483 -4.42220924 -4.46541703 -4.47405858 -4.4502943  -4.39628456
 -4.31851054 -4.21697224 -4.1003112  -3.97284823 -3.83674369 -3.69847876
 -3.56021384 -3.4241093  -3.29664632 -3.17350412 -3.05900348 -2.950984
 -2.85160609 -2.75870934 -2.67013337 -2.58371779 -2.50162299 -2.41952819
 -2.33743339 -2.2531782  -2.16460223 -2.07170549 -1.97232757 -1.8643081
 -1.74764707 -1.62450487 -1.49056072 -1.35445618 -1.21403087 -1.07576594
 -0.94614257 -0.82948154 -0.73226401 -0.66097116 -0.62424454 -0.62208415
 -0.66097116 -0.73874518 -0.85540621 -1.00663348 -1.1859458  -1.38902241
 -1.60290097 -1.8232607  -2.04146003 -2.25101781 -2.45193403 -2.63772753
 -2.8083983  -2.96610673 -3.11085282 -3.24263658 -3.36361839 -3.46947748
 -3.56237422 -3.64014825 -3.69847876 -3.73520538 -3.75032811 -3.74384694
 -3.71576188 -3.66607292 -3.59694046 -3.51052488 -3.40682618 -3.28368398
 -3.14109828 -2.97906907 -2.78895479 -2.57075546 -2.31798989 -2.0284977
 -1.70227889 -1.33717307 -0.93750101 -0.5097439  -0.06254328  0.3932989
  0.8448203   1.28553976  1.69817415  2.07840269  2.41542345  2.70923642
  2.95552082  3.15427665  3.31414547  3.4329669   3.52154286  3.58635455
  3.62956234  3.6576474   3.6792513   3.69437402  3.70733636  3.72245908
  3.7397422   3.7613461   3.78943116  3.82615778  3.87152596  3.92769609
  3.99682855  4.08540452  4.1912636   4.31872658  4.46995384  4.64926617
  4.85450317  5.08998562  5.35571353  5.6495265   5.97574531  6.32788879
  6.70379656  7.09698744  7.50314067  7.90929389  8.30680555  8.68055293
  9.0154133   9.30058471  9.52310483  9.67433209  9.74562494  9.73914377
  9.65488858  9.49718015  9.27682043  9.00245096  8.6870341   8.33921139
  7.96978479  7.58955625  7.20500692  6.8182972   6.43374788  6.05567972
  5.67977195  5.31034535  4.94523953  4.58661487  4.232311    3.8844883
  3.54314676  3.20828639  2.88206758  2.56449033  2.25987541  1.96390205
  1.68305142  1.41732352  1.16455795  0.9269151   0.70655538  0.49915799
  0.30688332  0.12541061 -0.04309977 -0.2008082  -0.3455543  -0.48165883
 -0.60480103 -0.71282051 -0.80571725 -0.88349128 -0.94398218 -0.98718997
 -1.01527503 -1.02823737 -1.03039776 -1.02607698 -1.01959581 -1.01527503
 -1.01743542 -1.02607698 -1.04768088 -1.07792633 -1.11681334 -1.16218152
 -1.2075497  -1.2485971  -1.28100294 -1.30044644 -1.30044644 -1.28100294
 -1.23995554 -1.17730424 -1.09520944 -0.99799192 -0.88781205 -0.77331141
 -0.65665038 -0.54647052 -0.44493221 -0.35851663 -0.28938417 -0.24401599
 -0.22457249 -0.23321404 -0.26994066 -0.33907313 -0.44061143 -0.57671597
 -0.74522635 -0.94614257 -1.17730424 -1.43655098 -1.71740161 -2.01553536
 -2.32447106 -2.63988792 -2.94882361 -3.24911775 -3.53212877 -3.79137551
 -4.02469757 -4.22561379 -4.39412417 -4.53022871 -4.63176701 -4.70305987
 -4.74626766 -4.75922999 -4.74410727 -4.70522026 -4.64040857 -4.54967221
 -4.43517157 -4.29474626]","[ -1.26411243  -1.16448613  -1.05863319  -0.94447806  -0.82409628
  -0.69333676  -0.55635061  -0.4131378   -0.26369836  -0.10803227
   0.04970937   0.21160211   0.37349484   0.53123648   0.68690257
   0.83634201   0.97332817   1.10201214   1.21409172   1.31164247
   1.39051329   1.45070418   1.48806404   1.50466843   1.49429069
   1.45485528   1.38428665   1.27843371   1.13522091   0.95257269
   0.73048907   0.46897004   0.17009115  -0.16614761  -0.53144403
  -0.92372258  -1.3367566   -1.76639501  -2.20641116  -2.6505784
  -3.09474565  -3.53683734  -3.96647575  -4.38158532  -4.77386387
  -5.14123584  -5.47539905  -5.77635349  -6.04202362  -6.27656053
  -6.48411531  -6.67506572  -6.86186503  -7.05904207  -7.27905015
  -7.54056918  -7.85397691  -8.22757552  -8.66966722  -9.18025199
  -9.7572543  -10.39652304 -11.08975603 -11.82657552 -12.59867933
 -13.39568971 -14.20722893 -15.02499479 -15.84276064 -16.65014876
 -17.4409325  -18.21096076 -18.95193135 -19.65346653 -20.3114152
 -20.91747518 -21.46126872 -21.94072028 -22.34337656 -22.66923758
 -22.91415223 -23.07604496 -23.15491578 -23.15076468 -23.06981832
 -22.91415223 -22.68791751 -22.39941636 -22.05072431 -21.64806803
 -21.19559859 -20.7016182  -20.1682024  -19.59950228 -19.0017445
 -18.38115569 -17.73981139 -17.08601382 -16.42391405 -15.76596537
 -15.1121678  -14.4749746  -13.85853688 -13.26700574 -12.70453227
 -12.17319202 -11.67090943 -11.19768452 -10.74729063 -10.31765222
  -9.90669375  -9.50611301  -9.11383446  -8.72778256  -8.3438062
  -7.96398094  -7.58623123  -7.21055707  -6.8348829   -6.46335983
  -6.09806341  -5.73691808  -5.3819994   -5.04160955  -4.71574853
  -4.40856745  -4.12629294  -3.87515164  -3.66137021  -3.48909974
  -3.36249132  -3.2836205   -3.25663838  -3.27946941  -3.34588694
  -3.45173988  -3.58872604  -3.74646768  -3.9166626   -4.08685753]",6.981244578772677,-0.04472805652964741,4.628794999999999,-0.41493499999999983
035,1,2,csm,57a.png,1,1,248,310,248,1,1,316,neu_feedback_onset,5,"[-3.40854517e+00 -3.12874545e+00 -2.80300847e+00 -2.43342228e+00
 -2.03251523e+00 -1.60863955e+00 -1.17014746e+00 -7.29567313e-01
 -2.97339397e-01  1.14007943e-01  5.00298592e-01  8.55268378e-01
  1.17682924e+00  1.46498119e+00  1.72181227e+00  1.95567471e+00
  2.16656853e+00  2.36493400e+00  2.55494723e+00  2.73660824e+00
  2.91618119e+00  3.09366609e+00  3.26906292e+00  3.44237170e+00
  3.61150436e+00  3.77854897e+00  3.93932940e+00  4.09593372e+00
  4.24418580e+00  4.38199760e+00  4.50519300e+00  4.60750782e+00
  4.68267789e+00  4.72235099e+00  4.72026293e+00  4.66806149e+00
  4.55948250e+00  4.39243789e+00  4.16066350e+00  3.86624738e+00
  3.50710148e+00  3.08948997e+00  2.61550090e+00  2.09348651e+00
  1.52971097e+00  9.30438450e-01  3.04021181e-01 -3.43276663e-01
 -9.98926738e-01 -1.66084099e+00 -2.32275523e+00 -2.97840531e+00
 -3.62779121e+00 -4.26464877e+00 -4.88897798e+00 -5.50077885e+00
 -6.10005137e+00 -6.68053137e+00 -7.24221885e+00 -7.78302576e+00
 -8.29459987e+00 -8.77694116e+00 -9.21960937e+00 -9.62260448e+00
 -9.97966232e+00 -1.02949590e+01 -1.05684946e+01 -1.08044451e+01
 -1.10111628e+01 -1.11990879e+01 -1.13765728e+01 -1.15540577e+01
 -1.17419829e+01 -1.19466125e+01 -1.21762989e+01 -1.24310419e+01
 -1.27150177e+01 -1.30261383e+01 -1.33602275e+01 -1.37131092e+01
 -1.40806074e+01 -1.44543697e+01 -1.48260439e+01 -1.51914540e+01
 -1.55380716e+01 -1.58596324e+01 -1.61519605e+01 -1.64046154e+01
 -1.66155093e+01 -1.67762897e+01 -1.68869567e+01 -1.69433343e+01
 -1.69433343e+01 -1.68848687e+01 -1.67658494e+01 -1.65862765e+01
 -1.63461498e+01 -1.60454695e+01 -1.56842356e+01 -1.52645360e+01
 -1.47905469e+01 -1.42664445e+01 -1.36964048e+01 -1.30887800e+01
 -1.24498344e+01 -1.17837441e+01 -1.11009492e+01 -1.04035380e+01
 -9.69777455e+00 -8.98783498e+00 -8.27580735e+00 -7.56169166e+00
 -6.84757597e+00 -6.13554834e+00 -5.42769683e+00 -4.72402143e+00
 -4.03287438e+00 -3.35425567e+00 -2.70069365e+00 -2.07218833e+00
 -1.48126804e+00 -9.34196954e-01 -4.35151196e-01  7.51700723e-03
  3.89631541e-01  7.11192406e-01  9.70111544e-01  1.16430090e+00
  1.29584852e+00  1.37101860e+00  1.39189917e+00  1.36266637e+00
  1.29584852e+00  1.19770982e+00  1.07660248e+00  9.47142911e-01
  8.17683342e-01  7.00752118e-01  6.02613413e-01  5.35795571e-01
  5.00298592e-01  5.00298592e-01  5.37883628e-01  6.06789528e-01
  7.04928233e-01  8.26035572e-01  9.61759314e-01  1.11001140e+00
  1.26452766e+00  1.42530809e+00  1.59026464e+00  1.75939730e+00
  1.93479414e+00  2.12063126e+00  2.31690867e+00  2.52571443e+00
  2.74287242e+00  2.97047069e+00  3.20433314e+00  3.43610753e+00
  3.66579386e+00  3.88086379e+00  4.08131731e+00  4.26089026e+00
  4.41331847e+00  4.54068998e+00  4.63674063e+00  4.70564653e+00
  4.74740768e+00  4.75993602e+00  4.74949573e+00  4.71817487e+00
  4.66597343e+00  4.59497947e+00  4.50936911e+00  4.41123041e+00
  4.30056336e+00  4.18363213e+00  4.06252480e+00  3.93932940e+00
  3.81613400e+00  3.69920278e+00  3.58644767e+00  3.47995674e+00
  3.38181803e+00  3.28785544e+00  3.19598091e+00  3.09993026e+00
  2.99552738e+00  2.87859616e+00  2.73869630e+00  2.56956364e+00
  2.36911011e+00  2.12898349e+00  1.85127184e+00  1.53388709e+00
  1.18100536e+00  7.96802766e-01  3.87543484e-01 -3.63322016e-02
 -4.66472060e-01 -8.90347745e-01 -1.29960703e+00 -1.68798573e+00
 -2.04713164e+00 -2.37495667e+00 -2.66728473e+00 -2.92829193e+00
 -3.15797826e+00 -3.36469596e+00 -3.55262114e+00 -3.73010603e+00
 -3.90341481e+00 -4.07672359e+00 -4.25838460e+00 -4.44839783e+00
 -4.65302747e+00 -4.87227352e+00 -5.10404791e+00 -5.35043870e+00
 -5.60935784e+00 -5.87871726e+00 -6.15851698e+00 -6.44666892e+00
 -6.74317310e+00 -7.04385338e+00 -7.35288590e+00 -7.66400648e+00
 -7.97930317e+00 -8.29668792e+00 -8.61616073e+00 -8.93354548e+00
 -9.25093023e+00 -9.56622692e+00 -9.87734750e+00 -1.01863800e+01
 -1.04933245e+01 -1.07981809e+01 -1.11030373e+01 -1.14120698e+01
 -1.17231904e+01 -1.20405751e+01 -1.23642241e+01 -1.26941372e+01
 -1.30303144e+01 -1.33664917e+01 -1.37026690e+01 -1.40346701e+01
 -1.43562310e+01 -1.46610874e+01 -1.49492393e+01 -1.52144226e+01
 -1.54524612e+01 -1.56633550e+01 -1.58450160e+01 -1.59974442e+01
 -1.61248157e+01 -1.62250425e+01 -1.63043887e+01 -1.63649423e+01]","[  0.46124472   0.56851093   0.66505052   0.74657284   0.80878725
   0.84740308   0.85598438   0.83238582   0.77231674   0.67577714
   0.54062171   0.36470513   0.1501727   -0.10512089  -0.39903031
  -0.73155557  -1.104842    -1.51674426  -1.96940768  -2.46283226
  -2.99272735  -3.56338361  -4.1640744   -4.79694506  -5.45126896
  -6.12061013  -6.79424195  -7.46358312  -8.12005235  -8.75506833
  -9.3621951   -9.93499667 -10.47132774 -10.9711883  -11.43672366
 -11.86793384 -12.2712548  -12.65312252 -13.013537   -13.35678888
 -13.68931414 -14.01111278 -14.3221848  -14.6225302  -14.90785832
 -15.17602386 -15.42273615 -15.64155922 -15.82820243 -15.97622981
 -16.08349602 -16.14571042 -16.16716367 -16.15000107 -16.10065861
 -16.02986291 -15.94619527 -15.8603823  -15.78529595 -15.72737219
 -15.693047   -15.68446571 -15.70377363 -15.74453479 -15.80245854
 -15.87110892 -15.93975929 -16.0019737  -16.04702551 -16.06847875
 -16.05989745 -16.01484564 -15.931178   -15.80889451 -15.64584987
 -15.44204406 -15.20391307 -14.93145689 -14.62682084 -14.29858623
 -13.94675305 -13.57561195 -13.19159891 -12.79471392 -12.39139296
 -11.9794907  -11.56758844 -11.15139553 -10.73520263 -10.32115504
  -9.90925278  -9.5037865   -9.10475618  -8.71645249  -8.34102075
  -7.98275159  -7.64164503  -7.32199172  -7.02379165  -6.74489949
  -6.4896059   -6.25147491  -6.03050651  -5.82026473  -5.6228949
  -5.42981572  -5.24317251  -5.05867462  -4.87417673  -4.68967884
  -4.50518096  -4.31639242  -4.12545856  -3.92808873  -3.72857357
  -3.52262244  -3.31238067  -3.09784824  -2.87902516  -2.66020209
  -2.44566966  -2.23971853  -2.04449403  -1.87072276  -1.72055006
  -1.59826658  -1.50816296  -1.45238453  -1.43307661  -1.44594856
  -1.48885504  -1.55965074  -1.64975436  -1.7505846   -1.85999614
  -1.96511703  -2.06165662  -2.14532427  -2.20539335  -2.24400918]",3.6099383187795575,-1.0418849809148787,4.789140000000001,-0.02169000000000043
035,1,2,csm,54a.png,1,0,64,NaN,68,1,1,498,neu_feedback_onset,6,"[ -1.11587014  -1.09850758  -1.05293085  -0.98348061  -0.89015684
  -0.77730019  -0.64925129  -0.50601016  -0.35191742  -0.19131373
  -0.02419907   0.14725623   0.32088184   0.49667778   0.67464404
   0.8526103    1.02840624   1.20420217   1.37565747   1.54060181
   1.69903518   1.84878728   1.98551745   2.11139603   2.22425268
   2.32842805   2.42175182   2.51290527   2.60405872   2.69521217
   2.79721722   2.90573323   3.02727116   3.15966069   3.30073151
   3.44614296   3.59155442   3.73045491   3.85633348   3.96050885
   4.04298102   4.09506871   4.11460159   4.10374999   4.0625139
   3.98872302   3.88888829   3.75866907   3.60457634   3.42226944
   3.21174838   2.97301315   2.70389345   2.40438926   2.07450058
   1.71205711   1.32356979   0.90903862   0.47063394   0.01486669
  -0.45392247  -0.93356324  -1.41971497  -1.9058667   -2.39418875
  -2.87599984  -3.34695933  -3.80706721  -4.24764222  -4.66217338
  -5.04414974  -5.38923065  -5.68873484  -5.94049199  -6.14233177
  -6.29425419  -6.4027702   -6.47656108  -6.52430813  -6.55903325
  -6.5959287   -6.64584606  -6.72180727  -6.83466392  -6.98658634
  -7.18191516  -7.41848006  -7.69194041  -7.99578524  -8.31699263
  -8.6468813   -8.97459966  -9.28929609  -9.58445964  -9.85140903
 -10.08797393 -10.29415435 -10.46995029 -10.62404302 -10.75643256
 -10.87797049 -10.98865682 -11.09717283 -11.20351852 -11.30769389
 -11.40752862 -11.50085239 -11.58115424 -11.64409353 -11.68098897
 -11.68749993 -11.65928577 -11.58983552 -11.47914919 -11.32071582
 -11.11670571 -10.86711889 -10.57412566 -10.23338538  -9.85140903
  -9.42819658  -8.96374806  -8.46240409  -7.92633499  -7.35988141
  -6.76304335  -6.14450209  -5.51076859  -4.8683538   -4.22810934
  -3.59654615  -2.98234553  -2.39635907  -1.84292741  -1.32856152
  -0.85326139  -0.41919735  -0.02419907   0.33607409   0.66379244
   0.96112631   1.23675698   1.49068444   1.72290871   1.93777041
   2.13092891   2.30455453   2.45647694   2.58452583   2.69087152
   2.77117337   2.8276017    2.8601565    2.86449714   2.84279394
   2.78853593   2.70172313   2.58018519   2.42175182   2.226423
   1.99419873   1.73376031   1.44944836   1.15211449   0.8526103
   0.56178739   0.29049736   0.0474215   -0.1565886   -0.31936262
  -0.43438959  -0.4994992   -0.51686176  -0.48213664  -0.40183479
  -0.27161558  -0.09798996   0.11687174   0.37296953   0.66162212
   0.97848887   1.31054786   1.64911782   1.98334713   2.29804356
   2.58669615   2.83628298   3.04680404   3.22042966   3.35715983
   3.47435712   3.58504346   3.70658139   3.8585038    4.05817326
   4.31644137   4.6419894    5.03264704   5.47973301   5.9723957
   6.48893191   7.00763844   7.50464177   7.96040902   8.35974794
   8.69180693   8.95441568   9.15191482   9.29298563   9.39499068
   9.47312221   9.5469131    9.63155559   9.73790128   9.87246113
  10.03740547  10.22622333  10.43240375  10.64509513  10.84693491
  11.02707149  11.16597198  11.25712543  11.28750992  11.25061447
  11.14860942  10.98149476  10.75795178  10.48232111  10.169795
   9.83122505   9.47746285   9.11936002   8.76776814   8.42919819
   8.10582047   7.80197564   7.51115273   7.2290111    6.94686948
   6.65170593   6.33266885   5.97456602   5.56654582   5.09775665
   4.56385787   3.96701981   3.30941279   2.60839936   1.88134208
   1.15428481   0.45761202  -0.18046213  -0.72955314  -1.15927655
  -1.45226978  -1.59334059  -1.58031867  -1.41971497  -1.12889206]","[-5.80773624 -5.35634294 -4.83620953 -4.25650138 -3.62638382 -2.95960488
 -2.26991257 -1.56647225 -0.86074058 -0.16188293  0.52093537  1.18313164
  1.81783187  2.42503606  3.00474421  3.55466499  4.07708973  4.57430976
  5.0463251   5.4977184   5.92848968  6.34093026  6.73504015  7.11081935
  7.46826785  7.80738567  8.12359011  8.41458986  8.67809356  8.91410123
  9.11573885  9.28300642  9.41590394  9.51214007  9.57171482  9.59691953
  9.59004552  9.5510928   9.48464404  9.39528191  9.28529775  9.15927424
  9.02179405  8.87285717  8.71933762  8.5612354   8.40084184  8.23815694
  8.07776338  7.91736982  7.7592676   7.60574805  7.45681117  7.31703964
  7.18414212  7.06040994  6.95042579  6.85189832  6.76711886  6.69837876
  6.64338669  6.59985129  6.57006392  6.54944189  6.54027654  6.5379852
  6.54485921  6.55860723  6.5815206   6.61589065  6.65942604  6.71900079
  6.79690624  6.89543371  7.01458321  7.15664608  7.32162231  7.50492924
  7.70427552  7.91507848  8.12817279  8.33897575  8.5429047   8.7307943
  8.90264455  9.0561641   9.18906162  9.30362845  9.40215592  9.48922671
  9.56942349  9.6450376   9.71836037  9.79855715  9.8833366   9.9772814
 10.08268288 10.19495837 10.31639921 10.44471406 10.58448559 10.72883979
 10.88006801 11.03587889 11.19856379 11.36583136 11.53997294 11.71640586
 11.89971278 12.08760238 12.28465732 12.48858628 12.70397192 12.93081424
 13.17827859 13.44407363 13.73736471 14.05356916 14.39726964 14.76388349
 15.15111938 15.5475206  15.94163049 16.32199236 16.67027552 16.97502329
 17.2201963  17.39204654 17.47911733 17.47682599 17.37829852 17.18353491
 16.89482651 16.51675597 16.05848866 15.52460724 14.93115106 14.28499415
 13.59988452 12.88498751]",9.349088411249616,14.981345656141377,4.607615000000001,-0.28295000000000137
035,1,2,csp,20b.png,1,1,220,224,219,1,1,360,pos_feedback_onset,7,"[ -1.6055843   -1.49514557  -1.35005939  -1.17682216  -0.98193027
  -0.77621106  -0.56399546  -0.34961438  -0.13956424   0.0639895
   0.25671592   0.43861501   0.60535585   0.75477296   0.88253541
   0.98864322   1.06876544   1.11857114   1.13806033   1.12290207
   1.07309637   0.99080868   0.88036995   0.74611109   0.59019759
   0.41912582   0.2393922    0.05532764  -0.13090238  -0.3171324
  -0.50552789  -0.70041978  -0.90830445  -1.13134739  -1.3803759
  -1.6618864   -1.98020981  -2.33967706  -2.74245362  -3.18853949
  -3.67793467  -4.20414275  -4.75850189  -5.33884661  -5.93218412
  -6.5341835   -7.1340174   -7.72952038  -8.3163615   -8.88804436
  -9.44889989  -9.99459716 -10.52946711 -11.0556752  -11.57322142
 -12.08427125 -12.58665922 -13.08255079 -13.56544957 -14.03319009
 -14.47711049 -14.89071438 -15.26967082 -15.60748342 -15.89549031
 -16.1336915  -16.31775606 -16.44984945 -16.52564073 -16.54946085
 -16.5213098  -16.44118758 -16.3090942  -16.12719511 -15.89332484
 -15.60964888 -15.27616721 -14.89287984 -14.4641177  -13.99421171
 -13.48532735 -12.94612647 -12.37877454 -11.79193342 -11.18776859
 -10.57494188  -9.95345332  -9.32763383  -8.7039798   -8.08249124
  -7.46749907  -6.86116877  -6.26566579  -5.6831556   -5.11580367
  -4.56577547  -4.03307099  -3.5133593   -3.0066404   -2.51074883
  -2.01702272  -1.52762755  -1.03390144  -0.53800987  -0.03778737
   0.4646006    0.96265763   1.45205281   1.92628972   2.37237559
   2.78381401   3.15410859   3.47676293   3.74961157   3.9726545
   4.1480572    4.28015059   4.3732656    4.43822956   4.4793734
   4.50102805   4.51402085   4.52051724   4.52484817   4.53351004
   4.54866829   4.57681934   4.61796318   4.67426528   4.74572564
   4.83450972   4.93845206   5.05322173   5.17665325   5.30441571
   5.4300127    5.55344423   5.66821389   5.77648716   5.8739331
   5.96271718   6.0428394    6.11863069   6.19009105   6.25938594
   6.32868083   6.39581026   6.46293968   6.53006911   6.59719854
   6.6621625    6.72712646   6.78559403   6.84189612   6.88953636
   6.92851474   6.95883126   6.97182405   6.97182405   6.95233486
   6.91768741   6.86571624   6.79858682   6.72063006   6.63834238
   6.5560547    6.48026341   6.42179584   6.380652     6.36332828
   6.3741556    6.40880305   6.46727061   6.5430619    6.63184598
   6.72063006   6.80291775   6.86788171   6.90686009   6.91335648
   6.87870904   6.79642135   6.66649343   6.4867598    6.25722047
   5.97787544   5.65305563   5.28492652   4.8799845    4.44472595
   3.98131636   3.49841759   3.00252602   2.49797258   1.99125369
   1.48886572   0.99080868   0.5079099    0.03800392  -0.41241288
  -0.84334049  -1.24828252  -1.62507349  -1.97587888  -2.29420229
  -2.58220919  -2.83989957  -3.06510796  -3.26433078  -3.43540254
  -3.58698512  -3.71691304  -3.83601364  -3.94645237  -4.05472564
  -4.16516438  -4.28209951  -4.41419289  -4.55927907  -4.72385444
  -4.91008446  -5.11796914  -5.34967394  -5.60086792  -5.87588202
  -6.17038531  -6.48437779  -6.81352853  -7.16216845  -7.52596664
  -7.90708854  -8.30336871  -8.71913806  -9.15006567  -9.60264793
 -10.07255392 -10.56194909 -11.06650252 -11.58837968 -12.12324963
 -12.66678144 -13.21680964 -13.76683785 -14.31686605 -14.86039786
 -15.39310234 -15.91064857 -16.41087107 -16.88943892 -17.34418665
 -17.77078332 -18.16706349 -18.5351926  -18.8730052  -19.17617035
 -19.44901899 -19.68722018 -19.89293939 -20.06401116 -20.19827001]","[-3.28936953 -2.95811869 -2.59763984 -2.21280431 -1.80848343 -1.39441988
 -0.98035634 -0.5735998  -0.17902159  0.1936356   0.53950044  0.85370161
  1.13623909  1.38467721  1.59901599  1.78412675  1.94244517  2.0764069
  2.19088329  2.29318135  2.38573673  2.47342077  2.55623348  2.63904619
  2.71942323  2.79492894  2.86799898  2.93376201  2.98734671  3.02631739
  3.0482384   3.04580274  3.01901039  2.96786136  2.88748432  2.78031493
  2.64878886  2.49290612  2.31753803  2.13242726  1.93757383  1.7427204
  1.5527383   1.37737021  1.22148746  1.09239706  0.99740601  0.93894998
  0.92190031  0.94869266  1.01932702  1.13867475  1.30430017  1.51620328
  1.76951274  2.06422856  2.3954794   2.76082959  3.15297212  3.56703567
  4.00058456  4.44874746  4.90421736  5.35968726  5.81515716  6.26332006
  6.70174028  7.12311084  7.52986738  7.91470291  8.2800531   8.61861094
  8.93524777  9.22752792  9.49788706  9.74388952  9.96797097 10.17500274
 10.36498484 10.54765993 10.72302802 10.89839611 11.07619987 11.2637463
 11.4610354  11.66806718 11.88727729 12.11623007 12.35492553 12.59362099
 12.82988077 13.06126923 13.28047934 13.48507544 13.67018621 13.83581163
 13.97708036 14.09886376 14.19872615 14.28153885 14.34486622 14.39357958
 14.4301146  14.45934261 14.48126362 14.50074897 14.52266998 14.54702666
 14.58356168 14.62983937 14.69073107 14.76867244 14.86366349 14.97570421
 15.10479461 15.24849902 15.4019461  15.56513585 15.73319694 15.89882235
 16.06201211 16.21789485 16.36159926 16.49312533 16.61003739 16.71233544
 16.79271248 16.85603985 16.89988187 16.92423855 16.92910989 16.90962454
 16.87065386 16.81219782 16.72938512 16.62708706 16.50530367 16.36403493
 16.20328084 16.02304142]",6.524709584024936,16.13849207799007,4.617945,0.3748850000000008
035,1,2,csm,37a.png,1,1,116,130,112,1,1,888,neu_feedback_onset,8,"[-5.19480519 -4.94938133 -4.6272625  -4.23100522 -3.76572247 -3.23908375
 -2.65364557 -2.02219041 -1.34983127 -0.64679415  0.07413846  0.80785356
  1.54156867  2.27017077  2.98854689  3.68902751  4.36905614  5.02607629
  5.65497495  6.25830862  6.83352081  7.38061151  7.89958073  8.39042847
  8.85059822  9.28008999  9.67634727 10.04448308 10.3793844  10.68105123
 10.95459658 11.20257695 11.42243583 11.62184272 11.80335413 11.96441354
 12.11269046 12.24307189 12.36322732 12.46548727 12.55240822 12.62399018
 12.67512016 12.70579814 12.71602413 12.70324164 12.67000716 12.61632069
 12.54473873 12.45526127 12.35300133 12.24051539 12.12035996 11.99509152
 11.86982309 11.74711116 11.62439922 11.50424379 11.38408835 11.25881992
 11.12332549 10.97249207 10.79609367 10.58901728 10.34359341 10.05470907
  9.72236425  9.34400245  8.92473668  8.46456693  7.97627569  7.46753247
  6.94345025  6.41681153  5.89017282  5.3737601   4.87012987  4.37928214
  3.90632989  3.44616014  3.00132938  2.56928111  2.14490234  1.73074957
  1.32426628  0.928009    0.53942121  0.16617241 -0.1942939  -0.53430821
 -0.84620104 -1.12997239 -1.37539626 -1.58247265 -1.75120155 -1.87902649
 -1.97106044 -2.0324164  -2.07587688 -2.10911136 -2.13978934 -2.18324982
 -2.24460579 -2.33152674 -2.44401268 -2.5846201  -2.74823602 -2.92974742
 -3.12148481 -3.31833521 -3.5126291  -3.6992535  -3.87565191 -4.03671132
 -4.18754474 -4.32559566 -4.45597709 -4.57868903 -4.70140096 -4.8215564
 -4.93915533 -5.05675427 -5.16924021 -5.27661315 -5.3712036  -5.44534206
 -5.49647203 -5.51436752 -5.49902853 -5.43767256 -5.32774312 -5.16668371
 -4.94682483 -4.66816648 -4.32303917 -3.91911238 -3.44871664 -2.91696492
 -2.32897024 -1.68984559 -1.00470396 -0.28377135  0.46528275  1.22967584
  1.99918192  2.76613151  3.5177421   4.24890071  4.94938133  5.61662747
  6.24552613  6.83863381  7.39595051  7.92258922  8.41599346  8.8863892
  9.33377646  9.76326823 10.17486451 10.57112179 10.94692709 11.2997239
 11.62439922 11.91328357 12.16126393 12.36322732 12.51661724 12.62143368
 12.67767665 12.69301565 12.67767665 12.63932917 12.5984252  12.56263422
 12.55240822 12.57541671 12.64188567 12.75692811 12.92054402 13.12506391
 13.36281828 13.62358114 13.8920135  14.15277636 14.38797423 14.58738112
 14.73310154 14.812353   14.817466   14.73310154 14.55670314 14.28315779
 13.91246549 13.44973924 12.90264853 12.28653237 11.62184272 10.9290316
 10.23366397  9.56386134  8.94518867  8.39554147  7.93537171  7.57234891
  7.31414255  7.15308314  7.08150118  7.08661417  7.14797014  7.24511709
  7.35504653  7.46241947  7.54934042  7.60302689  7.61836589  7.5928009
  7.52888843  7.43685448  7.32181205  7.19910011  7.07894468  6.96390224
  6.86419879  6.77472134  6.69546988  6.61366193  6.51395848  6.38613355
  6.20973515  5.96942428  5.65497495  5.25871766  4.77553942  4.20799673
  3.56375908  2.85560896  2.09888537  1.30637079  0.50107373 -0.30166684
 -1.08651191 -1.8432355  -2.55905512 -3.22630126 -3.83986093 -4.39973412
 -4.90080785 -5.34308211 -5.72400041 -6.04356274 -6.3043256  -6.50373249
 -6.64945291 -6.74148686 -6.79261683 -6.80539933 -6.79261683 -6.76705185
 -6.73637386 -6.71336537]","[-4.32439303 -4.22524469 -4.0422016  -3.78034829 -3.43968476 -3.0278378
 -2.54734969 -2.00838948 -1.41858396 -0.7881022  -0.12202873  0.5694674
  1.27367484  1.98296682  2.68717427  3.3786704   4.04474387  4.68285242
  5.27774247  5.82687174  6.32007118  6.75479853  7.12342697  7.420872
  7.6471336   7.79966951  7.87847973  7.88610652  7.82763442  7.70560569
  7.5301894   7.30901233  7.05224355  6.76496759  6.46243803  6.15228168
  5.84212533  5.53959578  5.24723529  4.97521291  4.72607093  4.49726706
  4.29642812  4.12101182  3.97356044  3.85153171  3.76001017  3.69391127
  3.65831956  3.64560824  3.65831956  3.69645354  3.75238337  3.82610906
  3.91763061  4.02440575  4.14897674  4.28880132  4.44642176  4.62438032
  4.82013474  5.03876954  5.2752002   5.52942672  5.80144909  6.08618279
  6.38362781  6.68615737  6.99377145  7.30138553  7.60899962  7.91152917
  8.20643193  8.4860811   8.74793441  8.9818228   9.18520402  9.34282446
  9.44959959  9.4928181   9.46739545  9.36316258  9.17503496  8.90047032
  8.54201093  8.10474132  7.59374603  7.02427863  6.4065082   5.75823058
  5.09978391  4.4438795   3.80831321  3.21088089  2.65920936  2.16346765
  1.72619804  1.35248506  1.03724418  0.77539087  0.5618406   0.39150883
  0.25168425  0.14236685  0.05338757 -0.01525359 -0.06864116 -0.10169061
 -0.11185967 -0.09660608 -0.0508453   0.03813398  0.17033177  0.35337486
  0.59234778  0.88979281  1.2406254   1.63976103  2.07703063  2.54226516
  3.02275327  3.50324139  3.96847591  4.40828778  4.81250794  5.17096733
  5.48620821  5.75314605  5.97432312  6.15736621  6.30735986  6.43701538
  6.54887505  6.65819245  6.77005212  6.89462311  7.03698996  7.19969493
  7.38528028  7.59374603]",12.018675222415379,6.444769289436903,3.9116,0.2754999999999983
035,1,2,csp,30b.png,1,1,92,147,94,1,1,319,pos_feedback_onset,9,"[-4.10790795e+00 -3.88381114e+00 -3.61436140e+00 -3.29955874e+00
 -2.93940316e+00 -2.53923028e+00 -2.10170794e+00 -1.62683613e+00
 -1.11995049e+00 -5.83718833e-01 -2.61446278e-02  5.50104312e-01
  1.13702453e+00  1.72928038e+00  2.32153624e+00  2.90845645e+00
  3.48203757e+00  4.03961178e+00  4.57851125e+00  5.09606817e+00
  5.58961471e+00  6.05915089e+00  6.50734451e+00  6.93419557e+00
  7.33703627e+00  7.72387005e+00  8.09202909e+00  8.44418122e+00
  8.78032643e+00  9.10846819e+00  9.42327085e+00  9.73007006e+00
  1.00261980e+01  1.03196581e+01  1.06024469e+01  1.08799001e+01
  1.11520177e+01  1.14107961e+01  1.16562355e+01  1.18830001e+01
  1.20857544e+01  1.22618304e+01  1.24032249e+01  1.25046020e+01
  1.25606262e+01  1.25712975e+01  1.25339480e+01  1.24485778e+01
  1.23178546e+01  1.21417786e+01  1.19256852e+01  1.16749102e+01
  1.13974570e+01  1.10933257e+01  1.07731874e+01  1.04397100e+01
  1.01008969e+01  9.75674825e+00  9.40993176e+00  9.07111872e+00
  8.73497351e+00  8.41216739e+00  8.10003255e+00  7.80657244e+00
  7.53178707e+00  7.28101206e+00  7.05424743e+00  6.85682882e+00
  6.69142403e+00  6.56336871e+00  6.46999504e+00  6.41663865e+00
  6.40596738e+00  6.43531339e+00  6.51001233e+00  6.63006419e+00
  6.79280116e+00  6.99822323e+00  7.24366260e+00  7.53178707e+00
  7.85192537e+00  8.20674531e+00  8.58557564e+00  8.98841633e+00
  9.40459612e+00  9.83411500e+00  1.02636339e+01  1.06931528e+01
  1.11146682e+01  1.15228445e+01  1.19123461e+01  1.22778374e+01
  1.26113148e+01  1.29101105e+01  1.31688890e+01  1.33769789e+01
  1.35370480e+01  1.36357573e+01  1.36731068e+01  1.36410930e+01
  1.35370480e+01  1.33609719e+01  1.31128648e+01  1.27900586e+01
  1.23978892e+01  1.19443600e+01  1.14348065e+01  1.08745645e+01
  1.02743052e+01  9.64203202e+00  8.98574851e+00  8.31079026e+00
  7.62516074e+00  6.93419557e+00  6.24323041e+00  5.55493306e+00
  4.87730700e+00  4.21302002e+00  3.56740779e+00  2.94847374e+00
  2.35888571e+00  1.80397932e+00  1.28375458e+00  8.00879313e-01
  3.52685694e-01 -6.88297344e-02 -4.66334790e-01 -8.50500750e-01
 -1.22933107e+00 -1.61082921e+00 -2.00299863e+00 -2.41117496e+00
 -2.83802603e+00 -3.27821619e+00 -3.72640981e+00 -4.17727125e+00
 -4.61746141e+00 -5.03630902e+00 -5.41513934e+00 -5.74594892e+00
 -6.00739519e+00 -6.19414254e+00 -6.28751621e+00 -6.28484839e+00
 -6.17813562e+00 -5.96471009e+00 -5.65257525e+00 -5.24439891e+00
 -4.75618801e+00 -4.20394944e+00 -3.60635795e+00 -2.99009172e+00
 -2.37649331e+00 -1.78957310e+00 -1.25334144e+00 -7.83805271e-01
 -3.96971492e-01 -1.03511384e-01  9.12394154e-02  1.95284363e-01
  2.05955640e-01  1.39260160e-01  3.20138300e-03 -1.94217235e-01
 -4.34320960e-01 -7.11774153e-01 -1.01857336e+00 -1.34671511e+00
 -1.68819597e+00 -2.04568374e+00 -2.41384278e+00 -2.78466964e+00
 -3.15816433e+00 -3.52899119e+00 -3.88914678e+00 -4.23596327e+00
 -4.56143721e+00 -4.86290077e+00 -5.13768615e+00 -5.38045769e+00
 -5.59921886e+00 -5.79396966e+00 -5.97271355e+00 -6.14345397e+00
 -6.31152658e+00 -6.48493483e+00 -6.67168217e+00 -6.87443642e+00
 -7.09586541e+00 -7.33596914e+00 -7.59207978e+00 -7.85886169e+00
 -8.12831143e+00 -8.39242553e+00 -8.63786489e+00 -8.85929388e+00
 -9.04604122e+00 -9.18476782e+00 -9.27013803e+00 -9.29148059e+00
 -9.24879548e+00 -9.13141144e+00 -8.94199628e+00 -8.68321782e+00
 -8.35240824e+00 -7.96023882e+00 -7.51204520e+00 -7.01849866e+00
 -6.48760264e+00 -5.93002844e+00 -5.35911514e+00 -4.78286620e+00
 -4.21195290e+00 -3.65971433e+00 -3.13148614e+00 -2.63793959e+00
 -2.18441033e+00 -1.77356618e+00 -1.41607841e+00 -1.11461485e+00
 -8.69175484e-01 -6.82428142e-01 -5.51705003e-01 -4.79673886e-01
 -4.55663513e-01 -4.74338247e-01 -5.33030269e-01 -6.18400482e-01
 -7.25113249e-01 -8.45165111e-01 -9.73220431e-01 -1.09860793e+00
 -1.21865979e+00 -1.33604384e+00 -1.44275660e+00 -1.54413373e+00
 -1.64017522e+00 -1.73354889e+00 -1.82158693e+00 -1.90962496e+00
 -1.99232735e+00 -2.07236193e+00 -2.14706086e+00 -2.21642416e+00
 -2.27511618e+00 -2.32046911e+00 -2.34981512e+00 -2.36582204e+00
 -2.36048640e+00 -2.33647602e+00 -2.29112310e+00 -2.22175980e+00
 -2.13372177e+00 -2.02434118e+00 -1.90162150e+00 -1.77089836e+00
 -1.64017522e+00 -1.51478772e+00 -1.40807496e+00 -1.32804038e+00]","[ 3.65213548  3.06094259  2.51947621  2.02221117  1.5636223   1.13818443
  0.74866015  0.3867617   0.05248909 -0.25415769 -0.53317863 -0.7900989
 -1.02215592 -1.23763744 -1.43654346 -1.62163655 -1.7984419  -1.97248467
 -2.14929002 -2.32885795 -2.51395105 -2.7073319  -2.91176308 -3.12448202
 -3.34825128 -3.57754572 -3.81789049 -4.06652301 -4.3206807  -4.58588872
 -4.86214708 -5.14669319 -5.44505221 -5.75169899 -6.06663352 -6.38709321
 -6.71031549 -7.03077518 -7.34018454 -7.63578098 -7.90927676 -8.15238411
 -8.36234046 -8.53085806 -8.6579369  -8.73528924 -8.76844025 -8.74633958
 -8.67727499 -8.55848389 -8.38720371 -8.16895961 -7.90375159 -7.58881706
 -7.23244378 -6.83463175 -6.39814354 -5.92850434 -5.42847671 -4.909111
 -4.37593237 -3.83722858 -3.30128736 -2.78192165 -2.28465661 -1.81777999
 -1.39234212 -1.01110559 -0.67683297 -0.39228687 -0.15470468  0.03591359
  0.18785568  0.30388419  0.38952428  0.45306371  0.49726504  0.52765346
  0.54975413  0.56909222  0.58290513  0.60224322  0.62434389  0.65749489
  0.70445881  0.76799823  0.85640091  0.97242942  1.12437151  1.31222719
  1.53875905  1.80672965  2.11061385  2.44764904  2.80954749  3.19078402
  3.57478314  3.95878225  4.32620587  4.6742914   4.99198851  5.28205978
  5.53898005  5.76551191  5.96994309  6.14951102  6.31526604  6.46997072
  6.61915023  6.76832974  6.91474667  7.0611636   7.21034311  7.35676004
  7.50593955  7.65511907  7.80429858  7.95624068  8.10818277  8.26841262
  8.43693022  8.62202332  8.82369192  9.04746119  9.30161887  9.58616498
  9.90662468 10.25747279 10.63594674 11.04204652 11.46748439 11.90121001
 12.33493563 12.7603735  13.16647329 13.5504724  13.9040831  14.22454279
 14.5090889  14.760484  ]",10.352472268019781,11.262263897768642,3.74838,0.4389450000000008
035,1,2,csm,40a.png,1,1,348,308,348,1,1,531,neu_feedback_onset,10,"[-1.82772588 -1.61120822 -1.42637608 -1.26530806 -1.12536372 -0.99598122
 -0.87187964 -0.74249714 -0.6025528  -0.44148478 -0.25401218 -0.03749452
  0.21070865  0.49323778  0.80745243  1.15335259  1.52565734  1.91908577
  2.33099741  2.76139226  3.20234895  3.65122702  4.11066693  4.57274729
  5.04274903  5.51275078  5.98539298  6.45803518  6.92539646  7.38219591
  7.82051214  8.23506424  8.61529037  8.95326915  9.23843875  9.47079916
  9.64242901  9.7533283   9.8114184   9.82198024  9.79557565  9.74804738
  9.68995728  9.63450763  9.60018166  9.58961983  9.61602442  9.67939544
  9.77973289  9.91967723 10.08866662 10.28670106 10.50585918 10.74350051
 10.99170368 11.25046868 11.51187415 11.78120099 12.05052783 12.31985467
 12.59182197 12.86378927 13.13575657 13.40772387 13.67969117 13.95165847
 14.22362577 14.49559307 14.76756037 15.03688722 15.30621406 15.57290044
 15.83694636 16.09307091 16.34655499 16.58683678 16.81655674 17.03043393
 17.22582792 17.39481731 17.5374021  17.64830139 17.72487471 17.76184114
 17.75920068 17.71695333 17.6350991  17.51363797 17.36049134 17.17829965
 16.97234383 16.75054525 16.51290392 16.27262213 16.0349808  15.80262039
 15.58082182 15.37750646 15.19795523 15.04216813 14.91542609 14.82036956
 14.759639   14.73059394 14.73851532 14.78604359 14.86789782 14.98671849
 15.14250558 15.33525911 15.5623386  15.82110361 16.1062732  16.41784739
 16.75054525 17.10172633 17.46610971 17.84369538 18.23184288 18.62791177
 19.03190203 19.44381367 19.86364669 20.29140108 20.72707685 21.16803354
 21.60899024 22.04994693 22.48298224 22.90281526 23.30416506 23.67911027
 24.02765089 24.344506   24.62439467 24.87259784 25.0891155  25.2765881
 25.43765612 25.58024092 25.7043425  25.81524179 25.9182197  26.01855715
 26.11361368 26.20867021 26.3063672  26.41198557 26.52288486 26.64698644
 26.78429032 26.9347965  27.10378589 27.28861804 27.48929294 27.69788922
 27.90912596 28.12036269 28.31575668 28.49266744 28.64317362 28.75935383
 28.84384852 28.89401725 28.91778138 28.91778138 28.91250046 28.90721954
 28.91514092 28.95210735 29.02339975 29.13957996 29.30064797 29.51452517
 29.77064971 30.06638115 30.39115763 30.73441733 31.08559841 31.42885811
 31.75627505 32.0572874  32.31869287 32.52992961 32.68835716 32.78077323
 32.79925645 32.7438068  32.60386246 32.38206389 32.07577062 31.69290403
 31.24666642 30.74497917 30.21688732 29.6808741  29.16334409 28.69070189
 28.28671162 27.97513744 27.76918162 27.68204646 27.71373197 27.86159769
 28.11508178 28.45834147 28.87025311 29.32969302 29.8102566  30.29082018
 30.74761963 31.16481218 31.52391464 31.82228653 32.04936603 32.20251266
 32.28172644 32.28964782 32.23155771 32.11009659 31.9279049  31.69290403
 31.40509397 31.07239611 30.70009136 30.2961011  29.87098716 29.43267093
 28.98643332 28.54811709 28.11772223 27.70581059 27.31238217 26.94535834
 26.60209864 26.28788399 26.00799531 25.76507306 25.56703862 25.42181336
 25.33731867 25.31883545 25.37164464 25.49838668 25.70170204 25.97895026
 26.32485042 26.73148114 27.18828059 27.68996784 28.2233406  28.78311796
 29.35609761 29.94227956 30.53374243 31.12784575 31.71930862 32.30813103
 32.89167252 33.46993309]","[ 2.51048849  2.12763869  1.76687638  1.42820155  1.11161422  0.81956853
  0.54961034  0.30173964  0.07350225 -0.14001014 -0.33879753 -0.52285994
 -0.69955985 -0.86398893 -1.01860135 -1.16585127 -1.30328453 -1.43090113
 -1.54870107 -1.65668435 -1.75730513 -1.84810925 -1.9364592  -2.02235499
 -2.10825078 -2.1990549  -2.29722152 -2.40765896 -2.53036723 -2.66289216
 -2.80768792 -2.96230034 -3.11691276 -3.27152518 -3.42122927 -3.55620836
 -3.6740083  -3.77217492 -3.84825405 -3.90224568 -3.93414983 -3.94642066
 -3.9439665  -3.92433317 -3.89488319 -3.85070821 -3.79917074 -3.73290827
 -3.65437498 -3.55866253 -3.44331676 -3.30588349 -3.14390858 -2.95493784
 -2.73651712 -2.49355475 -2.22605072 -1.9438217  -1.65177602 -1.35973034
 -1.07259299 -0.80018063 -0.54740159 -0.31916421 -0.11301432  0.06613976
  0.22811467  0.37291043  0.50788953  0.63796029  0.77293939  0.91528098
  1.0698934   1.24168498  1.43556405  1.6515306   1.89203881  2.15954284
  2.45158852  2.76817586  3.10930485  3.47497549  3.86027946  4.26521675
  4.68487903  5.1192663   5.56101607  6.01258251  6.46905727  6.93044036
  7.39182346  7.85811488  8.32195214  8.78333524  9.23981     9.69137643
 10.1331262  10.55769681 10.96017994 11.33566724 11.67434207 11.96884192
 12.21425846 12.40322919 12.52839163 12.58974576 12.58974576 12.53084579
 12.41795418 12.2608876  12.07191686 11.86576697 11.65470875 11.45101302
 11.27185894 11.12460902 11.01907991 10.9626341  10.95772577 11.00435492
 11.10252153 11.24486313 11.4240172  11.63262126 11.85840447 12.09400435
 12.32960423 12.55784161 12.771354   12.96523307 13.13947881 13.29654539
 13.43397866 13.56159526 13.6793952  13.79719513 13.91254091 14.03524918
 14.16286578 14.29539071]",28.329461917159474,12.776145465628488,3.7872200000000005,-0.6276949999999992
035,1,2,csp,52b.png,1,1,44,55,45,1,1,298,pos_feedback_onset,11,"[ 6.42016528e+00  5.75610566e+00  5.05515384e+00  4.32422711e+00
  3.57716004e+00  2.81856416e+00  2.05996827e+00  1.31059544e+00
  5.75057183e-01 -1.37423449e-01 -8.22234930e-01 -1.46784845e+00
 -2.07426400e+00 -2.63687007e+00 -3.14874935e+00 -3.60759610e+00
 -4.01571608e+00 -4.37080351e+00 -4.67746993e+00 -4.93802110e+00
 -5.15706855e+00 -5.34152955e+00 -5.49832140e+00 -5.63666716e+00
 -5.76348410e+00 -5.88568952e+00 -6.01250646e+00 -6.14854645e+00
 -6.29842101e+00 -6.46904744e+00 -6.66042574e+00 -6.87486165e+00
 -7.11466096e+00 -7.37982366e+00 -7.67265550e+00 -7.99546226e+00
 -8.34363241e+00 -8.72408323e+00 -9.13450896e+00 -9.57260385e+00
 -1.00429794e+01 -1.05433299e+01 -1.10713495e+01 -1.16270383e+01
 -1.22080905e+01 -1.28098945e+01 -1.34278389e+01 -1.40642293e+01
 -1.47075371e+01 -1.53577621e+01 -1.60102929e+01 -1.66605180e+01
 -1.73038257e+01 -1.79356047e+01 -1.85558548e+01 -1.91576588e+01
 -1.97433225e+01 -2.03059286e+01 -2.08500885e+01 -2.13734966e+01
 -2.18738471e+01 -2.23534457e+01 -2.28099867e+01 -2.32457758e+01
 -2.36585073e+01 -2.40481812e+01 -2.44171032e+01 -2.47583561e+01
 -2.50742456e+01 -2.53624659e+01 -2.56207113e+01 -2.58512875e+01
 -2.60518889e+01 -2.62225153e+01 -2.63654726e+01 -2.64784550e+01
 -2.65683797e+01 -2.66352468e+01 -2.66813621e+01 -2.67113370e+01
 -2.67228658e+01 -2.67228658e+01 -2.67090312e+01 -2.66836678e+01
 -2.66444699e+01 -2.65891316e+01 -2.65176529e+01 -2.64231167e+01
 -2.63055228e+01 -2.61579540e+01 -2.59804102e+01 -2.57659743e+01
 -2.55192577e+01 -2.52356489e+01 -2.49197595e+01 -2.45715893e+01
 -2.42003615e+01 -2.38037704e+01 -2.33910389e+01 -2.29644728e+01
 -2.25263779e+01 -2.20790600e+01 -2.16294363e+01 -2.11752011e+01
 -2.07186601e+01 -2.02621191e+01 -1.98032723e+01 -1.93444256e+01
 -1.88855788e+01 -1.84267321e+01 -1.79678853e+01 -1.75090386e+01
 -1.70524976e+01 -1.65936509e+01 -1.61371099e+01 -1.56828746e+01
 -1.52309452e+01 -1.47813215e+01 -1.43363093e+01 -1.38982144e+01
 -1.34670368e+01 -1.30427765e+01 -1.26300450e+01 -1.22265366e+01
 -1.18368627e+01 -1.14587176e+01 -1.10921014e+01 -1.07439312e+01
 -1.04119014e+01 -1.01029292e+01 -9.81932045e+00 -9.56568656e+00
 -9.35125065e+00 -9.17601269e+00 -9.04919575e+00 -8.96849406e+00
 -8.93851915e+00 -8.95235372e+00 -9.00769202e+00 -9.09531100e+00
 -9.20368184e+00 -9.32358149e+00 -9.43656386e+00 -9.53571165e+00
 -9.60488453e+00 -9.63485944e+00 -9.61871910e+00 -9.55185199e+00
 -9.43195234e+00 -9.25902014e+00 -9.03997270e+00 -8.77711577e+00
 -8.48197816e+00 -8.16147716e+00 -7.82483583e+00 -7.47897145e+00
 -7.13080130e+00 -6.78493691e+00 -6.44829558e+00 -6.11857153e+00
 -5.79807054e+00 -5.48909835e+00 -5.18704346e+00 -4.89190585e+00
 -4.60137977e+00 -4.31315945e+00 -4.02032760e+00 -3.72057847e+00
 -3.40930052e+00 -3.07957648e+00 -2.72679481e+00 -2.34634398e+00
 -1.93591825e+00 -1.49551760e+00 -1.02283627e+00 -5.27097322e-01
 -1.29122703e-02  5.08190069e-01  1.02468088e+00  1.52733712e+00
  2.00693573e+00  2.45425367e+00  2.86698517e+00  3.24051870e+00
  3.57716004e+00  3.88152070e+00  4.15360068e+00  4.40031727e+00
  4.61936472e+00  4.81304877e+00  4.97445215e+00  5.10126909e+00
  5.17735926e+00  5.19580536e+00  5.14507858e+00  5.01134435e+00
  4.78999115e+00  4.47410167e+00  4.06367594e+00  3.56563123e+00
  2.98919059e+00  2.35049436e+00  1.66337711e+00  9.48590718e-01
  2.26887036e-01 -4.87899358e-01 -1.17501660e+00 -1.82293588e+00
 -2.42704567e+00 -2.98042869e+00 -3.48539069e+00 -3.94423744e+00
 -4.36158046e+00 -4.74894857e+00 -5.11325906e+00 -5.46373497e+00
 -5.80729359e+00 -6.15085221e+00 -6.50132812e+00 -6.86333284e+00
 -7.23917214e+00 -7.62884601e+00 -8.03696599e+00 -8.46353206e+00
 -8.90623847e+00 -9.36508522e+00 -9.84468383e+00 -1.03381170e+01
 -1.08523021e+01 -1.13803217e+01 -1.19244817e+01 -1.24847820e+01
 -1.30566111e+01 -1.36376632e+01 -1.42233269e+01 -1.48136022e+01
 -1.53992658e+01 -1.59826238e+01 -1.65590644e+01 -1.71262820e+01
 -1.76865823e+01 -1.82399653e+01 -1.87887368e+01 -1.93375083e+01
 -1.98862798e+01 -2.04373570e+01 -2.09930458e+01 -2.15510404e+01
 -2.21136464e+01 -2.26762525e+01 -2.32342470e+01 -2.37853243e+01
 -2.43225670e+01 -2.48436693e+01 -2.53440198e+01 -2.58213126e+01
 -2.62732421e+01 -2.66998082e+01 -2.70987051e+01 -2.74699329e+01]","[-3.62521655e+00 -3.37773537e+00 -3.08943255e+00 -2.76541081e+00
 -2.40567013e+00 -2.01786457e+00 -1.60964819e+00 -1.18357235e+00
 -7.44739749e-01 -3.03355794e-01  1.40579514e-01  5.84514822e-01
  1.02589878e+00  1.46473138e+00  1.90101263e+00  2.33729388e+00
  2.77102378e+00  3.20475368e+00  3.63338087e+00  4.05945672e+00
  4.47532715e+00  4.87588947e+00  5.25859232e+00  5.61578165e+00
  5.93980339e+00  6.22810621e+00  6.47048468e+00  6.66438746e+00
  6.80216049e+00  6.87870106e+00  6.89145782e+00  6.83787942e+00
  6.71031180e+00  6.50875497e+00  6.23320891e+00  5.88112229e+00
  5.45249510e+00  4.95498139e+00  4.38858117e+00  3.76094849e+00
  3.08228877e+00  2.35770470e+00  1.59485035e+00  8.09033828e-01
  5.35783992e-03 -8.03420853e-01 -1.60709684e+00 -2.39801607e+00
 -3.16852448e+00 -3.90841666e+00 -4.60748720e+00 -5.26063340e+00
 -5.86020120e+00 -6.40363925e+00 -6.88839619e+00 -7.31192068e+00
 -7.67421272e+00 -7.98292635e+00 -8.24316429e+00 -8.45747789e+00
 -8.63607255e+00 -8.78405099e+00 -8.90651590e+00 -9.01112134e+00
 -9.09786732e+00 -9.16930519e+00 -9.22543494e+00 -9.26625658e+00
 -9.29177010e+00 -9.29432146e+00 -9.27646199e+00 -9.23819170e+00
 -9.17951060e+00 -9.10041868e+00 -9.00856999e+00 -8.91161860e+00
 -8.81211586e+00 -8.72026718e+00 -8.64627796e+00 -8.59780227e+00
 -8.57739145e+00 -8.59014821e+00 -8.64117525e+00 -8.72281853e+00
 -8.83507803e+00 -8.97029971e+00 -9.11827814e+00 -9.27135928e+00
 -9.41933772e+00 -9.55200804e+00 -9.66171619e+00 -9.74080812e+00
 -9.78162975e+00 -9.78162975e+00 -9.73570541e+00 -9.64895943e+00
 -9.52139181e+00 -9.35300256e+00 -9.14889437e+00 -8.91416996e+00
 -8.65648337e+00 -8.37583461e+00 -8.07987774e+00 -7.76861275e+00
 -7.44714236e+00 -7.11546655e+00 -6.77613669e+00 -6.42915277e+00
 -6.07196344e+00 -5.70712006e+00 -5.33462262e+00 -4.95957382e+00
 -4.57942232e+00 -4.20692488e+00 -3.84463285e+00 -3.50020028e+00
 -3.18383259e+00 -2.90573518e+00 -2.67611347e+00 -2.50007016e+00
 -2.38270795e+00 -2.33168091e+00 -2.34443767e+00 -2.41842689e+00
 -2.55109721e+00 -2.72969187e+00 -2.94655682e+00 -3.19148665e+00
 -3.44662188e+00 -3.70430847e+00 -3.94923829e+00 -4.16610324e+00
 -4.34980061e+00 -4.49267634e+00 -4.58197368e+00 -4.61769261e+00
 -4.59473044e+00 -4.51308716e+00 -4.37276278e+00 -4.17630865e+00]",1.2212453270876722e-14,3.3478845462037237,4.3369599999999995,-0.8257300000000005
035,1,2,csp,15b.png,1,1,120,142,124,1,1,326,pos_feedback_onset,12,"[ 4.06496107e+00  3.54564228e+00  3.02632348e+00  2.50972363e+00
  2.00671852e+00  1.51730813e+00  1.04964932e+00  6.06461033e-01
  1.85024314e-01 -2.06503992e-01 -5.76280726e-01 -9.16149047e-01
 -1.23426580e+00 -1.52791203e+00 -1.79980668e+00 -2.04723082e+00
 -2.27290339e+00 -2.47410543e+00 -2.65355591e+00 -2.80309797e+00
 -2.92273162e+00 -3.00973791e+00 -3.06139789e+00 -3.06683579e+00
 -3.02877053e+00 -2.93632635e+00 -2.78950323e+00 -2.58014435e+00
 -2.30824969e+00 -1.97110032e+00 -1.57141517e+00 -1.10919425e+00
 -5.89875459e-01 -1.88966787e-02  5.95585246e-01  1.24813242e+00
  1.92786907e+00  2.62663834e+00  3.33628339e+00  4.04592845e+00
  4.75285455e+00  5.44890488e+00  6.12320363e+00  6.77575080e+00
  7.39567062e+00  7.98024413e+00  8.52131450e+00  9.01344383e+00
  9.45391318e+00  9.82912780e+00  1.01445256e+01  1.03892308e+01
  1.05686813e+01  1.06774391e+01  1.07263802e+01  1.07155044e+01
  1.06529686e+01  1.05523676e+01  1.04218582e+01  1.02695971e+01
  1.01118982e+01  9.95691829e+00  9.81009518e+00  9.67958574e+00
  9.56810893e+00  9.48110264e+00  9.41856687e+00  9.38050162e+00
  9.36418794e+00  9.37234478e+00  9.40497214e+00  9.46750791e+00
  9.55995209e+00  9.68774258e+00  9.85631727e+00  1.00711140e+01
  1.03348519e+01  1.06475307e+01  1.10118696e+01  1.14197115e+01
  1.18683377e+01  1.23468723e+01  1.28471585e+01  1.33528826e+01
  1.38558877e+01  1.43425791e+01  1.48075190e+01  1.52398315e+01
  1.56340787e+01  1.59929797e+01  1.63110964e+01  1.65965858e+01
  1.68467289e+01  1.70696825e+01  1.72736035e+01  1.74584919e+01
  1.76352234e+01  1.78065170e+01  1.79750917e+01  1.81436664e+01
  1.83149601e+01  1.84862537e+01  1.86629852e+01  1.88369978e+01
  1.90110104e+01  1.91850230e+01  1.93535976e+01  1.95167344e+01
  1.96744333e+01  1.98294133e+01  1.99762364e+01  2.01230595e+01
  2.02617258e+01  2.04003921e+01  2.05390583e+01  2.06804436e+01
  2.08218288e+01  2.09686519e+01  2.11236319e+01  2.12867687e+01
  2.14607812e+01  2.16511075e+01  2.18550285e+01  2.20725442e+01
  2.23090926e+01  2.25537978e+01  2.28066598e+01  2.30568029e+01
  2.33042270e+01  2.35326185e+01  2.37392585e+01  2.39159900e+01
  2.40600942e+01  2.41688520e+01  2.42449825e+01  2.42939236e+01
  2.43211130e+01  2.43347078e+01  2.43428646e+01  2.43537404e+01
  2.43727730e+01  2.44135572e+01  2.44760930e+01  2.45658182e+01
  2.46854519e+01  2.48377129e+01  2.50226012e+01  2.52401170e+01
  2.54875411e+01  2.57594358e+01  2.60476441e+01  2.63440093e+01
  2.66376555e+01  2.69177070e+01  2.71678501e+01  2.73772090e+01
  2.75294700e+01  2.76137573e+01  2.76219142e+01  2.75430647e+01
  2.73717711e+01  2.71053143e+01  2.67464134e+01  2.62950682e+01
  2.57594358e+01  2.51449538e+01  2.44652172e+01  2.37338206e+01
  2.29643587e+01  2.21704263e+01  2.13628992e+01  2.05553720e+01
  1.97505638e+01  1.89593504e+01  1.81735748e+01  1.73959561e+01
  1.66128995e+01  1.58244050e+01  1.50168779e+01  1.41875992e+01
  1.33392878e+01  1.24692249e+01  1.15882862e+01  1.07019097e+01
  9.82640886e+00  8.96722174e+00  8.13522409e+00  7.33585380e+00
  6.57182981e+00  5.84043318e+00  5.13350707e+00  4.44561359e+00
  3.76859590e+00  3.09429715e+00  2.41727945e+00  1.73210491e+00
  1.04149248e+00  3.45442162e-01 -3.50608160e-01 -1.04122059e+00
 -1.72095723e+00 -2.38166125e+00 -3.02333264e+00 -3.63781457e+00
 -4.22238808e+00 -4.77433423e+00 -5.29093408e+00 -5.77218762e+00
 -6.21537591e+00 -6.61778001e+00 -6.97668095e+00 -7.28664086e+00
 -7.55037868e+00 -7.76517546e+00 -7.92831225e+00 -8.03707012e+00
 -8.09688694e+00 -8.10504378e+00 -8.06154064e+00 -7.97453435e+00
 -7.84402491e+00 -7.67545022e+00 -7.47152923e+00 -7.24041877e+00
 -6.98755674e+00 -6.71838103e+00 -6.44376743e+00 -6.16643488e+00
 -5.89725917e+00 -5.64167819e+00 -5.39969194e+00 -5.18217622e+00
 -4.98369312e+00 -4.80696159e+00 -4.64654374e+00 -4.49700168e+00
 -4.35017857e+00 -4.19791756e+00 -4.02662392e+00 -3.83085977e+00
 -3.59703037e+00 -3.31969782e+00 -2.99070528e+00 -2.61005276e+00
 -2.17502131e+00 -1.68561093e+00 -1.14997845e+00 -5.70842833e-01
  4.09201459e-02  6.74434697e-01  1.31882503e+00  1.96593432e+00
  2.60216782e+00  3.21664974e+00  3.80394220e+00  4.35588835e+00
  4.87248820e+00  5.34558491e+00  5.78061636e+00  6.18030150e+00]","[-4.41760645 -4.14418226 -3.81658911 -3.43224755 -2.99631651 -2.51653443
 -2.00063971 -1.45379131 -0.8888866  -0.31366399  0.26413809  0.83420176
  1.39136805  1.93047803  2.44637274  2.9390522   3.40335744  3.84444743
  4.26490162  4.66214055  5.04132317  5.40244947  5.7506784   6.08343049
  6.40328522  6.7076631   6.99656414  7.26482939  7.51503833  7.74461148
  7.94838989  8.13153252  8.28888041  8.42043356  8.52619197  8.60615566
  8.6603246   8.68869881  8.68611934  8.65774513  8.59841724  8.50813566
  8.3869004   8.23729093  8.05672778  7.84521095  7.61047885  7.3525315
  7.07394835  6.77730889  6.47035153  6.15565575  5.83322156  5.51336683
  5.19093263  4.87365738  4.56154108  4.25458372  3.95278532  3.65614585
  3.36466534  3.0757643   2.7920222   2.51343906  2.24259433  1.97432908
  1.71896119  1.47133173  1.23917911  1.01992385  0.81872491  0.63558229
  0.46533703  0.31314809  0.16869757  0.03198547 -0.10214715 -0.24143873
 -0.38846872 -0.54323714 -0.71606187 -0.90178396 -1.1029829  -1.31965868
 -1.54665236 -1.78138446 -2.02385497 -2.26374601 -2.50105758 -2.72805126
 -2.93440915 -3.1149723  -3.25684334 -3.35228387 -3.39097597 -3.36518123
 -3.26716124 -3.09433651 -2.84670704 -2.53201127 -2.15540812 -1.72979498
 -1.27322816 -0.79602555 -0.31882293  0.14806178  0.58657229  0.98897017
  1.347517    1.65447435  1.90984224  2.10846171  2.25807117  2.35867064
  2.42315748  2.45411116  2.46442906  2.46442906  2.46184959  2.46700853
  2.48506485  2.52375695  2.58566432  2.67078695  2.77912484  2.91067799
  3.05512851  3.20989692  3.37240376  3.53233112  3.68709954  3.83155006
  3.96568268  4.08691794  4.19525583  4.29327583  4.38871635  4.48415687
  4.58475634  4.69567371]",24.218744689557525,6.983537799605832,3.6778949999999986,-0.7365050000000006
035,1,2,csm,46a.png,1,1,160,314,161,1,1,759,neu_feedback_onset,13,"[ 3.02968824  2.69718897  2.36187191  2.02937265  1.69969117  1.37000969
  1.0459638   0.7219179   0.4006898   0.08227948 -0.23613084 -0.54890557
 -0.85886251 -1.16318388 -1.45623408 -1.73801312 -2.00570321 -2.25648655
 -2.48472758 -2.69042628 -2.87358265 -3.02574333 -3.1525439  -3.24553098
 -3.30752237 -3.33570028 -3.32724691 -3.27934447 -3.19199297 -3.06237461
 -2.8876716  -2.66788395 -2.40301165 -2.0958725  -1.74928428 -1.36606479
 -0.9518496  -0.51790988 -0.07269899  0.37814747  0.82617615  1.26575145
  1.69405559  2.1026352   2.49712585  2.87752756  3.24947589  3.61015306
  3.96801244  4.32305403  4.68091341  5.0387728   5.40226776  5.76858051
  6.14052884  6.51247718  6.89006109  7.267645    7.6508645   8.03408399
  8.42012128  8.80334077  9.18374248  9.55287302  9.90791461 10.24323167
 10.54473524 10.80678975 11.01812403 11.17592029 11.27172516 11.30835644
 11.28581412 11.20973378 11.09420437 10.94486148 10.77861184 10.60390884
 10.43202362 10.27422736 10.13052005 10.00935506  9.90509682  9.82056311
  9.75293614  9.69939812  9.65994905  9.63458894  9.62049999  9.62613557
  9.64867789  9.69939812  9.78111404  9.89946124 10.06289308 10.27422736
 10.54191745 10.86314556 11.23791168 11.66621582 12.13678682 12.64680688
 13.18218706 13.73729177 14.30084985 14.86722572 15.42233043 15.96616397
 16.49027299 16.99465747 17.47649963 17.93861725 18.38101035 18.80367891
 19.21225852 19.60674917 19.99560425 20.37882374 20.75922545 21.13962715
 21.52002885 21.90324835 22.28928563 22.67814071 23.06699578 23.46148644
 23.8559771  24.25046775 24.6477762  25.04508465 25.44521088 25.84251933
 26.23982778 26.63713622 27.03162688 27.42048195 27.80088366 28.1700142
 28.52787358 28.86319064 29.17596537 29.45774442 29.70852776 29.91986204
 30.08892947 30.21291224 30.28617479 30.31153491 30.283357   30.20164108
 30.06920493 29.88041298 29.63526521 29.33657943 28.98153784 28.57295823
 28.10802281 27.59236717 27.0259913  26.41453078 25.75798562 25.06762697
 24.34345484 23.5911048  22.81621244 22.02441334 21.2128897  20.3900949
 19.55039336 18.69660287 17.82872343 16.94675503 16.04787989 15.1349158
 14.21068055 13.27517414 12.33966773 11.40416131 10.47992606  9.56977976
  8.68781137  7.83965645  7.03095061  6.26732941  5.55442844  4.8922477
  4.28924055  3.73977142  3.24384031  2.80144722  2.40977435  2.06600392
  1.77013593  1.51935258  1.31365389  1.15022204  1.02905705  0.95297671
  0.91916323  0.92479881  0.97551904  1.06568833  1.1924889   1.35873853
  1.56161944  1.79549604  2.06318613  2.36187191  2.69155339  3.05504835
  3.44953901  3.88066094  4.34277857  4.84434526  5.37972543  5.95455468
  6.56883298  7.21692478  7.90164784  8.61736661  9.35844548 10.12206668
 10.89977683 11.67748698 12.44674376 13.19627601 13.90917698 14.5798111
 15.19127161 15.74074074 16.21976511 16.62834472 16.96929736 17.24544082
 17.46241068 17.62866031 17.75264309 17.84563017 17.91607493 17.96961295
 18.01469759 18.05414666 18.09641352 18.14431595 18.20067176 18.27111652
 18.35846802 18.46554406 18.59234463 18.74450531 18.91920831 19.11645364
 19.33624129 19.57857127 19.84062577 20.12240482 20.41827281 20.73104754
 21.05509344 21.38759271]","[-7.33888056e-01 -8.45004910e-01 -8.83766603e-01 -8.47589023e-01
 -7.46808621e-01 -5.89177735e-01 -3.87616931e-01 -1.57630885e-01
  8.78598377e-02  3.30766448e-01  5.47831929e-01  7.28719830e-01
  8.50173136e-01  9.04439506e-01  8.76014264e-01  7.62313298e-01
  5.55584268e-01  2.58411287e-01 -1.24037418e-01 -5.86593622e-01
 -1.12150499e+00 -1.71326684e+00 -2.35671094e+00 -3.03374851e+00
 -3.73404310e+00 -4.45242648e+00 -5.17597809e+00 -5.89694558e+00
 -6.61274484e+00 -7.31303943e+00 -7.99266112e+00 -8.65160990e+00
 -9.28213344e+00 -9.87906352e+00 -1.04398160e+01 -1.09592227e+01
 -1.14398677e+01 -1.18765828e+01 -1.22719520e+01 -1.26259755e+01
 -1.29438214e+01 -1.32280738e+01 -1.34839010e+01 -1.37138870e+01
 -1.39232002e+01 -1.41170086e+01 -1.42978965e+01 -1.44658639e+01
 -1.46183265e+01 -1.47578686e+01 -1.48767378e+01 -1.49723500e+01
 -1.50395369e+01 -1.50679622e+01 -1.50550416e+01 -1.49930229e+01
 -1.48793219e+01 -1.47113546e+01 -1.44942891e+01 -1.42307096e+01
 -1.39283684e+01 -1.36001861e+01 -1.32564990e+01 -1.29102279e+01
 -1.25742932e+01 -1.22564474e+01 -1.19618585e+01 -1.16956949e+01
 -1.14579565e+01 -1.12460592e+01 -1.10548349e+01 -1.08791152e+01
 -1.07111479e+01 -1.05483488e+01 -1.03855496e+01 -1.02149982e+01
 -1.00392785e+01 -9.85580650e+00 -9.66458215e+00 -9.46560546e+00
 -9.25887643e+00 -9.04439506e+00 -8.82474546e+00 -8.59475942e+00
 -8.35702103e+00 -8.10377797e+00 -7.83761435e+00 -7.55077782e+00
 -7.24326839e+00 -6.90991783e+00 -6.54814202e+00 -6.15794098e+00
 -5.73931469e+00 -5.29743139e+00 -4.83745930e+00 -4.36456664e+00
 -3.88650576e+00 -3.41361311e+00 -2.95105690e+00 -2.50658949e+00
 -2.08796320e+00 -1.70034627e+00 -1.34115458e+00 -1.01814047e+00
 -7.26135718e-01 -4.62556204e-01 -2.24817820e-01 -7.75233862e-03
  1.93808466e-01  3.90201044e-01  5.86593622e-01  7.88154427e-01
  9.97467569e-01  1.22228539e+00  1.46519200e+00  1.72618740e+00
  2.00268748e+00  2.29986046e+00  2.60995400e+00  2.93555222e+00
  3.27148690e+00  3.61517391e+00  3.96661326e+00  4.32580495e+00
  4.69016487e+00  5.05969301e+00  5.43697349e+00  5.82200631e+00
  6.21479146e+00  6.62049718e+00  7.03395524e+00  7.45774975e+00
  7.89188072e+00  8.33376402e+00  8.77564732e+00  9.21494651e+00
  9.64649336e+00  1.00599514e+01  1.04501525e+01  1.08093442e+01]",27.399982529699496,6.744411548277379,3.5488800000000005,-0.2251499999999993
035,1,2,csp,31b.png,1,1,212,215,206,1,1,537,neg_feedback_onset,14,"[ 5.02297149e+00  4.28776675e+00  3.59064035e+00  2.92866317e+00
  2.29890613e+00  1.70429831e+00  1.14191062e+00  6.08813962e-01
  1.07937429e-01 -3.63648080e-01 -8.00084358e-01 -1.20137141e+00
 -1.56750922e+00 -1.89556871e+00 -2.18262076e+00 -2.42866537e+00
 -2.62784434e+00 -2.78308678e+00 -2.89146357e+00 -2.95004562e+00
 -2.96469113e+00 -2.93540011e+00 -2.85924344e+00 -2.74500844e+00
 -2.59269511e+00 -2.40523255e+00 -2.18847896e+00 -1.94243435e+00
 -1.67295691e+00 -1.38297576e+00 -1.07249089e+00 -7.47360512e-01
 -4.07584618e-01 -5.31632111e-02  3.15903709e-01  6.99616141e-01
  1.09797409e+00  1.51097754e+00  1.94155562e+00  2.38677920e+00
  2.84957740e+00  3.32995022e+00  3.82203945e+00  4.32877419e+00
  4.84722533e+00  5.36860559e+00  5.89584404e+00  6.41722429e+00
  6.93274634e+00  7.43362288e+00  7.91985390e+00  8.38851030e+00
  8.83666299e+00  9.26431196e+00  9.67438632e+00  1.00668861e+01
  1.04535276e+01  1.08343109e+01  1.12209525e+01  1.16163813e+01
  1.20264557e+01  1.24570337e+01  1.29110446e+01  1.33884883e+01
  1.38893649e+01  1.44107451e+01  1.49467709e+01  1.54915840e+01
  1.60422552e+01  1.65899974e+01  1.71260232e+01  1.76444743e+01
  1.81365635e+01  1.86052200e+01  1.90357980e+01  1.94312269e+01
  1.97885774e+01  2.01049205e+01  2.03831852e+01  2.06233716e+01
  2.08254797e+01  2.10012258e+01  2.11476810e+01  2.12765615e+01
  2.13966547e+01  2.15138188e+01  2.16368411e+01  2.17745089e+01
  2.19356095e+01  2.21260012e+01  2.23515421e+01  2.26180904e+01
  2.29227171e+01  2.32683512e+01  2.36491345e+01  2.40562798e+01
  2.44897870e+01  2.49320814e+01  2.53773050e+01  2.58195995e+01
  2.62443194e+01  2.66456064e+01  2.70234606e+01  2.73690947e+01
  2.76854378e+01  2.79724899e+01  2.82361091e+01  2.84762955e+01
  2.87018364e+01  2.89127318e+01  2.91177690e+01  2.93228061e+01
  2.95278433e+01  2.97358096e+01  2.99554923e+01  3.01839623e+01
  3.04241487e+01  3.06701933e+01  3.09250252e+01  3.11827863e+01
  3.14317600e+01  3.16719464e+01  3.18887000e+01  3.20790916e+01
  3.22314050e+01  3.23427109e+01  3.24130093e+01  3.24393712e+01
  3.24247257e+01  3.23807892e+01  3.23104907e+01  3.22284759e+01
  3.21435319e+01  3.20644461e+01  3.20000059e+01  3.19589984e+01
  3.19443529e+01  3.19589984e+01  3.20029350e+01  3.20732334e+01
  3.21669647e+01  3.22782706e+01  3.24042220e+01  3.25418898e+01
  3.26824867e+01  3.28260128e+01  3.29695388e+01  3.31101357e+01
  3.32478035e+01  3.33796132e+01  3.35055646e+01  3.36168705e+01
  3.37106017e+01  3.37750420e+01  3.38072621e+01  3.37926166e+01
  3.37223182e+01  3.35817212e+01  3.33591094e+01  3.30515537e+01
  3.26531957e+01  3.21581774e+01  3.15723569e+01  3.09015924e+01
  3.01576004e+01  2.93520972e+01  2.85026574e+01  2.76239267e+01
  2.67334795e+01  2.58430323e+01  2.49643016e+01  2.41119327e+01
  2.32859258e+01  2.24921390e+01  2.17276433e+01  2.09924385e+01
  2.02777375e+01  1.95806111e+01  1.88922720e+01  1.82127202e+01
  1.75331684e+01  1.68506875e+01  1.61711357e+01  1.54886549e+01
  1.48091031e+01  1.41383386e+01  1.34792905e+01  1.28319589e+01
  1.22051309e+01  1.15988067e+01  1.10100571e+01  1.04388821e+01
  9.87649439e+00  9.32582311e+00  8.77515184e+00  8.22155146e+00
  7.65916377e+00  7.08798878e+00  6.50509737e+00  5.91048956e+00
  5.31295264e+00  4.71541572e+00  4.12373701e+00  3.54963291e+00
  2.99310343e+00  2.46586497e+00  1.97377574e+00  1.51976485e+00
  1.10676139e+00  7.34765372e-01  4.09634990e-01  1.25512044e-01
 -1.17603467e-01 -3.19711542e-01 -4.80812182e-01 -6.06763591e-01
 -6.97565769e-01 -7.53218718e-01 -7.76651538e-01 -7.70793333e-01
 -7.35644102e-01 -6.77062052e-01 -5.95047181e-01 -4.95457694e-01
 -3.81222695e-01 -2.55271286e-01 -1.20532569e-01  2.00643524e-02
  1.66519479e-01  3.12974606e-01  4.62358836e-01  6.11743065e-01
  7.61127294e-01  9.07582421e-01  1.05403755e+00  1.20049268e+00
  1.34401870e+00  1.48754472e+00  1.62814165e+00  1.77166767e+00
  1.91519369e+00  2.06164882e+00  2.21396215e+00  2.37213369e+00
  2.54495074e+00  2.73534240e+00  2.94330868e+00  3.17470779e+00
  3.43539791e+00  3.72537906e+00  4.04758034e+00  4.39907265e+00
  4.78571418e+00  5.19871764e+00  5.63515392e+00  6.09795212e+00
  6.57539583e+00  7.06748506e+00  7.57129069e+00  8.07802543e+00]","[ -3.3773351   -2.96655527  -2.55335909  -2.13533021  -1.71730132
  -1.30168879  -0.89332531  -0.49945995  -0.11767634   0.23994375
   0.57340031   0.87786066   1.14849208   1.38529457   1.58585178
   1.75258006   1.88306306   1.97971714   2.047375     2.08845298
   2.10536744   2.10053474   2.07395487   2.03046053   1.97005173
   1.88789577   1.78640899   1.65834233   1.50369581   1.32005306
   1.10258139   0.85128079   0.56615126   0.24960916  -0.09834552
  -0.47046372  -0.86432909  -1.27510892  -1.6931378   -2.11599939
  -2.54127733  -2.96655527  -3.38941686  -3.8098621   -4.23514004
  -4.66041798  -5.09536133  -5.53997009  -5.99424425  -6.45818382
  -6.93420515  -7.41505919  -7.89832958  -8.38159996  -8.86003765
  -9.32880992  -9.78308409 -10.22527649 -10.65055443 -11.06133426
 -11.45519963 -11.83215053 -12.18977062 -12.53289259 -12.8542674
 -13.15631139 -13.43419186 -13.68549246 -13.91262955 -14.11077041
 -14.28233139 -14.42731251 -14.55054646 -14.65203324 -14.73418921
 -14.80426341 -14.86225586 -14.90816654 -14.94199547 -14.96615899
 -14.97340805 -14.96615899 -14.93716277 -14.88641938 -14.80909612
 -14.70519298 -14.56987727 -14.40798169 -14.21950624 -14.00203457
 -13.76281573 -13.50426607 -13.2263856  -12.93159066 -12.62229761
 -12.3009228  -11.96504989 -11.61467885 -11.25464242 -10.87769151
 -10.4910752  -10.08996078  -9.68159731  -9.26598477  -8.85037224
  -8.43717606  -8.02881258  -7.63494721  -7.25799631  -6.90279258
  -6.56691966  -6.25521026  -5.96283167  -5.68736755  -5.42640154
  -5.17268459  -4.91896764  -4.66283433  -4.39703562  -4.11432244
  -3.8146948   -3.49573635  -3.15503072  -2.79499429  -2.41562703
  -2.02417802  -1.62064724  -1.21228377  -0.79908759  -0.3858914
   0.02488842   0.43083555   0.83194997   1.22339899   1.60759894
   1.98213349   2.34458628   2.69737367   3.03807929   3.36187045]",31.14551342041555,-0.3947513614129508,3.414015,-0.42038500000000134
035,2,2,csp,10b.png,1,1,132,85,NaN,0,1,372,neg_feedback_onset,1,"[ -1.21432543  -1.04788246  -0.89737551  -0.76103393  -0.63708704
  -0.52022282  -0.40689995  -0.29534774  -0.18202487  -0.06338998
   0.05878624   0.18627448   0.31376271   0.44125094   0.56519784
   0.68383272   0.79538493   0.89808378   0.99547063   1.08754546
   1.17607896   1.26461245   1.35668729   1.45053279   1.54969031
   1.65238916   1.75508802   1.85778688   1.95694439   2.04901923
   2.13047004   2.20129684   2.25972895   2.30753703   2.34649177
   2.37836383   2.40669455   2.43502527   2.46512666   2.49699871
   2.53064144   2.56428417   2.59261489   2.61032159   2.61209226
   2.59261489   2.54303613   2.45981465   2.33940909   2.1800488
   1.98527511   1.75508802   1.49657021   1.21680437   0.92287316
   0.62362994   0.32792807   0.04107954  -0.22629162  -0.47241473
  -0.69374847  -0.88852216  -1.05496514  -1.1983894   -1.31702428
  -1.4161818   -1.50117395  -1.57200075  -1.63751554  -1.69771831
  -1.75615042  -1.81812387  -1.88186799  -1.94915344  -2.02352158
  -2.10143106  -2.18288187  -2.2696447   -2.35994886  -2.45556504
  -2.55649322  -2.66450409  -2.78313897  -2.91416855  -3.06113415
  -3.22757712  -3.41526813  -3.62420718  -3.8526236   -4.10051739
  -4.36080587  -4.62640635  -4.89200684  -5.15052465  -5.39133576
  -5.61089883  -5.80390185  -5.96503281  -6.09606238  -6.19699057
  -6.26958804  -6.31916679  -6.34572684  -6.35635086  -6.35458019
  -6.3421855   -6.31916679  -6.28906541  -6.24834     -6.19699057
  -6.13147578  -6.05356631  -5.9597208   -5.8481686   -5.71890969
  -5.57194409  -5.40727179  -5.22843413  -5.03543111  -4.83180406
  -4.61755301  -4.39798994  -4.17488553  -3.95178112  -3.72867671
  -3.51442565  -3.30725727  -3.11425425  -2.93718726  -2.77959763
  -2.64325605  -2.52816251  -2.43785834  -2.36703154  -2.31568212
  -2.27849805  -2.251938    -2.23068996  -2.21121259  -2.18819388
  -2.15809249  -2.12090842  -2.07132967  -2.01112689  -1.94384143
  -1.86770263  -1.78802248  -1.70657166  -1.62512085  -1.54721137
  -1.47638458  -1.41441113  -1.3630617   -1.32587763  -1.30640026
  -1.30462959  -1.32233629  -1.36129103  -1.42149381  -1.49940328
  -1.59324879  -1.70125965  -1.81812387  -1.94030009  -2.06070565
  -2.17579919  -2.28026872  -2.37234355  -2.45025303  -2.51045581
  -2.55649322  -2.58836528  -2.60961332  -2.62200801  -2.63086136
  -2.63794404  -2.64856806  -2.66273342  -2.68575213  -2.71585352
  -2.75657892  -2.80261634  -2.85750711  -2.91593922  -2.97437132
  -3.03280343  -3.08238219  -3.1231076   -3.14966765  -3.16029166
  -3.15143832  -3.1231076   -3.07529951  -3.00978472  -2.92656324
  -2.83271773  -2.73178955  -2.62909069  -2.52993317  -2.44494102
  -2.37765556  -2.33693015  -2.32984747  -2.36526087  -2.44494102
  -2.57774126  -2.7636616   -3.00624338  -3.30371593  -3.65607924
  -4.05625064  -4.50068879  -4.98231101  -5.49049327  -6.01815291
  -6.55820723  -7.10003223  -7.63831588  -8.16420485  -8.67769912
  -9.16994536  -9.64094355 -10.08892304 -10.51388382 -10.91405522
 -11.29120792 -11.64711257 -11.98353985 -12.2987191  -12.59796231
 -12.8812695  -13.14864066 -13.40184645 -13.64265756 -13.87107398
 -14.08709571 -14.28895208 -14.47841376 -14.65371008 -14.81307038
 -14.95472397 -15.07690019 -15.17782838 -15.25573786 -15.30708728
 -15.33187666 -15.32656465 -15.29292192 -15.23094848 -15.13887364
 -15.02200943 -14.88035583 -14.72276621 -14.54924056 -14.36863223
 -14.18448256 -14.00033289 -13.82326589 -13.65328158 -13.49392129]","[-1.56963197 -1.48048605 -1.36668276 -1.2301188  -1.07269091 -0.89819252
 -0.70852036 -0.50746787 -0.29882849 -0.08639567  0.12414043  0.32898636
  0.52814213  0.71781429  0.8942094   1.05732746  1.20716847  1.33993898
  1.45943244  1.56185541  1.65100133  1.72307675  1.7799784   1.82170627
  1.84636365  1.85395054  1.84446693  1.81601611  1.76670135  1.69841937
  1.60737673  1.4992636   1.37028653  1.22613569  1.06681107  0.89610613
  0.71781429  0.53762574  0.35933391  0.18483552  0.02171746 -0.13002027
 -0.26658422 -0.38418096 -0.48281049 -0.56247279 -0.61937444 -0.6592056
 -0.67817281 -0.68006953 -0.66489576 -0.63265149 -0.58713017 -0.53022853
 -0.46004983 -0.38038752 -0.29313833 -0.20019897 -0.09967272  0.00464697
  0.11465682  0.22466667  0.34036669  0.45606671  0.57176673  0.68746675
  0.80316677  0.91697006  1.02697992  1.12940288  1.22613569  1.31338488
  1.38925374  1.45374228  1.50685048  1.54857836  1.57892591  1.59789312
  1.60737673  1.61117017  1.60927345  1.60548001  1.59978984  1.5959964
  1.59220296  1.59409968  1.59789312  1.60737673  1.6225505   1.64151772
  1.6661751   1.69652265  1.73445708  1.77808167  1.82929316  1.88809153
  1.95637351  2.03224237  2.11569812  2.20863748  2.307267    2.41158669
  2.51969982  2.62970968  2.73782281  2.8421425   2.94266874  3.03750482
  3.1228573   3.2025196   3.27649175  3.342877    3.40546882  3.46616391
  3.526859    3.58945081  3.65393935  3.72411805  3.79429675  3.87016561
  3.9479312   4.02380006  4.09966893  4.17364107  4.24002633  4.30072142
  4.35382962  4.39745422  4.43159521  4.45625259  4.47332308  4.48280669
  4.48470341  4.48280669  4.47711653  4.47142636  4.4657362   4.46004603
  4.45435587  4.45056243]",1.57771116124075,4.148509508739631,5.64758,
035,2,2,csm,32a.png,1,1,272,315,269,1,1,573,neu_feedback_onset,2,"[ 1.57875017e-01  1.54237344e-01  1.46961997e-01  1.36048978e-01
  1.19679448e-01  9.78534090e-02  7.05708601e-02  3.78318013e-02
  1.45506928e-03 -3.49216627e-02 -7.12983947e-02 -1.04037453e-01
 -1.29501166e-01 -1.44051859e-01 -1.47689532e-01 -1.36776512e-01
 -1.11312800e-01 -7.12983947e-02 -1.85521333e-02  4.69259843e-02
  1.21498285e-01  1.99708259e-01  2.81555906e-01  3.59765879e-01
  4.32519343e-01  4.94359788e-01  5.43468376e-01  5.76207435e-01
  5.90758127e-01  5.85301618e-01  5.63475578e-01  5.25280010e-01
  4.70714912e-01  4.01599121e-01  3.16113801e-01  2.17896625e-01
  9.96722456e-02 -4.03781725e-02 -2.05892303e-01 -4.05964329e-01
 -6.44231923e-01 -9.24332760e-01 -1.25354218e+00 -1.62822252e+00
 -2.05019261e+00 -2.51581478e+00 -3.01599485e+00 -3.54709514e+00
 -4.09456495e+00 -4.65294779e+00 -5.20769295e+00 -5.74970626e+00
 -6.27171236e+00 -6.76279824e+00 -7.21932623e+00 -7.63402097e+00
 -8.00506364e+00 -8.32699772e+00 -8.60346088e+00 -8.83081546e+00
 -9.01451795e+00 -9.15638721e+00 -9.25824206e+00 -9.32735785e+00
 -9.36737225e+00 -9.38010411e+00 -9.37100993e+00 -9.34008971e+00
 -9.29098112e+00 -9.22186533e+00 -9.13092350e+00 -9.01997446e+00
 -8.88538056e+00 -8.72896061e+00 -8.55435229e+00 -8.36337445e+00
 -8.16694010e+00 -7.97232458e+00 -7.79225976e+00 -7.63947748e+00
 -7.52670962e+00 -7.46305033e+00 -7.45577499e+00 -7.50852125e+00
 -7.61947028e+00 -7.78680325e+00 -8.00142597e+00 -8.25060658e+00
 -8.52525091e+00 -8.81262709e+00 -9.10000327e+00 -9.37828527e+00
 -9.63837891e+00 -9.87846534e+00 -1.00930881e+01 -1.02804282e+01
 -1.04423047e+01 -1.05823551e+01 -1.07005795e+01 -1.08006155e+01
 -1.08879197e+01 -1.09624920e+01 -1.10297889e+01 -1.10898105e+01
 -1.11461944e+01 -1.11989407e+01 -1.12462305e+01 -1.12862449e+01
 -1.13171651e+01 -1.13371723e+01 -1.13389911e+01 -1.13189839e+01
 -1.12716942e+01 -1.11971219e+01 -1.10916294e+01 -1.09533978e+01
 -1.07878836e+01 -1.05950870e+01 -1.03822831e+01 -1.01567473e+01
 -9.92393625e+00 -9.69294401e+00 -9.46740827e+00 -9.25096671e+00
 -9.04907585e+00 -8.86173568e+00 -8.68894620e+00 -8.52525091e+00
 -8.37246863e+00 -8.22696171e+00 -8.08509245e+00 -7.94504203e+00
 -7.80681045e+00 -7.67039771e+00 -7.53580380e+00 -7.40120989e+00
 -7.26843482e+00 -7.13747858e+00 -7.00652235e+00 -6.87374728e+00
 -6.73915337e+00 -6.59910295e+00 -6.45177719e+00 -6.30081375e+00
 -6.14257496e+00 -5.98433618e+00 -5.82609740e+00 -5.67513396e+00
 -5.53508354e+00 -5.41322149e+00 -5.31682315e+00 -5.24770736e+00
 -5.21314946e+00 -5.21314946e+00 -5.24952619e+00 -5.32227966e+00
 -5.42595334e+00 -5.55872841e+00 -5.71514836e+00 -5.88793784e+00
 -6.06800266e+00 -6.25170516e+00 -6.42995115e+00 -6.59728411e+00
 -6.74824755e+00 -6.87920379e+00 -6.98651515e+00 -7.07200047e+00
 -7.13384091e+00 -7.17931182e+00 -7.20841321e+00 -7.23023925e+00
 -7.24842762e+00 -7.27207249e+00 -7.30663039e+00 -7.35755781e+00
 -7.43031128e+00 -7.52670962e+00 -7.64675283e+00 -7.79407860e+00
 -7.96504924e+00 -8.15784592e+00 -8.37246863e+00 -8.60346088e+00
 -8.85082266e+00 -9.11091629e+00 -9.38374178e+00 -9.66384262e+00
 -9.95121880e+00 -1.02422327e+01 -1.05368842e+01 -1.08315357e+01
 -1.11207307e+01 -1.14026504e+01 -1.16754759e+01 -1.19337507e+01
 -1.21774748e+01 -1.24030105e+01 -1.26085391e+01 -1.27958792e+01
 -1.29632122e+01 -1.31105380e+01 -1.32396754e+01 -1.33506244e+01
 -1.34433851e+01 -1.35197762e+01 -1.35797978e+01 -1.36252687e+01
 -1.36525513e+01 -1.36652831e+01 -1.36616455e+01 -1.36416383e+01
 -1.36052615e+01 -1.35525153e+01 -1.34815806e+01 -1.33942765e+01
 -1.32887840e+01 -1.31651031e+01 -1.30214150e+01 -1.28595385e+01
 -1.26776549e+01 -1.24794017e+01 -1.22665978e+01 -1.20392432e+01
 -1.18046133e+01 -1.15627080e+01 -1.13189839e+01 -1.10770787e+01
 -1.08424487e+01 -1.06132753e+01 -1.03931961e+01 -1.01785734e+01
 -9.97122600e+00 -9.76569747e+00 -9.55835010e+00 -9.34736505e+00
 -9.12546699e+00 -8.89265590e+00 -8.64711296e+00 -8.38701933e+00
 -8.11601267e+00 -7.83409300e+00 -7.54489798e+00 -7.25388413e+00
 -6.96105143e+00 -6.67367525e+00 -6.39357441e+00 -6.12256776e+00
 -5.86247413e+00 -5.61693119e+00 -5.38593894e+00 -5.17313506e+00
 -4.98033838e+00 -4.80936774e+00 -4.66386081e+00 -4.54563643e+00
 -4.46015111e+00 -4.40558601e+00 -4.38557881e+00 -4.39649183e+00]","[-1.11775992 -1.03912749 -0.95852926 -0.8739994  -0.7816063  -0.68134996
 -0.57126457 -0.44938431 -0.31570919 -0.17220501 -0.02083759  0.13839307
  0.30155535  0.46864925  0.63377734  0.79497382  0.95223867  1.09967446
  1.23531539  1.35719565  1.46531524  1.55574253  1.62651171  1.6795886
  1.71497319  1.73069967  1.72873386  1.70907575  1.67369116  1.62258009
  1.55377672  1.46924686  1.36702471  1.24907607  1.11540095  0.96796515
  0.80676868  0.63770897  0.46275182  0.28582886  0.11087172 -0.05622218
 -0.21545284 -0.36092283 -0.49066633 -0.60468335 -0.70297388 -0.78553792
 -0.85237549 -0.90545237 -0.94476858 -0.97228993 -0.99194804 -1.00570871
 -1.01160615 -1.01750358 -1.0214352  -1.02340101 -1.02733263 -1.03126425
 -1.03519587 -1.03716168 -1.03519587 -1.02929844 -1.01553777 -0.99391385
 -0.96442669 -0.92511048 -0.87596521 -0.8189567  -0.75408495 -0.68134996
 -0.60075173 -0.51622187 -0.42776039 -0.33143567 -0.23314514 -0.12895718
 -0.0228034   0.08728199  0.20129901  0.31335021  0.42540142  0.53548681
  0.63770897  0.73206788  0.81856354  0.89326435  0.95617029  1.00728136
  1.04856339  1.08001636  1.10557189  1.12523     1.14488811  1.1625804
  1.18420432  1.20779405  1.23531539  1.26480255  1.29428971  1.32181106
  1.34146917  1.34933241  1.34343498  1.31591363  1.26283674  1.1802727
  1.06625568  0.91685407  0.73010206  0.50993128  0.25437589 -0.03263246
 -0.34912797 -0.6892132  -1.05092236 -1.42639219 -1.81365688 -2.20485319
 -2.59604951 -2.97938258 -3.35092079 -3.70083508 -4.02715964 -4.32203123
 -4.57955242 -4.79579159 -4.96878293 -5.09459481 -5.17322723 -5.2046802
 -5.19681696 -5.1496375  -5.06903927 -4.96485131 -4.84100524 -4.7053643
 -4.56382594 -4.42228757]",-0.2593206281534142,0.754527261861693,5.49802,0.5323199999999995
035,2,2,csm,45a.png,1,0,332,NaN,334,1,1,384,neu_feedback_onset,3,"[ -1.07321072  -0.97173918  -0.85435054  -0.7210448   -0.57381159
  -0.42060947  -0.26143843  -0.10226739   0.04894509   0.18821975
   0.31157731   0.41503848   0.494624     0.55033386   0.57818879
   0.58017843   0.55630278   0.50457219   0.42697631   0.32351513
   0.19219903   0.03103835  -0.15996689  -0.38081671  -0.63350073
  -0.91801896  -1.23238176  -1.57459949  -1.94069287  -2.32867227
  -2.73057914  -3.1424342   -3.56224781  -3.9860407   -4.41381286
  -4.84357466  -5.2753261   -5.71503609  -6.160715    -6.61833173
  -7.08390701  -7.56340976  -8.04888143  -8.54231164  -9.03773149
  -9.52917207 -10.01464374 -10.48817757 -10.94778394 -11.38948357
 -11.81327646 -12.2191626  -12.60913164 -12.98318358 -13.34728733
 -13.69945325 -14.04167098 -14.37791979 -14.70223078 -15.01858322
 -15.31901855 -15.60552642 -15.87014827 -16.10890482 -16.31980645
 -16.5008635  -16.65207599 -16.7734439  -16.86894653 -16.94455277
 -17.00623155 -17.05995177 -17.11566163 -17.17336114 -17.23702955
 -17.31064615 -17.39023167 -17.47777574 -17.56730945 -17.66082244
 -17.75234578 -17.84386913 -17.92942356 -18.01099872 -18.08660496
 -18.15027338 -18.20001433 -18.23184853 -18.23980708 -18.21792107
 -18.1622112  -18.06471894 -17.92146501 -17.7324494  -17.49369285
 -17.20718498 -16.88088435 -16.52075988 -16.13477012 -15.73087361
 -15.32299783 -14.91910132 -14.525153   -14.15110107 -13.79893515
 -13.47064488 -13.16623027 -12.88370168 -12.61907983 -12.36838545
 -12.12564962 -11.88490342 -11.63818832 -11.38351466 -11.11491353
 -10.82840566 -10.52797033 -10.21360753  -9.88531727  -9.55304773
  -9.21878855  -8.88850865  -8.56817693  -8.25978305  -7.96531663
  -7.68676732  -7.41816619  -7.15951325  -6.9048396   -6.65414521
  -6.40345083  -6.15076681  -5.89609315  -5.64141949  -5.3907251
  -5.14401     -4.90525344  -4.67445544  -4.45360562  -4.242704
  -4.03976093  -3.8447764   -3.6557608   -3.4727141   -3.29563633
  -3.12452746  -2.95938751  -2.80021647  -2.65099363  -2.50972933
  -2.3823925   -2.2669935   -2.17149088  -2.09588463  -2.04813332
  -2.03420586  -2.05808151  -2.1257292   -2.24311784  -2.41422671
  -2.64104544  -2.91959475  -3.24589538  -3.61795768  -4.02583346
  -4.45957454  -4.91122235  -5.37281836  -5.83839365  -6.30396893
  -6.7635753   -7.21522312  -7.65692275  -8.09066382  -8.51047743
  -8.92034285  -9.31230153  -9.68635347 -10.03652975 -10.36283038
 -10.66127607 -10.9298772  -11.16664412 -11.37356647 -11.55263388
 -11.70384637 -11.82521428 -11.92071691 -11.98637496 -12.0201988
 -12.01621953 -11.97443713 -11.88689306 -11.75159768 -11.56855099
 -11.33576334 -11.05920367 -10.74086159 -10.38869567 -10.0126541
  -9.62069542  -9.22077819  -8.82484023  -8.43686083  -8.06877781
  -7.72457044  -7.408218    -7.12568941  -6.87698466  -6.66608304
  -6.48900526  -6.34774097  -6.23831088  -6.15474608  -6.09306731
  -6.04730563  -6.00950251  -5.97567867  -5.93986518  -5.89410351
  -5.84038328  -5.77671487  -5.70309826  -5.62152311  -5.53795831
  -5.45439352  -5.37878728  -5.31113959  -5.25741936  -5.2176266
  -5.19176131  -5.18181312  -5.18181312  -5.19574058  -5.2176266
  -5.24548153  -5.27930538  -5.31909814  -5.3588909   -5.40067329
  -5.44046605  -5.47627954  -5.50015519  -5.50811374  -5.49816555
  -5.45837279  -5.38873547  -5.28129502  -5.13804108  -4.95698403
  -4.74409276  -4.50732585  -4.25265219  -3.99200961  -3.73733595
  -3.4985794   -3.28568814  -3.10662072  -2.96336679  -2.85592634]","[-1.792731   -1.69834433 -1.5752313  -1.42954754 -1.25924117 -1.07046785
 -0.86733134 -0.65188353 -0.42617629 -0.19226152  0.0478089   0.2899312
  0.53615727  0.78238335  1.02450565  1.2604723   1.48207577  1.68316039
  1.85757053  1.99915052  2.09764095  2.15304182  2.16124935  2.12226356
  2.0401882   1.92323081  1.77959894  1.61544822  1.44514186  1.27278361
  1.10658101  0.9547416   0.81521349  0.69004857  0.57719495  0.47460075
  0.37611033  0.27967178  0.18323324  0.08063904 -0.02400704 -0.13480877
 -0.24971428 -0.36667166 -0.48568093 -0.60674208 -0.72780323 -0.85091627
 -0.97197742 -1.09303857 -1.21204784 -1.33310899 -1.45417015 -1.57317941
 -1.69424057 -1.81324984 -1.9322591  -2.05332026 -2.17232952 -2.29339068
 -2.41239995 -2.53140921 -2.65247037 -2.77147963 -2.89254079 -3.01155005
 -3.13055932 -3.25162048 -3.37062974 -3.48963901 -3.61070016 -3.72970943
 -3.85077059 -3.96977985 -4.08878912 -4.20985027 -4.32885954 -4.44786881
 -4.56892996 -4.68999112 -4.81310415 -4.93826907 -5.06548588 -5.19680645
 -5.33223079 -5.4717589  -5.61333889 -5.75697076 -5.90265452 -6.04833828
 -6.18991827 -6.3273945  -6.46076695 -6.58798376 -6.70699303 -6.81984664
 -6.92449272 -7.02298315 -7.11326605 -7.19123763 -7.25689792 -7.30614314
 -7.33486951 -7.33486951 -7.29998748 -7.22611966 -7.10711039 -6.93680403
 -6.71520056 -6.44024811 -6.12015422 -5.75697076 -5.35890528 -4.94032096
 -4.50737344 -4.07237405 -3.64558219 -3.23110164 -2.83713992 -2.46369704
 -2.11282489 -1.78041969 -1.46648145 -1.16485451 -0.87348699 -0.59032701
 -0.31332268 -0.04657777  0.20990773  0.45408192  0.67773726  0.87677001
  1.05118014  1.19481202  1.30561375  1.38768911  1.43898621  1.46771258
  1.47386823  1.46360881]",-0.7651579147229799,0.687022039285333,5.02604,-0.39735999999999905
035,2,2,csp,48b.png,1,1,192,30,199,1,1,388,pos_feedback_onset,4,"[-1.61908096e-01 -1.15727806e-01 -6.95475163e-02 -2.15200150e-02
  2.65074863e-02  7.45349876e-02  1.17020854e-01  1.52117874e-01
  1.77978836e-01  1.87214894e-01  1.81673260e-01  1.59506721e-01
  1.18868066e-01  6.71461412e-02  4.34094723e-03 -6.40058815e-02
 -1.30505499e-01 -1.91463481e-01 -2.39490982e-01 -2.72740791e-01
 -2.85671272e-01 -2.78282426e-01 -2.50574252e-01 -2.00699539e-01
 -1.32352710e-01 -4.55337656e-02  5.60628717e-02  1.66895567e-01
  2.85117109e-01  4.03338650e-01  5.16018557e-01  6.15767983e-01
  6.95198081e-01  7.50614429e-01  7.74628179e-01  7.61697698e-01
  7.11822985e-01  6.23156829e-01  4.97546441e-01  3.40533456e-01
  1.57659509e-01 -4.55337656e-02 -2.61657521e-01 -4.83322912e-01
 -7.03141091e-01 -9.15570424e-01 -1.11876370e+00 -1.30717928e+00
 -1.48081717e+00 -1.64337179e+00 -1.79299593e+00 -1.93892564e+00
 -2.08485536e+00 -2.23817392e+00 -2.40996460e+00 -2.60576903e+00
 -2.84036490e+00 -3.12298827e+00 -3.46287520e+00 -3.86741454e+00
 -4.34214792e+00 -4.88707534e+00 -5.50589122e+00 -6.19120672e+00
 -6.93378578e+00 -7.72439234e+00 -8.55009592e+00 -9.39611882e+00
 -1.02476834e+01 -1.10937063e+01 -1.19175626e+01 -1.27118636e+01
 -1.34692204e+01 -1.41840913e+01 -1.48509346e+01 -1.54679033e+01
 -1.60386917e+01 -1.65614526e+01 -1.70417276e+01 -1.74813639e+01
 -1.78859033e+01 -1.82590400e+01 -1.86044686e+01 -1.89277306e+01
 -1.92306733e+01 -1.95151439e+01 -1.97811424e+01 -2.00249743e+01
 -2.02429453e+01 -2.04295136e+01 -2.05772906e+01 -2.06807344e+01
 -2.07287619e+01 -2.07158314e+01 -2.06400958e+01 -2.05015549e+01
 -2.03020560e+01 -2.00489881e+01 -1.97552814e+01 -1.94320194e+01
 -1.90958269e+01 -1.87596344e+01 -1.84419140e+01 -1.81482073e+01
 -1.78914449e+01 -1.76753212e+01 -1.74998361e+01 -1.73686840e+01
 -1.72781707e+01 -1.72264487e+01 -1.72098238e+01 -1.72264487e+01
 -1.72763235e+01 -1.73576008e+01 -1.74739751e+01 -1.76254464e+01
 -1.78101676e+01 -1.80336802e+01 -1.82904426e+01 -1.85823021e+01
 -1.89018697e+01 -1.92472982e+01 -1.96075045e+01 -1.99806412e+01
 -2.03537780e+01 -2.07232203e+01 -2.10797321e+01 -2.14196190e+01
 -2.17354922e+01 -2.20236572e+01 -2.22859613e+01 -2.25168627e+01
 -2.27182088e+01 -2.28918467e+01 -2.30359292e+01 -2.31541507e+01
 -2.32465113e+01 -2.33167054e+01 -2.33610384e+01 -2.33850522e+01
 -2.33832050e+01 -2.33610384e+01 -2.33148581e+01 -2.32465113e+01
 -2.31559979e+01 -2.30451652e+01 -2.29158604e+01 -2.27754724e+01
 -2.26276954e+01 -2.24780713e+01 -2.23339888e+01 -2.22046840e+01
 -2.20975457e+01 -2.20199628e+01 -2.19756297e+01 -2.19682409e+01
 -2.19996435e+01 -2.20698375e+01 -2.21751286e+01 -2.23136695e+01
 -2.24817657e+01 -2.26757229e+01 -2.28899995e+01 -2.31209009e+01
 -2.33702745e+01 -2.36325785e+01 -2.39096603e+01 -2.42015197e+01
 -2.45044624e+01 -2.48203356e+01 -2.51435976e+01 -2.54724013e+01
 -2.58012049e+01 -2.61207725e+01 -2.64255625e+01 -2.67044914e+01
 -2.69483233e+01 -2.71533638e+01 -2.73066824e+01 -2.74064318e+01
 -2.74470705e+01 -2.74267511e+01 -2.73473210e+01 -2.72087802e+01
 -2.70166702e+01 -2.67765327e+01 -2.64920621e+01 -2.61706473e+01
 -2.58159826e+01 -2.54373043e+01 -2.50364593e+01 -2.46171423e+01
 -2.41848948e+01 -2.37415640e+01 -2.32889972e+01 -2.28327359e+01
