sub,run,cat_cond,trial_type,picture,old,response_old,target_pos,response_pos,dot_resp_loc,cat_corr,TN_corr,TN_rt,feedback_type,trial,SP_timeseries,FB_timeseries,SP_peak_response,FB_peak_response,preStim_bl,anticipation
054,1,2,csm,38a.png,1,1,224,NaN,238,1,1,516,neu_feedback_onset,1,"[-4.60685213e-01 -3.00946929e-01 -1.47598175e-01 -8.62586738e-03
  1.12775229e-01  2.08618200e-01  2.75708280e-01  3.14045468e-01
  3.23629765e-01  3.06058554e-01  2.66123982e-01  2.08618200e-01
  1.38333355e-01  6.32563608e-02 -1.50153988e-02 -9.32871583e-02
 -1.73156301e-01 -2.53025443e-01 -3.37686734e-01 -4.27140174e-01
 -5.26177910e-01 -6.34799944e-01 -7.51408892e-01 -8.72809988e-01
 -9.92613702e-01 -1.10283312e+00 -1.19707871e+00 -1.26576617e+00
 -1.30250597e+00 -1.30729812e+00 -1.27535047e+00 -1.21624730e+00
 -1.13478078e+00 -1.04213257e+00 -9.51081748e-01 -8.71212605e-01
 -8.16901588e-01 -7.94538229e-01 -8.08914674e-01 -8.61628308e-01
 -9.49484365e-01 -1.06769070e+00 -1.21145515e+00 -1.37758297e+00
 -1.56128200e+00 -1.76255223e+00 -1.98618583e+00 -2.24176709e+00
 -2.53568553e+00 -2.88072023e+00 -3.28645547e+00 -3.75448865e+00
 -4.28641713e+00 -4.86786449e+00 -5.48285689e+00 -6.10423882e+00
 -6.70645215e+00 -7.25595185e+00 -7.73197194e+00 -8.11214905e+00
 -8.38689890e+00 -8.55302672e+00 -8.61692203e+00 -8.58497438e+00
 -8.47156020e+00 -8.28786117e+00 -8.04665636e+00 -7.75912745e+00
 -7.43006658e+00 -7.06426591e+00 -6.66651758e+00 -6.23841897e+00
 -5.78476225e+00 -5.30554739e+00 -4.80716394e+00 -4.29759881e+00
 -3.78324154e+00 -3.27527379e+00 -2.78487726e+00 -2.32323361e+00
 -1.90152454e+00 -1.53093172e+00 -1.21784468e+00 -9.68652959e-01
 -7.86551314e-01 -6.66747601e-01 -6.06047053e-01 -5.98060138e-01
 -6.30007795e-01 -6.93903109e-01 -7.78564400e-01 -8.71212605e-01
 -9.63860810e-01 -1.04532734e+00 -1.11241742e+00 -1.15714414e+00
 -1.17631273e+00 -1.16672843e+00 -1.12519648e+00 -1.05331425e+00
 -9.52679131e-01 -8.24888503e-01 -6.77929281e-01 -5.21385762e-01
 -3.68037008e-01 -2.35454232e-01 -1.41208644e-01 -1.06066221e-01
 -1.52390324e-01 -2.97752163e-01 -5.54930801e-01 -9.33510536e-01
 -1.43349137e+00 -2.04688638e+00 -2.76251390e+00 -3.56280270e+00
 -4.42379206e+00 -5.32311860e+00 -6.23522421e+00 -7.13614813e+00
 -8.00352702e+00 -8.81978966e+00 -9.56257268e+00 -1.02222918e+01
 -1.07861679e+01 -1.12478116e+01 -1.16040280e+01 -1.18596092e+01
 -1.20177501e+01 -1.20880350e+01 -1.20816454e+01 -1.20081658e+01
 -1.18787778e+01 -1.17014683e+01 -1.14810295e+01 -1.12206561e+01
 -1.09187507e+01 -1.05721186e+01 -1.01759677e+01 -9.72710311e+00
 -9.21913537e+00 -8.65525922e+00 -8.03866944e+00 -7.37895033e+00
 -6.69047832e+00 -5.99242202e+00 -5.30395001e+00 -4.64582827e+00
 -4.03722541e+00 -3.49251786e+00 -3.01969254e+00 -2.62513897e+00
 -2.30566240e+00 -2.05647068e+00 -1.86797950e+00 -1.72900719e+00
 -1.62996946e+00 -1.55808723e+00 -1.50697098e+00 -1.46543902e+00
 -1.43029660e+00 -1.39994633e+00 -1.37279082e+00 -1.34883008e+00
 -1.33445363e+00 -1.32966148e+00 -1.33924578e+00 -1.36640129e+00
 -1.41432277e+00 -1.48141285e+00 -1.56926891e+00 -1.67469618e+00
 -1.79290251e+00 -1.91749837e+00 -2.04209423e+00 -2.15550842e+00
 -2.24975400e+00 -2.31364932e+00 -2.33920744e+00 -2.31684408e+00
 -2.24336447e+00 -2.11397646e+00 -1.92868005e+00 -1.69546215e+00
 -1.41911492e+00 -1.11241742e+00 -7.89746080e-01 -4.68672128e-01
 -1.65169386e-01  1.04788315e-01  3.26824531e-01  4.88160198e-01
  5.82405786e-01  6.04769146e-01  5.56847661e-01  4.45030861e-01
  2.77305662e-01  6.32563608e-02 -1.82740598e-01 -4.47906151e-01
 -7.22656000e-01 -9.94211085e-01 -1.25618187e+00 -1.50217883e+00
 -1.73060458e+00 -1.93826435e+00 -2.12835291e+00 -2.30406502e+00
 -2.46859545e+00 -2.62513897e+00 -2.78168249e+00 -2.93822601e+00
 -3.10115906e+00 -3.26888426e+00 -3.44299899e+00 -3.62350325e+00
 -3.80720228e+00 -3.99090131e+00 -4.17140557e+00 -4.34232553e+00
 -4.49727167e+00 -4.63304921e+00 -4.73847648e+00 -4.81035871e+00
 -4.84230637e+00 -4.83112469e+00 -4.77681367e+00 -4.68576285e+00
 -4.56116698e+00 -4.41420776e+00 -4.25926163e+00 -4.10751026e+00
 -3.97173271e+00 -3.86151330e+00 -3.78324154e+00 -3.74330697e+00
 -3.73851482e+00 -3.76726771e+00 -3.82317611e+00 -3.90144787e+00
 -3.99249869e+00 -4.08834166e+00 -4.18258725e+00 -4.26565116e+00
 -4.33114385e+00 -4.37107843e+00 -4.38066272e+00 -4.35829936e+00
 -4.30079358e+00 -4.21134014e+00 -4.09792596e+00 -3.96853795e+00
 -3.83755255e+00 -3.71615146e+00 -3.62350325e+00 -3.56919224e+00
 -3.56440009e+00 -3.61711372e+00 -3.72733314e+00 -3.89505834e+00]","[-1.59871149 -1.40583033 -1.23421165 -1.08689297 -0.96083677 -0.85300557
 -0.75580561 -0.66164315 -0.56292444 -0.44749949 -0.3062558  -0.13159963
  0.08406278  0.34225016  0.64600003  0.99075613  1.37196222  1.77594954
  2.19208686  2.60214918  2.98943026  3.33570511  3.62122999  3.8338549
  3.96294859  3.99939858  3.94320485  3.79892366  3.57111126  3.27495514
  2.91804904  2.51709922  2.08425566  1.63166835  1.16693106  0.70067501
  0.23897521 -0.21209335 -0.64797441 -1.06411173 -1.45594906 -1.8234864
 -2.16368625 -2.47958611 -2.77270473 -3.04456087 -3.30274825 -3.54878565
 -3.78874804 -4.02415419 -4.25804159 -4.48889149 -4.71518514 -4.93388504
 -5.13587871 -5.31812863 -5.47000356 -5.58087226 -5.64769723 -5.66136598
 -5.618841   -5.52164104 -5.37432235 -5.18295994 -4.95970378 -4.71518514
 -4.4645915  -4.21855411 -3.98922295 -3.7811543  -3.60194187 -3.45310444
 -3.33312324 -3.23896078 -3.16757956 -3.11442333 -3.07493585 -3.04607961
 -3.02329837 -3.00507338 -2.98836714 -2.9746984  -2.9625484  -2.95191716
 -2.94128591 -2.92761717 -2.91242967 -2.89116718 -2.86079219 -2.82282346
 -2.77422348 -2.71651101 -2.65272354 -2.58437981 -2.51603609 -2.45376737
 -2.3990924  -2.35808616 -2.33226742 -2.32315493 -2.33074868 -2.35504866
 -2.3930174  -2.44465488 -2.5038861  -2.57222982 -2.64361104 -2.71802976
 -2.79092973 -2.85927345 -2.92002342 -2.97014215 -3.00811088 -3.03241087
 -3.04304212 -3.04304212 -3.03696712 -3.02937337 -3.02785462 -3.03696712
 -3.06430461 -3.11138584 -3.17821081 -3.26477952 -3.36653573 -3.47740443
 -3.59131063 -3.70369808 -3.80849178 -3.90872924 -4.0028917  -4.09705416
 -4.19881036 -4.31423531 -4.45092275 -4.61798518 -4.81846009 -5.05386624
 -5.32724112 -5.63250974]",-1.2735933446641101,1.0313826769931496,6.2602400000000005,0.5391750000000002
054,1,2,csp,34b.png,1,1,212,89,223,1,1,560,neg_feedback_onset,2,"[ 2.41712829e+00  2.07422615e+00  1.73132400e+00  1.39727094e+00
  1.07649151e+00  7.71197989e-01  4.90239456e-01  2.31403642e-01
 -3.09718068e-03 -2.13263013e-01 -4.03518397e-01 -5.76075607e-01
 -7.30934641e-01 -8.70307771e-01 -9.96407270e-01 -1.10923314e+00
 -1.20657310e+00 -1.29285171e+00 -1.36364441e+00 -1.42337575e+00
 -1.46762119e+00 -1.50080527e+00 -1.52292799e+00 -1.52735253e+00
 -1.51629117e+00 -1.48531936e+00 -1.42558802e+00 -1.33488487e+00
 -1.20214856e+00 -1.02074226e+00 -7.81816895e-01 -4.80947914e-01
 -1.11498505e-01  3.28743607e-01  8.35353875e-01  1.40612003e+00
  2.02776844e+00  2.69145001e+00  3.37946658e+00  4.07633223e+00
  4.75992425e+00  5.41254447e+00  6.02313152e+00  6.57398722e+00
  7.06289932e+00  7.48544325e+00  7.84604357e+00  8.15576164e+00
  8.42787109e+00  8.67343327e+00  8.91014636e+00  9.15128400e+00
  9.40790754e+00  9.68665381e+00  9.99415960e+00  1.03326372e+01
  1.07020866e+01  1.11002956e+01  1.15294763e+01  1.19829921e+01
  1.24586305e+01  1.29563917e+01  1.34674265e+01  1.39895227e+01
  1.45116189e+01  1.50270782e+01  1.55248394e+01  1.59938410e+01
  1.64252341e+01  1.68057448e+01  1.71287365e+01  1.73809355e+01
  1.75579173e+01  1.76574695e+01  1.76729554e+01  1.76065873e+01
  1.74650019e+01  1.72526238e+01  1.69827266e+01  1.66641594e+01
  1.63124082e+01  1.59473833e+01  1.55801462e+01  1.52261827e+01
  1.48965542e+01  1.46001097e+01  1.43434862e+01  1.41266835e+01
  1.39452772e+01  1.37926305e+01  1.36621064e+01  1.35360069e+01
  1.34054829e+01  1.32572607e+01  1.30758544e+01  1.28502026e+01
  1.25714564e+01  1.22374033e+01  1.18436189e+01  1.13989523e+01
  1.09122524e+01  1.03990054e+01  9.87912146e+00  9.37472347e+00
  8.90793409e+00  8.49866379e+00  8.16239846e+00  7.90798719e+00
  7.74206679e+00  7.66021273e+00  7.65578819e+00  7.71551953e+00
  7.82613313e+00  7.97656762e+00  8.15133710e+00  8.33938021e+00
  8.52963559e+00  8.71104189e+00  8.87696229e+00  9.02297223e+00
  9.14464719e+00  9.23535034e+00  9.29508168e+00  9.32384121e+00
  9.32384121e+00  9.29729395e+00  9.24641169e+00  9.17783127e+00
  9.10040175e+00  9.01854769e+00  8.94111817e+00  8.87475001e+00
  8.82165549e+00  8.78625914e+00  8.77077323e+00  8.77077323e+00
  8.78625914e+00  8.81280640e+00  8.84377821e+00  8.87253774e+00
  8.89466046e+00  8.90572182e+00  8.89908500e+00  8.87032547e+00
  8.81944322e+00  8.74865051e+00  8.65573509e+00  8.54954604e+00
  8.43893245e+00  8.33274339e+00  8.24425252e+00  8.18894572e+00
  8.18009663e+00  8.22876661e+00  8.34601703e+00  8.53848468e+00
  8.81059413e+00  9.15792082e+00  9.57161567e+00  1.00450419e+01
  1.05627135e+01  1.11113569e+01  1.16710617e+01  1.22329788e+01
  1.27838345e+01  1.33147797e+01  1.38236023e+01  1.43080898e+01
  1.47726669e+01  1.52151213e+01  1.56443021e+01  1.60602092e+01
  1.64650550e+01  1.68522025e+01  1.72194397e+01  1.75557050e+01
  1.78521494e+01  1.80954994e+01  1.82746934e+01  1.83764579e+01
  1.83963683e+01  1.83300002e+01  1.81795657e+01  1.79561262e+01
  1.76729554e+01  1.73499637e+01  1.70092738e+01  1.66730085e+01
  1.63610782e+01  1.60889687e+01  1.58677415e+01  1.56996089e+01
  1.55867830e+01  1.55248394e+01  1.55071412e+01  1.55248394e+01
  1.55690848e+01  1.56354530e+01  1.57150948e+01  1.58035857e+01
  1.59009256e+01  1.59982656e+01  1.61000301e+01  1.62017946e+01
  1.63057714e+01  1.64097482e+01  1.65137249e+01  1.66154894e+01
  1.67194662e+01  1.68234430e+01  1.69274198e+01  1.70313966e+01
  1.71353733e+01  1.72393501e+01  1.73455392e+01  1.74517282e+01
  1.75579173e+01  1.76663186e+01  1.77769322e+01  1.78919703e+01
  1.80114330e+01  1.81331080e+01  1.82592075e+01  1.83897315e+01
  1.85224678e+01  1.86552041e+01  1.87857282e+01  1.89074031e+01
  1.90180167e+01  1.91109322e+01  1.91861494e+01  1.92348194e+01
  1.92591544e+01  1.92525176e+01  1.92193335e+01  1.91551776e+01
  1.90622622e+01  1.89427995e+01  1.88012141e+01  1.86419305e+01
  1.84715856e+01  1.82946038e+01  1.81198343e+01  1.79583385e+01
  1.78123285e+01  1.76906536e+01  1.75933136e+01  1.75225209e+01
  1.74716387e+01  1.74384546e+01  1.74119073e+01  1.73853601e+01
  1.73499637e+01  1.72990815e+01  1.72327133e+01  1.71464347e+01
  1.70490947e+01  1.69429057e+01  1.68367166e+01  1.67393767e+01]","[-3.27709804 -3.1490864  -2.95370021 -2.6943082  -2.37933218 -2.01887835
 -1.62473724 -1.2086994  -0.78087102 -0.34967391  0.0815232   0.50935159
  0.93381124  1.35995526  1.78946801  2.22740258  2.67712769  3.14032771
  3.61531828  4.10209939  4.59056487  5.07566162  5.54559909  5.99195548
  6.40462459  6.77350024  7.09184498  7.35629009  7.5600981   7.70495338
  7.79254029  7.82622756  7.80938393  7.74706247  7.64768501  7.517989
  7.36302754  7.18785372  7.00088934  6.80213443  6.59832642  6.38946532
  6.17723549  5.9633213   5.7494071   5.53549291  5.32157872  5.10766453
  4.8954347   4.6865736   4.48276559  4.28569504  4.10041503  3.93197866
  3.78375465  3.66584919  3.581631    3.54289064  3.55131246  3.61194955
  3.72817065  3.89323829  4.10209939  4.34801649  4.61414596  4.89038161
  5.16156417  5.41421872  5.6382391   5.82351911  5.96500566  6.0559613
  6.09638603  6.08122676  6.01385221  5.89089366  5.7123511   5.47822455
  5.19019835  4.84827252  4.4591845   4.0229343   3.54962809  3.04600334
  2.52385059  1.99327602  1.4694389   0.97086725  0.51103595  0.11184175
 -0.21155608 -0.44062955 -0.56527246 -0.57537864 -0.47263246 -0.26377136
  0.03941411  0.41671158  0.84453997  1.29763381  1.74904328  2.17687166
  2.56595968  2.8994637   3.17064626  3.37613863  3.51257209  3.581631
  3.58668409  3.52941573  3.414879    3.24138953  3.01231607  2.72597424
  2.38573277  1.98990729  1.54186654  1.04666361  0.51103595 -0.05827898
 -0.65454374 -1.26596777 -1.88749798 -2.51071255 -3.12887404 -3.7386137
 -4.33487846 -4.91261521 -5.46677087 -5.99397672 -6.48749528 -6.9372204
 -7.34146769 -7.69013098 -7.97815717 -8.20386191 -8.36556083 -8.46493828
 -8.50536301 -8.4918881 ]",18.24460648107182,5.501300328787782,4.520239999999999,-0.043095000000000105
054,1,2,csp,53b.png,1,0,24,NaN,37,1,0,221,neg_feedback_onset,3,"[-1.49304061e+00 -9.80682631e-01 -4.89604699e-01 -2.96283686e-02
  3.84514021e-01  7.39727059e-01  1.02782611e+00  1.23407884e+00
  1.35357447e+00  1.37976530e+00  1.30937746e+00  1.14404789e+00
  8.90324291e-01  5.51480518e-01  1.42248908e-01 -3.29185907e-01
 -8.49728516e-01 -1.40792043e+00 -1.99066625e+00 -2.58650747e+00
 -3.18234869e+00 -3.76673143e+00 -4.32656028e+00 -4.84546596e+00
 -5.31199000e+00 -5.70812619e+00 -6.02077914e+00 -6.24012729e+00
 -6.35962292e+00 -6.37762911e+00 -6.29578279e+00 -6.12554244e+00
 -5.88164040e+00 -5.57880901e+00 -5.23832831e+00 -4.87820449e+00
 -4.51644374e+00 -4.16777841e+00 -3.84530390e+00 -3.55720485e+00
 -3.31330281e+00 -3.11850856e+00 -2.97445904e+00 -2.88279116e+00
 -2.84350492e+00 -2.85496341e+00 -2.90898198e+00 -3.00228679e+00
 -3.12178242e+00 -3.25928424e+00 -3.40333376e+00 -3.54410944e+00
 -3.67178970e+00 -3.77982685e+00 -3.86658395e+00 -3.92551330e+00
 -3.96152568e+00 -3.97625802e+00 -3.96971031e+00 -3.95006720e+00
 -3.91732867e+00 -3.87967936e+00 -3.83548234e+00 -3.79292226e+00
 -3.75199910e+00 -3.71926057e+00 -3.69961745e+00 -3.69634360e+00
 -3.71926057e+00 -3.77164221e+00 -3.86331009e+00 -3.99753806e+00
 -4.18087382e+00 -4.41495431e+00 -4.69814258e+00 -5.02880172e+00
 -5.40038402e+00 -5.80634178e+00 -6.23521651e+00 -6.67718665e+00
 -7.12406757e+00 -7.56603770e+00 -7.99327551e+00 -8.39759634e+00
 -8.76754171e+00 -9.09329007e+00 -9.36174601e+00 -9.55654026e+00
 -9.66457740e+00 -9.67112511e+00 -9.56308796e+00 -9.33719211e+00
 -8.99343756e+00 -8.53673508e+00 -7.98672780e+00 -7.36633268e+00
 -6.70010362e+00 -6.01914222e+00 -5.35127623e+00 -4.72105955e+00
 -4.14977222e+00 -3.65050966e+00 -3.22818264e+00 -2.88442808e+00
 -2.61597215e+00 -2.41626712e+00 -2.27712837e+00 -2.18873434e+00
 -2.14617426e+00 -2.14126348e+00 -2.17072815e+00 -2.23129443e+00
 -2.32132539e+00 -2.44245794e+00 -2.59469210e+00 -2.77802786e+00
 -2.99082830e+00 -3.23473034e+00 -3.50482320e+00 -3.79783304e+00
 -4.10884906e+00 -4.43459742e+00 -4.76689349e+00 -5.10246341e+00
 -5.43639640e+00 -5.75887091e+00 -6.06497616e+00 -6.34489058e+00
 -6.59042955e+00 -6.79013457e+00 -6.93418410e+00 -7.01275657e+00
 -7.01766735e+00 -6.94727951e+00 -6.80322998e+00 -6.58879262e+00
 -6.31378898e+00 -5.99458832e+00 -5.64428606e+00 -5.27925147e+00
 -4.91421687e+00 -4.55572998e+00 -4.21524928e+00 -3.89113784e+00
 -3.58666953e+00 -3.29857047e+00 -3.02520376e+00 -2.76002167e+00
 -2.50466115e+00 -2.25912218e+00 -2.02340477e+00 -1.80078278e+00
 -1.59453005e+00 -1.40792043e+00 -1.24422779e+00 -1.10181519e+00
 -9.82319558e-01 -8.84103971e-01 -8.02257649e-01 -7.33506738e-01
 -6.74577387e-01 -6.20558814e-01 -5.71451021e-01 -5.23980154e-01
 -4.79783140e-01 -4.40496905e-01 -4.06121450e-01 -3.76656774e-01
 -3.53739804e-01 -3.35733613e-01 -3.14453569e-01 -2.86625820e-01
 -2.44065732e-01 -1.76951748e-01 -7.54623090e-02  6.36764386e-02
  2.48649126e-01  4.82729608e-01  7.62644029e-01  1.08675546e+00
  1.45015313e+00  1.84628933e+00  2.26861636e+00  2.71058649e+00
  3.16401512e+00  3.62562838e+00  4.08724163e+00  4.54394411e+00
  4.98591425e+00  5.40660434e+00  5.79619284e+00  6.14158432e+00
  6.43295722e+00  6.65885307e+00  6.80781338e+00  6.87329043e+00
  6.85037346e+00  6.73906247e+00  6.54099437e+00  6.26435380e+00
  5.91568847e+00  5.50645686e+00  5.04975438e+00  4.55540259e+00
  4.03649691e+00  3.50122197e+00  2.95776239e+00  2.41430281e+00
  1.87411708e+00  1.34211599e+00  8.21573381e-01  3.17400037e-01
 -1.70404043e-01 -6.35291152e-01 -1.07071359e+00 -1.47339749e+00
 -1.83352131e+00 -2.14453733e+00 -2.39989786e+00 -2.59305518e+00
 -2.72237236e+00 -2.78948635e+00 -2.79767098e+00 -2.75347397e+00
 -2.66835379e+00 -2.55376894e+00 -2.41790405e+00 -2.27221759e+00
 -2.12489421e+00 -1.97920776e+00 -1.83843209e+00 -1.70420412e+00
 -1.57488693e+00 -1.45211745e+00 -1.33262182e+00 -1.21476311e+00
 -1.09690441e+00 -9.80682631e-01 -8.62823927e-01 -7.43328297e-01
 -6.20558814e-01 -4.96152404e-01 -3.70109068e-01 -2.42428806e-01
 -1.14748544e-01  9.65786600e-03  1.29153496e-01  2.37190641e-01
  3.30495449e-01  4.04157138e-01  4.54901858e-01  4.82729608e-01
  4.84366534e-01  4.64723417e-01  4.28711035e-01  3.81240168e-01
  3.30495449e-01  2.89572287e-01  2.61744538e-01  2.60107612e-01]","[-2.7887049  -2.57029058 -2.33957122 -2.09962308 -1.84736991 -1.58588797
 -1.31056287 -1.02139461 -0.71530692 -0.38922356 -0.04468265  0.31985394
  0.70130995  1.09660912  1.49959893  1.89951249  2.28712101  2.65319573
  2.98389348  3.27152362  3.50685736  3.68220408  3.79141124  3.83294073
  3.80371627  3.70681414  3.54223433  3.31766749  3.04234239  2.7254878
  2.38248502  2.02256282  1.66110248  1.30887093  0.97202066  0.65516608
  0.36138342  0.09067271 -0.1585042  -0.39076169 -0.61071415 -0.81836157
 -1.01985648 -1.216737   -1.40900313 -1.59973114 -1.79045914 -1.97964901
 -2.16883889 -2.35649064 -2.54568051 -2.73333226 -2.92252213 -3.11017388
 -3.29936375 -3.4870155  -3.67312912 -3.86078086 -4.04689448 -4.23146997
 -4.41450733 -4.59600656 -4.77596766 -4.95439063 -5.13127547 -5.30354593
 -5.47581638 -5.64347245 -5.80959039 -5.97263207 -6.13259749 -6.28487227
 -6.43099453 -6.56481176 -6.68017144 -6.77399731 -6.83552248 -6.85705628
 -6.82936996 -6.74477286 -6.59557434 -6.38023627 -6.10029678 -5.76190839
 -5.37737612 -4.95900502 -4.52679075 -4.09765274 -3.69312479 -3.32551195
 -3.01019549 -2.75640419 -2.56721432 -2.44570212 -2.38879135 -2.3918676
 -2.44724025 -2.54414238 -2.67488335 -2.82562    -2.98866168 -3.15170336
 -3.3070544  -3.44702414 -3.56699821 -3.66236221 -3.73157802 -3.77618376
 -3.79771757 -3.7992557  -3.78233628 -3.75311183 -3.71312047 -3.66851473
 -3.6192946  -3.57315073 -3.53162124 -3.4977824  -3.4762486  -3.47009608
 -3.48240111 -3.51316369 -3.56392195 -3.6300615  -3.71158234 -3.80233196
 -3.89615783 -3.98844557 -4.07611893 -4.15456351 -4.22070306 -4.27607571
 -4.31760519 -4.3499059  -4.37297784 -4.38989726 -4.40066416 -4.40835481
 -4.4129692  -4.41604545]",3.4563701810931784,1.2276577139864373,6.10901,
054,1,2,csp,28b.png,1,0,4,84,349,1,0,217,neg_feedback_onset,4,"[-2.29208054 -1.94766949 -1.56332671 -1.16234572 -0.7663562  -0.39698782
 -0.06755115  0.21363468  0.43991441  0.61295185  0.732747    0.80595515
  0.83590394  0.83091247  0.79763604  0.73940229  0.66785796  0.58633071
  0.50480345  0.42826766  0.36337862  0.31845544  0.29516194  0.30181723
  0.34008512  0.40996563  0.5164502   0.65454739  0.82425719  1.02058813
  1.23688493  1.4664923   1.70275496  1.93568997  2.15697823  2.354973
  2.52301897  2.65279705  2.73765195  2.77425602  2.75928163  2.69439259
  2.57792508  2.41653439  2.21354817  1.97395787  1.7060826   1.41325001
  1.10211538  0.78099783  0.45156116  0.12046068 -0.21063981 -0.54007647
 -0.86119402 -1.17232865 -1.47181653 -1.75300237 -2.0108947  -2.24549354
 -2.44681594 -2.61652574 -2.74963146 -2.84613311 -2.90935833 -2.94097094
 -2.94429858 -2.92766037 -2.89438394 -2.84946076 -2.79954611 -2.74630382
 -2.69306153 -2.63981924 -2.5899046  -2.53998995 -2.49340295 -2.44681594
 -2.40189276 -2.35696958 -2.31371022 -2.26878704 -2.22552768 -2.18226832
 -2.13900896 -2.0957496  -2.05082642 -2.00756706 -1.9643077  -1.92104834
 -1.87778898 -1.83619344 -1.79626173 -1.75799383 -1.72638122 -1.70308772
 -1.69144097 -1.69643243 -1.72305358 -1.77962351 -1.86946987 -1.99924795
 -2.17228539 -2.39024601 -2.65479364 -2.9609368  -3.30701168 -3.68303534
 -4.08235251 -4.49664407 -4.91925474 -5.34186541 -5.75782079 -6.15880178
 -6.53981691 -6.8942109  -7.21200081 -7.48653136 -7.70449199 -7.85922739
 -7.93909082 -7.937427   -7.8525721  -7.68452613 -7.443272   -7.13546502
 -6.77774339 -6.38508151 -5.97578141 -5.56315367 -5.1555174  -4.76451934
 -4.39348714 -4.04242079 -3.71298413 -3.4018495  -3.11068074 -2.837814
 -2.58491313 -2.35364194 -2.14899189 -1.97096299 -1.82288287 -1.70641536
 -1.62156046 -1.56499053 -1.53337792 -1.52006735 -1.51840353 -1.52006735
 -1.51507589 -1.49843767 -1.4618336  -1.4002722  -1.31042584 -1.19229451
 -1.04587821 -0.87616842 -0.68649276 -0.48184272 -0.27053738 -0.05756823
  0.14874564  0.34174894  0.51977785  0.67784089  0.81261044  0.9257503
  1.01393284  1.0804857   1.12374506  1.14703856  1.14703856  1.12374506
  1.07715806  1.00062227  0.89413769  0.75437668  0.57967542  0.36837009
  0.12046068 -0.15906134 -0.47019596 -0.80628791 -1.15901808 -1.52173117
 -1.88278045 -2.22885532 -2.54664524 -2.82117579 -3.03414495 -3.16558685
 -3.2005271  -3.12399131 -2.92599655 -2.59988753 -2.14732807 -1.57996493
 -0.91110867 -0.16072516  0.64456446  1.47980287  2.3167051   3.13197765
  3.9006632   4.60113206  5.21508221  5.72753924  6.12852023  6.40970607
  6.57109676  6.61102847  6.53782033  6.35979142  6.09191616  5.74584128
  5.34153265  4.89562848  4.4264308   3.95057785  3.48470782  3.04379511
  2.63948648  2.27843721  1.96563876  1.70441878  1.4897858   1.320076
  1.1886341   1.08714099  1.01226902  0.95902673  0.92408648  0.90578444
  0.9024568   0.91909501  0.95736291  1.02058813  1.11209831  1.23688493
  1.39328415  1.58295981  1.80258425  2.04217455  2.29673924  2.55463158
  2.80753245  3.04545893  3.26009191  3.44810374  3.60450297  3.7309534
  3.82745505  3.89899938  3.94558638  3.9705437   3.97553517  3.96056077
  3.9239567   3.86073148]","[ -3.20355814  -2.90699575  -2.58001671  -2.22566268  -1.84697533
  -1.44699632  -1.03485064  -0.6151008   -0.1968718    0.21071138
   0.59548206   0.95135692   1.26769014   1.53839837   1.75283578
   1.90796072   1.99768986   2.01898151   1.96879403   1.84712741
   1.65702332   1.40456508   1.09583604   0.74300284   0.35823215
  -0.04326769  -0.44933004  -0.84626738  -1.22495474  -1.57778793
  -1.90020448  -2.1937252   -2.45682926  -2.69407917  -2.91003742
  -3.11078734  -3.29784977  -3.47730803  -3.64916214  -3.81797457
  -3.98526617  -4.14951611  -4.31376605  -4.47801598  -4.64226592
  -4.80499502  -4.96924496  -5.13197406  -5.296224    -5.4589531
  -5.62168221  -5.78593215  -5.94866125  -6.11291119  -6.27564029
  -6.43989023  -6.60414016  -6.7683901   -6.93264004  -7.09841081
  -7.26570241  -7.43451484  -7.60788978  -7.78582721  -7.96984797
  -8.16299373  -8.36526448  -8.5797019   -8.80478515  -9.04355589
  -9.28993079  -9.5454307   -9.80245143 -10.060993   -10.3119304
 -10.55374281 -10.78338855 -10.99630514 -11.19249256 -11.37042999
 -11.53011743 -11.67155488 -11.79626316 -11.90120062 -11.98636726
 -12.05024223 -12.08826305 -12.10042971 -12.08522138 -12.0395964
 -11.96203393 -11.85709647 -11.72174236 -11.56053409 -11.37499249
 -11.1666384  -10.93699266 -10.68605526 -10.41078453 -10.10813881
  -9.77811811  -9.41311825  -9.0116184   -8.57361857  -8.10063959
  -7.60180645  -7.08776498  -6.57524434  -6.08401536  -5.63384887
  -5.24755735  -4.94034914  -4.72591172  -4.6133701   -4.60272427
  -4.69093257  -4.86734917  -5.12284907  -5.44070311  -5.8072238
  -6.20720282  -6.62391099  -7.04518166  -7.45732733  -7.84513968
  -8.19645205  -8.50366026  -8.7561185   -8.95230592  -9.09222254
  -9.18043084  -9.22757665  -9.24430581  -9.24886831  -9.25343081
  -9.27320163  -9.31578495  -9.38878492  -9.48915988  -9.61386817]",2.4371657798497948,-0.47152597254531725,6.01026,0.3595549999999994
054,1,2,csm,51a.png,1,1,12,89,12,1,0,315,neu_feedback_onset,5,"[-1.43687202 -1.0727246  -0.73542676 -0.43169089 -0.1631951   0.06502633
  0.25297338  0.40064607  0.50468819  0.56845594  0.59194932  0.57516833
  0.52146918  0.43588614  0.32513163  0.19591802  0.05663583 -0.08600256
 -0.22192855 -0.34610786 -0.45518428 -0.54412351 -0.61628175 -0.67165901
 -0.71025528 -0.73542676 -0.75220775 -0.76059824 -0.76227634 -0.75892014
 -0.75220775 -0.74213916 -0.72535817 -0.70186479 -0.67165901 -0.62970654
 -0.57432928 -0.50552724 -0.4216223  -0.32093638 -0.20346947 -0.07089967
  0.07509492  0.2311581   0.39561177  0.56677784  0.73962201  0.91414427
  1.08698844  1.25479831  1.41421769  1.56356848  1.69949447  1.81863948
  1.9193254   1.99987414  2.0586076   2.09720387  2.11398486  2.11566295
  2.10056007  2.07706668  2.04686091  2.01497703  1.98644935  1.96631217
  1.95792167  1.96463407  1.98980555  2.03343612  2.09720387  2.17943071
  2.27676043  2.38415875  2.49826946  2.61070207  2.71642229  2.81039582
  2.88423216  2.93793132  2.9681371   2.97652759  2.9631028   2.93289703
  2.88758836  2.8372454   2.78186814  2.73320328  2.69125081  2.66272313
  2.65097644  2.65601074  2.67782602  2.71474419  2.76340906  2.81878632
  2.87416357  2.92282844  2.95806851  2.9748495   2.9698152   2.94296562
  2.89597886  2.8355673   2.76508716  2.69628511  2.63587356  2.59392109
  2.5737839   2.5788182   2.60734588  2.65768884  2.71977849  2.78690244
  2.84731399  2.89262266  2.91108174  2.89765695  2.84731399  2.75669666
  2.63083926  2.47141988  2.28515092  2.08042288  1.86562625  1.65250771
  1.44777967  1.26151071  1.09873513  0.96784343  0.86547941  0.79667736
  0.7547249   0.73458771  0.73290961  0.73794391  0.7463344   0.7530468
  0.7530468   0.7480125   0.73962201  0.73458771  0.74130011  0.76647159
  0.82017075  0.90910998  1.04000168  1.21620204  1.43771107  1.69949447
  1.99987414  2.32878149  2.67614792  3.03693915  3.39940847  3.7551654
  4.09581944  4.41633629  4.71000357  4.97178697  5.19665219  5.38459925
  5.53395003  5.64806075  5.72860949  5.78398674  5.81922682  5.8427202
  5.86285738  5.88131647  5.90145365  5.92326894  5.94172802  5.95347471
  5.95179661  5.92998133  5.88131647  5.80244583  5.69001322  5.54737482
  5.37453066  5.17651501  4.95668408  4.72007216  4.47171355  4.21328635
  3.94814675  3.67965096  3.41115516  3.13930317  2.87080738  2.60398968
  2.34388438  2.09384767  1.85891385  1.64747341  1.46623875  1.32695656
  1.24305162  1.22459254  1.28164789  1.42093009  1.64579531  1.95120928
  2.32542529  2.75166237  3.20810522  3.66958236  4.10924423  4.50359742
  4.83753907  5.09261007  5.26377614  5.34768108  5.34600298  5.26209804
  5.10435676  4.87445724  4.57911187  4.22503304  3.81389885  3.35242171
  2.85234829  2.3220691   1.77500891  1.22962683  0.70270384  0.20934281
 -0.23703144 -0.62467225 -0.9485453  -1.2086506  -1.40834435 -1.55433893
 -1.65502486 -1.72047071 -1.75738888 -1.77416987 -1.77584796 -1.77081367
 -1.75738888 -1.74228599 -1.7238269  -1.70536782 -1.68690873 -1.66677155
 -1.64663436 -1.62649718 -1.60635999 -1.58622281 -1.56608562 -1.54594844
 -1.52581126 -1.50567407 -1.48553689 -1.4653997  -1.44526252 -1.42512533
 -1.40498815 -1.38485096]","[-2.00433403 -1.70644671 -1.43634164 -1.19864917 -0.99182585 -0.81124131
 -0.65072172 -0.50254979 -0.35746478 -0.20620593 -0.04105597  0.14415894
  0.3494388   0.57632706  0.82173682  1.0810377   1.34496895  1.61044365
  1.86820107  2.11052391  2.33432526  2.52880092  2.68932051  2.81125366
  2.88688308  2.9115784   2.88379616  2.798906    2.65999481  2.46860607
  2.23245706  1.95772161  1.65211701  1.32336054  0.9791695   0.62571771
  0.26609209 -0.09507699 -0.45624606 -0.81741514 -1.17704076 -1.53357946
 -1.89166162 -2.24820033 -2.60319557 -2.95819082 -3.31318607 -3.66818131
 -4.02317656 -4.37662835 -4.73008014 -5.08044501 -5.42772297 -5.77037055
 -6.10221394 -6.42170966 -6.71959697 -6.99124551 -7.22585106 -7.41260943
 -7.54380333 -7.61171546 -7.61171546 -7.54071641 -7.4064356  -7.21659032
 -6.98507168 -6.72731426 -6.46338301 -6.20871251 -5.97719387 -5.7796313
 -5.62065517 -5.50180893 -5.42154914 -5.37370195 -5.353637   -5.35672392
 -5.37524541 -5.4045711  -5.44315754 -5.4848309  -5.53113463 -5.57898181
 -5.626829   -5.67621964 -5.72406683 -5.77345747 -5.82284811 -5.8706953
 -5.91699902 -5.96175929 -6.00497611 -6.04201909 -6.07288824 -6.09449665
 -6.10530085 -6.10221394 -6.08214899 -6.04356255 -5.98645462 -5.91391211
 -5.8305654  -5.7395014  -5.65152432 -5.57435144 -5.51724351 -5.48791781
 -5.4956351  -5.54193883 -5.63145937 -5.76265327 -5.93089014 -6.13462655
 -6.36460173 -6.61618531 -6.88166002 -7.1517651  -7.42187018 -7.68117105
 -7.92040698 -8.13031721 -8.301641   -8.4220307  -8.48222554 -8.47142134
 -8.38498771 -8.21983775 -7.97751491 -7.6611061  -7.28450245 -6.86313853
 -6.41244891 -5.95712892 -5.51724351 -5.11594453 -4.77329695 -4.5093657
 -4.33341154 -4.25623866]",4.862500786608784,0.8131320458839244,5.959124999999999,0.03498999999999963
054,1,2,csm,39a.png,1,0,104,NaN,104,1,1,716,neu_feedback_onset,6,"[-1.01974008 -1.29697129 -1.53235628 -1.71194631 -1.82353623 -1.8549209
 -1.79738234 -1.6456898  -1.40158684 -1.06856067 -0.66230362 -0.19676442
  0.30713382  0.82672439  1.34457137  1.84323883  2.31226521  2.74467616
  3.13872807  3.49442094  3.81524196  4.10642191  4.37319157  4.61903811
  4.84744873  5.06016702  5.25719297  5.43852659  5.60416788  5.75062965
  5.8796555   5.98775824  6.07668146  6.14468156  6.19524575  6.22663041
  6.24406634  6.24755352  6.24232274  6.228374    6.21093808  6.19350215
  6.17606623  6.16211749  6.15165593  6.14991234  6.15165593  6.16211749
  6.17432264  6.18827138  6.20047652  6.2057073   6.19873293  6.17257904
  6.11852768  6.03309164  5.90580939  5.73319373  5.51175748  5.23452627
  4.90673088  4.52662771  4.09944754  3.63042116  3.12826651  2.59647079
  2.04723915  1.48580236  0.92262198  0.36641597 -0.17061053 -0.67973954
 -1.14353515 -1.54979221 -1.88456197 -2.13040852 -2.27512669 -2.30651136
 -2.22107533 -2.01358782 -1.68927961 -1.25686866 -0.72856013 -0.12353353
  0.53903163  1.23995582  1.95308516  2.66098372  3.3409848   3.97739607
  4.551038    5.05319265  5.47339844  5.81339899  6.06970709  6.25104071
  6.36263063  6.41842559  6.42888714  6.40622044  6.36088704  6.2998613
  6.23360478  6.16560467  6.10109175  6.04529679  5.99821979  5.96509153
  5.94765561  5.94765561  5.97032231  6.01391212  6.08191223  6.17606623
  6.29463052  6.43760511  6.59801562  6.77237487  6.95370849  7.1367857
  7.31114496  7.46806828  7.60058131  7.6964789   7.75227386  7.76099183
  7.7191456   7.63022239  7.49945295  7.33381166  7.14550367  6.94847771
  6.75668254  6.58057969  6.43237433  6.31904081  6.24406634  6.2057073
  6.20396371  6.2301176   6.28242537  6.35391267  6.4393487   6.53524629
  6.63637465  6.7427338   6.85083653  6.95893927  7.0687856   7.17688833
  7.28324748  7.38611943  7.48376062  7.57268383  7.6511455   7.71565842
  7.75924823  7.78017134  7.77145338  7.72960716  7.6494019   7.52909402
  7.36345273  7.15422163  6.90140072  6.60498999  6.27196382  5.9023222
  5.5082703   5.09155168  4.66437152  4.23370417  3.80826759  3.39677976
  3.00447144  2.64006061  2.30703444  2.00888012  1.74908483  1.52590499
  1.34282778  1.196366    1.08651968  1.0115452   0.96795538  0.95051946
  0.95400664  0.97318616  1.00108364  1.03072472  1.05513501  1.06734016
  1.06210938  1.0342119   0.98364772  0.90867324  0.80928847  0.68723699
  0.546006    0.38733908  0.21297983  0.02467183 -0.17235412 -0.37984163
 -0.5960471  -0.81922694 -1.04938116 -1.28476615 -1.52538191 -1.76948486
 -2.017075   -2.26815232 -2.51922965 -2.77030697 -3.0196407  -3.26548724
 -3.50435942 -3.73451363 -3.9507191  -4.15297583 -4.33256586 -4.48948919
 -4.62200222 -4.72661777 -4.80507943 -4.8591308  -4.89225906 -4.9062078
 -4.90795139 -4.90097702 -4.89051547 -4.87831032 -4.86784876 -4.86087439
 -4.85738721 -4.85738721 -4.86087439 -4.86784876 -4.87482313 -4.88528469
 -4.89574624 -4.9062078  -4.91666935 -4.9288745  -4.94107965 -4.95154121
 -4.96374635 -4.9759515  -4.98641306 -4.9986182  -5.01082335 -5.0230285
 -5.03349005 -5.0456952  -5.05790035 -5.0701055  -5.08056705 -5.0927722
 -5.10497735 -5.11718249]","[-2.26374533 -2.03370143 -1.78421721 -1.52177276 -1.25284821 -0.9806836
 -0.71013902 -0.44607455 -0.18849019  0.05937401  0.29589801  0.51946179
  0.72844533  0.92284862  1.09943161  1.2581943   1.39913669  1.52549883
  1.63728072  1.73610239  1.82358387  1.90296522  1.97586645  2.04228758
  2.10384862  2.15892955  2.20753037  2.24965109  2.28529169  2.31121213
  2.33065246  2.34199265  2.34685273  2.34685273  2.34199265  2.33227249
  2.32255232  2.3095921   2.29663188  2.28367166  2.26909142  2.25451117
  2.23993092  2.2269707   2.21239046  2.19781021  2.18322996  2.16864972
  2.15406947  2.14110925  2.126529    2.11194876  2.09736851  2.08278826
  2.06820801  2.0552478   2.04066755  2.0260873   2.01312708  2.00016686
  1.98720664  1.97424642  1.96290623  1.94994601  1.93860582  1.92726563
  1.91268538  1.89486508  1.87056467  1.83978415  1.79604341  1.74096247
  1.66806124  1.5773397   1.46555781  1.33271556  1.17395288  0.99088978
  0.78190624  0.54214218  0.2715976  -0.03134753 -0.36993326 -0.74253957
 -1.14754643 -1.58495383 -2.04828168 -2.53104985 -3.02677824 -3.52898675
 -4.03119525 -4.52530361 -5.0032117  -5.45843941 -5.8828866  -6.26521307
 -6.59407864 -6.85652308 -7.03634613 -7.12058755 -7.09790717 -6.96182486
 -6.71072061 -6.34783447 -5.88774668 -5.34665752 -4.74724737 -4.1170567
 -3.4787659  -2.85667536 -2.27022543 -1.73237633 -1.25284821 -0.83650116
 -0.48333518 -0.19335027  0.03831365  0.21651667  0.34773889  0.43522037
  0.48868127  0.50974163  0.50326152  0.47572105  0.43036029  0.37041927
  0.29751804  0.21489664  0.12255507  0.0237334  -0.08156838 -0.19335027
 -0.30837222 -0.42825425 -0.54813628 -0.66801831 -0.78142023 -0.88672201
 -0.97906358 -1.05682489]",6.296243342745841,2.0226852440611762,5.735284999999999,0.19466499999999964
054,1,2,csp,21b.png,1,0,228,NaN,234,1,1,613,neg_feedback_onset,7,"[-1.72357713e+00 -1.45760346e+00 -1.16452420e+00 -8.66362632e-01
 -5.81753868e-01 -3.25944799e-01 -1.07405927e-01  6.87804514e-02
  2.07696634e-01  3.11036721e-01  3.85577112e-01  4.41482405e-01
  4.83834900e-01  5.19410995e-01  5.51598891e-01  5.83786787e-01
  6.15974683e-01  6.49856679e-01  6.85432775e-01  7.22702970e-01
  7.59973165e-01  7.98937461e-01  8.37901756e-01  8.78560151e-01
  9.19218546e-01  9.59876941e-01  1.00053534e+00  1.04288783e+00
  1.08693442e+00  1.13267512e+00  1.18349811e+00  1.23770931e+00
  1.29700280e+00  1.36307269e+00  1.43930718e+00  1.52231807e+00
  1.61718766e+00  1.72052775e+00  1.83403243e+00  1.95770172e+00
  2.08645330e+00  2.22198128e+00  2.36089747e+00  2.49811955e+00
  2.63195343e+00  2.75392862e+00  2.86065690e+00  2.94536189e+00
  2.99957309e+00  3.01990228e+00  2.99957309e+00  2.93350320e+00
  2.81999851e+00  2.65905903e+00  2.45237885e+00  2.20504029e+00
  1.92212562e+00  1.61041126e+00  1.28006180e+00  9.39547743e-01
  6.02421885e-01  2.80542925e-01 -9.14813886e-03 -2.53098509e-01
 -4.32673086e-01 -5.30930874e-01 -5.32624974e-01 -4.24202587e-01
 -2.00581415e-01  1.39932643e-01  5.90563187e-01  1.13436922e+00
  1.75271564e+00  2.42188506e+00  3.11138367e+00  3.79579999e+00
  4.45480481e+00  5.06468073e+00  5.61356906e+00  6.08961110e+00
  6.48603045e+00  6.80282711e+00  7.03661288e+00  7.19077597e+00
  7.26870456e+00  7.27209276e+00  7.20941106e+00  7.08404768e+00
  6.90616720e+00  6.68254603e+00  6.42334876e+00  6.13874000e+00
  5.83719023e+00  5.52886407e+00  5.22053791e+00  4.91898815e+00
  4.62929708e+00  4.35654702e+00  4.10073795e+00  3.86186988e+00
  3.64163691e+00  3.43665083e+00  3.24352346e+00  3.06056068e+00
  2.88437430e+00  2.71157612e+00  2.53708384e+00  2.35750927e+00
  2.16777009e+00  1.96447812e+00  1.74085694e+00  1.49351837e+00
  1.21738011e+00  9.10748047e-01  5.70233989e-01  1.97532035e-01
 -2.03969615e-01 -6.30882762e-01 -1.07643101e+00 -1.53383795e+00
 -1.99293899e+00 -2.44187544e+00 -2.86878858e+00 -3.26012563e+00
 -3.59894559e+00 -3.87000156e+00 -4.05465844e+00 -4.13936343e+00
 -4.11225783e+00 -3.96656525e+00 -3.70059158e+00 -3.32280733e+00
 -2.84676529e+00 -2.29110055e+00 -1.67953053e+00 -1.03916081e+00
 -3.90320591e-01  2.43272730e-01  8.48066355e-01  1.40881338e+00
  1.92043152e+00  2.37953256e+00  2.78611651e+00  3.14187747e+00
  3.45189773e+00  3.71956550e+00  3.95165717e+00  4.15156094e+00
  4.32774732e+00  4.48191040e+00  4.61913249e+00  4.74449587e+00
  4.85630646e+00  4.95795244e+00  5.04604563e+00  5.11889192e+00
  5.17140902e+00  5.20359691e+00  5.20867921e+00  5.18496181e+00
  5.13075062e+00  5.04773973e+00  4.93423505e+00  4.79531886e+00
  4.63437938e+00  4.45311071e+00  4.25490103e+00  4.04313856e+00
  3.81612919e+00  3.57556702e+00  3.31975795e+00  3.04361968e+00
  2.74715222e+00  2.43035556e+00  2.09661790e+00  1.74932744e+00
  1.39695469e+00  1.05474653e+00  7.31173469e-01  4.44870605e-01
  2.07696634e-01  2.98161563e-02 -8.19944298e-02 -1.26041024e-01
 -1.04017727e-01 -1.93127376e-02  1.17909345e-01  2.99178023e-01
  5.16022796e-01  7.58279066e-01  1.01917043e+00  1.29192050e+00
  1.57144696e+00  1.85436163e+00  2.13388809e+00  2.40833226e+00
  2.67261183e+00  2.92333860e+00  3.15543027e+00  3.36380454e+00
  3.54337912e+00  3.69076580e+00  3.80088229e+00  3.87372858e+00
  3.90761057e+00  3.90591647e+00  3.87034038e+00  3.80765869e+00
  3.71956550e+00  3.61622541e+00  3.50102662e+00  3.37905144e+00
  3.25538216e+00  3.13340697e+00  3.01481998e+00  2.90300940e+00
  2.79797521e+00  2.69971742e+00  2.60654194e+00  2.52014285e+00
  2.43374376e+00  2.34395647e+00  2.24400458e+00  2.13049989e+00
  1.99327781e+00  1.82725603e+00  1.62057586e+00  1.36646089e+00
  1.06152293e+00  6.95597373e-01  2.70378326e-01 -2.19216513e-01
 -7.71493044e-01 -1.38475717e+00 -2.05053838e+00 -2.76375440e+00
 -3.51932290e+00 -4.30707930e+00 -5.11855310e+00 -5.94527380e+00
 -6.77877090e+00 -7.61057389e+00 -8.42712999e+00 -9.21827459e+00
 -9.96876080e+00 -1.06582594e+01 -1.12715235e+01 -1.17831417e+01
 -1.21744787e+01 -1.24285937e+01 -1.25302397e+01 -1.24726403e+01
 -1.22574896e+01 -1.18966464e+01 -1.14036633e+01 -1.08073402e+01
 -1.01347826e+01 -9.41309607e+00 -8.67446856e+00 -7.94431155e+00]","[-3.14335893 -2.94345825 -2.7007217  -2.41832233 -2.10260617 -1.75515974
 -1.38391561 -0.99680635 -0.59859149 -0.1956171   0.20577078  0.60081261
  0.98633536  1.359166    1.71771802  2.06040491  2.38564015  2.69342374
  2.98216918  3.24711691  3.48826694  3.69927322  3.87696272  4.01816241
  4.11811275  4.17522723  4.19109236  4.16729466  4.11018018  4.02292195
  3.91503904  3.79446402  3.66754295  3.53903537  3.41528733  3.29788534
  3.1868294   3.08370603  2.98851523  2.89967048  2.81399876  2.73150006
  2.6521744   2.57443524  2.49669609  2.42054344  2.3443908   2.26823816
  2.19208552  2.11593288  2.03978024  1.96521411  1.88906147  1.81290882
  1.73675618  1.66060354  1.5844509   1.50829826  1.43373213  1.35757949
  1.28142685  1.20527421  1.13070808  1.05614195  0.98316233  0.91176923
  0.84354916  0.78008862  0.72456065  0.68013828  0.64840801  0.63730242
  0.6468215   0.68331131  0.74677184  0.83878962  0.95619161  1.08945873
  1.22907191  1.36075252  1.46387588  1.52257688  1.51623083  1.4305591
  1.25445612  0.97998931  0.61191821  0.15341584 -0.38282568 -0.9793547
 -1.6203061  -2.28981474 -2.96884246 -3.64311065 -4.29675415 -4.91549437
 -5.48346615 -5.98480437 -6.40523042 -6.73046566 -6.94781799 -7.05094136
 -7.03507622 -6.90656864 -6.67493769 -6.36080804 -5.9879774  -5.58341649
 -5.17409604 -4.79015981 -4.45381898 -4.1841117  -3.9937301  -3.89219324
 -3.87950114 -3.95248075 -4.10319952 -4.32213837 -4.59660518 -4.91232134
 -5.25818125 -5.6199063  -5.98639089 -6.34652942 -6.69080282 -7.00651898
 -7.28415882 -7.50944372 -7.67444111 -7.76645889 -7.77756448 -7.70458486
 -7.54752004 -7.31430258 -7.01603806 -6.67017815 -6.29734751 -5.91817081
 -5.55168623 -5.21534539]",4.242576454723516,2.610211117333749,5.9028399999999985,
054,1,2,csm,26a.png,1,1,28,94,32,1,0,685,neu_feedback_onset,8,"[ 4.79190908e-01  7.32367351e-01  9.25183846e-01  1.05764040e+00
  1.13309033e+00  1.15153365e+00  1.11632368e+00  1.03249042e+00
  9.01710534e-01  7.25660690e-01  5.06017551e-01  2.47811114e-01
 -4.72819581e-02 -3.69201673e-01 -7.14594700e-01 -1.07172438e+00
 -1.43388406e+00 -1.79101375e+00 -2.13137678e+00 -2.44994316e+00
 -2.73329958e+00 -2.97306270e+00 -3.15917253e+00 -3.28324576e+00
 -3.33186905e+00 -3.30001241e+00 -3.18264584e+00 -2.97809269e+00
 -2.69305961e+00 -2.33760659e+00 -1.92850029e+00 -1.48250735e+00
 -1.01974776e+00 -5.58664838e-01 -1.14348565e-01  3.03141065e-01
  6.90450721e-01  1.04422707e+00  1.36950012e+00  1.66794652e+00
  1.94291961e+00  2.19777272e+00  2.43082918e+00  2.63705900e+00
  2.81143217e+00  2.94388872e+00  3.02772198e+00  3.05119529e+00
  3.01095533e+00  2.90197209e+00  2.72759891e+00  2.48951246e+00
  2.19944938e+00  1.86579301e+00  1.50363333e+00  1.12470700e+00
  7.44104007e-01  3.68531007e-01  6.37132768e-03 -3.37345034e-01
 -6.57588084e-01 -9.57711151e-01 -1.23436091e+00 -1.49089068e+00
 -1.72227047e+00 -1.92850029e+00 -2.10622680e+00 -2.25042000e+00
 -2.35269658e+00 -2.40634987e+00 -2.40802653e+00 -2.35101992e+00
 -2.23365335e+00 -2.05928017e+00 -1.82957704e+00 -1.55628062e+00
 -1.24945089e+00 -9.24177847e-01 -5.95551472e-01 -2.78661753e-01
  1.14013232e-02  2.64577765e-01  4.67454252e-01  6.15000788e-01
  7.03864043e-01  7.32367351e-01  7.00510712e-01  6.13324123e-01
  4.74160913e-01  2.91404408e-01  7.00846045e-02 -1.81415172e-01
 -4.58064927e-01 -7.54834664e-01 -1.06334106e+00 -1.38190744e+00
 -1.70550382e+00 -2.03245353e+00 -2.36107991e+00 -2.69138295e+00
 -3.02000932e+00 -3.34863570e+00 -3.67726207e+00 -4.00588845e+00
 -4.33283816e+00 -4.65978787e+00 -4.98673758e+00 -5.31201062e+00
 -5.63896033e+00 -5.96423338e+00 -6.28782976e+00 -6.60974947e+00
 -6.92999252e+00 -7.24185225e+00 -7.54700531e+00 -7.83706838e+00
 -8.10701148e+00 -8.35012793e+00 -8.55468108e+00 -8.71061094e+00
 -8.80618086e+00 -8.82797751e+00 -8.76761756e+00 -8.61671769e+00
 -8.37024791e+00 -8.02820821e+00 -7.59898193e+00 -7.08927571e+00
 -6.51585622e+00 -5.89884344e+00 -5.25668067e+00 -4.61284124e+00
 -3.99079846e+00 -3.41067231e+00 -2.89090610e+00 -2.44658983e+00
 -2.08946015e+00 -1.82622371e+00 -1.66191053e+00 -1.59652058e+00
 -1.62334723e+00 -1.73736046e+00 -1.92850029e+00 -2.18838339e+00
 -2.50359645e+00 -2.86407946e+00 -3.25809578e+00 -3.67558541e+00
 -4.10816502e+00 -4.54577464e+00 -4.98170758e+00 -5.40758054e+00
 -5.81501018e+00 -6.19225984e+00 -6.52926954e+00 -6.81430262e+00
 -7.03394576e+00 -7.17646230e+00 -7.23179225e+00 -7.19490562e+00
 -7.06077241e+00 -6.83777594e+00 -6.53429954e+00 -6.16543320e+00
 -5.74962024e+00 -5.30698063e+00 -4.85595769e+00 -4.41499475e+00
 -3.99582846e+00 -3.60851880e+00 -3.25474245e+00 -2.93952939e+00
 -2.65617298e+00 -2.40131987e+00 -2.17161674e+00 -1.95868026e+00
 -1.76083377e+00 -1.57304727e+00 -1.39029077e+00 -1.21256426e+00
 -1.03819108e+00 -8.63817901e-01 -6.92798052e-01 -5.21778204e-01
 -3.50758356e-01 -1.81415172e-01 -1.20719893e-02  1.55594529e-01
  3.19907716e-01  4.80867574e-01  6.38474101e-01  7.91050632e-01
  9.36920503e-01  1.07440705e+00  1.20351027e+00  1.32087683e+00
  1.42818340e+00  1.52207665e+00  1.60590991e+00  1.67968318e+00
  1.74339645e+00  1.80207974e+00  1.86076302e+00  1.92279963e+00
  1.99489623e+00  2.07872949e+00  2.18100607e+00  2.30004929e+00
  2.43753584e+00  2.59178904e+00  2.75777889e+00  2.93215207e+00
  3.11155524e+00  3.29263508e+00  3.47203825e+00  3.65144143e+00
  3.83252127e+00  4.02198443e+00  4.22318426e+00  4.44282739e+00
  4.68929718e+00  4.96762360e+00  5.27780665e+00  5.61984635e+00
  5.98703602e+00  6.36931569e+00  6.75159535e+00  7.12046169e+00
  7.45579472e+00  7.74082780e+00  7.96047094e+00  8.10466415e+00
  8.15999410e+00  8.12478413e+00  8.00071091e+00  7.78945109e+00
  7.50106468e+00  7.14393500e+00  6.73315203e+00  6.27877577e+00
  5.79589619e+00  5.29289664e+00  4.77983710e+00  4.26174755e+00
  3.74701134e+00  3.23395180e+00  2.72592225e+00  2.22292270e+00
  1.72159981e+00  1.22195358e+00  7.20630694e-01  2.15954475e-01
 -2.92075074e-01 -8.05134619e-01 -1.32154749e+00 -1.83963704e+00
 -2.35772658e+00 -2.87581612e+00 -3.38719900e+00 -3.89187522e+00]","[-1.54624267 -1.39167418 -1.2339187  -1.07297625 -0.90884682 -0.74312389
 -0.57580748 -0.40689758 -0.2348007  -0.06111033  0.11417353  0.28945739
  0.46314776  0.63205767  0.79459361  0.94597512  1.08301523  1.19933998
  1.29335587  1.36028243  1.39852618  1.40330665  1.37621733  1.31407123
  1.21527487  1.08142174  0.91251184  0.71013866  0.47748917  0.22093734
 -0.05632986 -0.34634497 -0.64432754 -0.9423101  -1.23869917 -1.5271208
 -1.80598148 -2.07528123 -2.33502004 -2.58519792 -2.82740834 -3.06165132
 -3.28792685 -3.50623493 -3.71338858 -3.90779432 -4.08785864 -4.24720761
 -4.38424772 -4.4941985  -4.57705996 -4.62964512 -4.65195398 -4.64398653
 -4.61211674 -4.5563446  -4.48145059 -4.39062168 -4.29023183 -4.18187453
 -4.06873677 -3.95081854 -3.8329003  -3.71338858 -3.59387686 -3.47436513
 -3.35325992 -3.23215471 -3.10945601 -2.9867573  -2.85927813 -2.73020547
 -2.59635234 -2.45771874 -2.31430468 -2.16770363 -2.01632211 -1.8649406
 -1.71355908 -1.56855153 -1.43151142 -1.30721923 -1.19886193 -1.11122
 -1.04588692 -1.00604968 -0.99489526 -1.01561062 -1.07138276 -1.16699214
 -1.30562574 -1.495251   -1.73746143 -2.03703748 -2.39238567 -2.80191251
 -3.25605705 -3.74366488 -4.25198808 -4.76349825 -5.26226051 -5.73552693
 -6.17214309 -6.56414154 -6.90833531 -7.20631787 -7.45968272 -7.67321033
 -7.85008768 -7.99509524 -8.10982649 -8.19587493 -8.25005358 -8.27236244
 -8.26120801 -8.21180983 -8.1241679  -7.99828222 -7.83574628 -7.63656007
 -7.40709756 -7.15054573 -6.87168504 -6.57688946 -6.27253294 -5.96020897
 -5.64947849 -5.34193499 -5.04395243 -4.75712429 -4.48782454 -4.23605318
 -4.00340369 -3.78987608 -3.59547035 -3.41699951 -3.25127658 -3.09670809
 -2.95010704 -2.81147344]",5.094127983206521,-0.11819709395295483,5.96422,0.2644599999999997
054,1,2,csp,8b.png,1,0,280,91,281,1,0,NaN,neg_feedback_onset,9,"[nan nan nan nan nan nan nan nan nan nan nan nan nan nan nan nan nan nan
 nan nan nan nan nan nan nan nan nan nan nan nan nan nan nan nan nan nan
 nan nan nan nan nan nan nan nan nan nan nan nan nan nan nan nan nan nan
 nan nan nan nan nan nan nan nan nan nan nan nan nan nan nan nan nan nan
 nan nan nan nan nan nan nan nan nan nan nan nan nan nan nan nan nan nan
 nan nan nan nan nan nan nan nan nan nan nan nan nan nan nan nan nan nan
 nan nan nan nan nan nan nan nan nan nan nan nan nan nan nan nan nan nan
 nan nan nan nan nan nan nan nan nan nan nan nan nan nan nan nan nan nan
 nan nan nan nan nan nan nan nan nan nan nan nan nan nan nan nan nan nan
 nan nan nan nan nan nan nan nan nan nan nan nan nan nan nan nan nan nan
 nan nan nan nan nan nan nan nan nan nan nan nan nan nan nan nan nan nan
 nan nan nan nan nan nan nan nan nan nan nan nan nan nan nan nan nan nan
 nan nan nan nan nan nan nan nan nan nan nan nan nan nan nan nan nan nan
 nan nan nan nan nan nan nan nan nan nan nan nan nan nan nan nan nan nan
 nan nan nan nan nan nan nan nan]","[-4.33063189 -3.73920484 -3.17839664 -2.64820727 -2.14219067 -1.65873531
 -1.19139514 -0.74017014 -0.30344881  0.11876886  0.52487136  0.91002412
  1.27261564  1.61103438  1.92528036  2.21374206  2.4796425   2.72781625
  2.96148634  3.18709883  3.40626526  3.62220865  3.834929    4.04442632
  4.24425454  4.43280212  4.60362301  4.75188266  4.87596953  4.97427212
  5.0451789   5.0903014   5.11608569  5.12253176  5.11608569  5.09997051
  5.07579774  5.05001346  5.02261765  4.99361033  4.96621453  4.93881873
  4.91142292  4.88563864  4.85985435  4.83407007  4.8098973   4.78411301
  4.75994024  4.73576748  4.70998319  4.68581042  4.66163766  4.63585337
  4.6116806   4.58750784  4.56172355  4.53755078  4.51337802  4.48920525
  4.466644    4.44408275  4.42474453  4.40701784  4.39251418  4.38123355
  4.376399    4.37801052  4.38445659  4.39573721  4.40862936  4.42313302
  4.43280212  4.43441364  4.4215215   4.39090266  4.33772257  4.26036971
  4.16045561  4.03959177  3.90261275  3.75435311  3.60448195  3.46105687
  3.33052392  3.21932919  3.13553026  3.07912714  3.05011982  3.05011982
  3.07106955  3.10652294  3.15003392  3.19193339  3.22416374  3.23705589
  3.22738678  3.18871035  3.11780357  3.01627794  2.885745    2.73103928
  2.55699536  2.37005929  2.17828866  1.98651804  1.80441653  1.63681867
  1.48533599  1.35641457  1.25005439  1.17109001  1.11952144  1.09534868
  1.10179475  1.13885966  1.20493189  1.30323448  1.4321559   1.59169617
  1.7754092   1.98490652  2.21374206  2.45546973  2.705255    2.9582633
  3.20321401  3.43849562  3.65282749  3.84620963  4.01058445  4.14595195
  4.25070061  4.32483043  4.37156445  4.39251418  4.39251418  4.37478748
  4.34416864  4.3038807 ]",,4.329302390042125,5.998265,0.06184499999999904
054,1,2,csm,54a.png,1,1,240,NaN,246,1,1,766,neu_feedback_onset,10,"[ -2.7880694   -2.34768764  -1.90730589  -1.47785559  -1.07026822
  -0.68922868  -0.34410681  -0.03646423   0.22745249   0.45076665
   0.63347823   0.77871051   0.8911484    0.97703846   1.03950396
   1.08479145   1.1160242    1.13944876   1.15506513   1.16755823
   1.17536642   1.18317461   1.18942116   1.19410607   1.19879098
   1.20191426   1.20191426   1.19722934   1.18785952   1.16911987
   1.13632548   1.08479145   1.00827121   0.90207987   0.7615325
   0.57882092   0.35550676   0.09159004  -0.20824435  -0.53618821
  -0.88287173  -1.23424015  -1.57780039  -1.90262097  -2.20089373
  -2.46481045  -2.69280952  -2.88489092  -3.04417794  -3.17223221
  -3.27530028  -3.35650543  -3.41897093  -3.46269678  -3.48924461
  -3.4970528   -3.4845597   -3.45020368  -3.38929982  -3.30028648
  -3.18316367  -3.03480812  -2.85521981  -2.65064531  -2.42264624
  -2.18059244  -1.93073045  -1.6824301   -1.44818448  -1.23424015
  -1.05152857  -0.90629629  -0.80322822  -0.74232436  -0.72514634
  -0.74544763  -0.80166658  -0.88443336  -0.98906307  -1.10462424
  -1.2279936   -1.3529246   -1.47317068  -1.58873185  -1.69492319
  -1.79330635  -1.88231969  -1.96664811  -2.04316834  -2.1165653
  -2.18527735  -2.25242776  -2.31801653  -2.38204367  -2.44450917
  -2.5085363   -2.5710018   -2.6334673   -2.69593279  -2.75683665
  -2.81930215  -2.88020601  -2.94110987  -3.00357537  -3.0676025
  -3.13631455  -3.20971151  -3.29403993  -3.39242309  -3.5095459
  -3.64853163  -3.81562684  -4.01395479  -4.24507713  -4.50899386
  -4.8025817   -5.12584065  -5.47096252  -5.83170077  -6.20180884
  -6.57191692  -6.93265517  -7.27465377  -7.58541962  -7.85402126
  -8.06796558  -8.21788278  -8.29284138  -8.28659483  -8.19758149
  -8.02736301  -7.7806243   -7.46673517  -7.10287365  -6.69997119
  -6.27676744  -5.84731715  -5.42567504  -5.02277258  -4.64797959
  -4.30910427  -4.00770824  -3.74691479  -3.52516227  -3.34245069
  -3.19409514  -3.07541069  -2.98015081  -2.90363057  -2.83960344
  -2.78026122  -2.71935735  -2.65064531  -2.57256344  -2.48198846
  -2.37423548  -2.2539894   -2.12281185  -1.9869494   -1.8495253
  -1.72147103  -1.61059477  -1.52314308  -1.46848577  -1.44818448
  -1.46692413  -1.52470471  -1.61684132  -1.73864904  -1.88544296
  -2.04785326  -2.21807174  -2.38829022  -2.55226215  -2.70374098
  -2.8380418   -2.95516461  -3.0551094   -3.13943783  -3.21439642
  -3.28310847  -3.35650543  -3.43771058  -3.5345321   -3.65165491
  -3.79220228  -3.95617421  -4.14513234  -4.35439175  -4.58239082
  -4.82444462  -5.07899153  -5.34290825  -5.61150989  -5.88635808
  -6.16120627  -6.43917774  -6.7171492   -6.99512066  -7.27309213
  -7.54794032  -7.81810359  -8.0851436   -8.34593705  -8.59579904
  -8.83472957  -9.05960536  -9.2657415   -9.45001472  -9.61398665
  -9.75297238  -9.86697191  -9.95754689 -10.0246973  -10.07154642
 -10.09965589 -10.11371063 -10.11527227 -10.10746408 -10.09184771
 -10.06842314 -10.03875203 -10.00127273  -9.95442361  -9.89664303
  -9.82324607  -9.73110946  -9.61398665  -9.47031601  -9.29697425
  -9.09239974  -8.85971577  -8.60204559  -8.3271974   -8.04297939
  -7.75719973  -7.48078991  -7.21999646  -6.98106593  -6.7671216
  -6.58128674  -6.42356136  -6.29238382  -6.18931575  -6.11435715
  -6.06594639  -6.0456451   -6.05657656  -6.09717914  -6.17213773
  -6.28145235  -6.42199972  -6.59377984  -6.7921078   -7.01073704
  -7.24498265  -7.48703646  -7.72752862  -7.9602126   -8.17884184]","[-2.95885434 -2.66045649 -2.34968981 -2.03119263 -1.70651103 -1.37873722
 -1.05096342 -0.72318961 -0.39696191 -0.07382641  0.24467078  0.55698355
  0.86156582  1.15841756  1.44444659  1.721199    1.98249039  2.23141294
  2.46023617  2.66896005  2.84830798  2.99209555  3.08950003  3.1296987
  3.10032275  2.98745724  2.78182556  2.4756972   2.06597994  1.55112769
  0.93887096  0.23848637 -0.53765727 -1.37100671 -2.24300872 -3.13201786
 -4.01638869 -4.87447577 -5.68463367 -6.43140135 -7.09467947 -7.66519143
 -8.13366059 -8.49544866 -8.75364784 -8.91444253 -8.98556326 -8.97783275
 -8.90671202 -8.78147769 -8.61759079 -8.42278183 -8.20787353 -7.97905031
 -7.73940436 -7.49357401 -7.24465145 -6.99418279 -6.74062192 -6.48860715
 -6.23504629 -5.98303152 -5.73101676 -5.47900199 -5.23007943 -4.98424908
 -4.74460313 -4.51268771 -4.2931411  -4.08905552 -3.90970759 -3.75973562
 -3.64687011 -3.57729548 -3.56028835 -3.59739482 -3.69325319 -3.84477127
 -4.04885685 -4.29623331 -4.57453182 -4.87138357 -5.17132752 -5.46199486
 -5.73101676 -5.9691166  -6.17165607 -6.33554297 -6.4607773  -6.55199737
 -6.61384149 -6.64940185 -6.66640898 -6.66795509 -6.66022457 -6.64476354
 -6.6231181  -6.59838046 -6.5690045  -6.53653634 -6.50097598 -6.4592312
 -6.41130201 -6.35873451 -6.2984365  -6.23040798 -6.15464894 -6.07425159
 -5.98766983 -5.89799586 -5.80522969 -5.71246352 -5.62278956 -5.5362078
 -5.45735655 -5.38623582 -5.32593781 -5.27955472 -5.24863267 -5.23780995
 -5.24863267 -5.28264693 -5.34139884 -5.42488839 -5.5362078  -5.66917264
 -5.82532903 -6.00003865 -6.1886632  -6.38965657 -6.59838046 -6.81019655
 -7.02510485 -7.23692094 -7.44564482 -7.6481843  -7.83990105 -8.01924898
 -8.18004368 -8.31764683]",0.47165354761080175,-0.3753937730707445,6.403535000000001,0.2411500000000002
054,1,2,csm,33a.png,1,1,168,NaN,167,1,1,711,neu_feedback_onset,11,"[-0.99617316 -0.75409379 -0.51201443 -0.28154161 -0.07262381  0.10976475
  0.25733368  0.36842489  0.44303839  0.48117418  0.48449034  0.45630302
  0.39992837  0.32034064  0.21753981  0.09815821 -0.0361461  -0.18039887
 -0.32962587 -0.47387864 -0.6114991  -0.73253878 -0.83368153 -0.90829503
 -0.95637929 -0.97461814 -0.96798583 -0.93482428 -0.88010771 -0.80881036
 -0.72093224 -0.62476372 -0.51864674 -0.40921361 -0.29480624 -0.17708271
 -0.05935919  0.06002242  0.17940402  0.3004437   0.42148338  0.54252306
  0.66190467  0.78294435  0.90398403  1.02502371  1.14606339  1.26710307
  1.38814275  1.50918243  1.63022212  1.7512618   1.87230148  1.99334116
  2.11438084  2.23542052  2.3564602   2.47749988  2.59688149  2.71792117
  2.83730277  2.95668437  3.07274982  3.18715719  3.29493225  3.39441692
  3.48229505  3.55359239  3.60167665  3.6199155   3.60001857  3.53535354
  3.41763001  3.24353184  3.00974287  2.71626309  2.36640867  1.96515384
  1.52244706  1.04657872  0.55081345  0.04841587 -0.4473494  -0.91990158
 -1.35265989 -1.73235971 -2.04076219 -2.26294461 -2.38895853 -2.41051354
 -2.32760965 -2.14356301 -1.86998017 -1.52178383 -1.12218707 -0.68942876
 -0.2450639   0.19101057  0.60387194  0.98357176  1.32181964  1.61364134
  1.8557207   2.04971581  2.1923105   2.28018862  2.31500826  2.28847901
  2.20060089  2.04805773  1.82919145  1.54068591  1.18585726  0.76967973
  0.29546947 -0.22682505 -0.78559727 -1.37089874 -1.96614868 -2.55642439
 -3.12514508 -3.65075575 -4.11335946 -4.49471736 -4.77659059 -4.9407403
 -4.98053417 -4.89265604 -4.68208016 -4.36372922 -3.95418399 -3.48163181
 -2.97426    -2.45528164 -1.95122598 -1.48198996 -1.05918011 -0.68942876
 -0.37771013 -0.11904999  0.0915259   0.26064983  0.39661222  0.50936151
  0.60387194  0.69009199  0.77299588  0.85755785  0.95041021  1.05321103
  1.16596033  1.29363232  1.43291086  1.58379594  1.74297141  1.90877919
  2.07956121  2.24868514  2.41283485  2.56703609  2.70631462  2.82403815
  2.91854858  2.98321362  3.01803325  3.01969133  2.99150401  2.93015513
  2.84227701  2.73118579  2.60019764  2.45594487  2.30008556  2.14256816
  1.98505077  1.83416569  1.69654523  1.57218939  1.46773049  1.38151044
  1.31684541  1.27207731  1.24388998  1.23228344  1.23394152  1.24554806
  1.26378692  1.28865808  1.31684541  1.34834889  1.38151044  1.41633008
  1.45114971  1.48596935  1.52244706  1.55726669  1.59208633  1.62856404
  1.66338367  1.69986138  1.73468102  1.77115873  1.80597837  1.84245608
  1.87727571  1.91375342  1.94857306  1.98505077  2.0198704   2.05634812
  2.09116775  2.12764546  2.1624651   2.19894281  2.23376244  2.26858208
  2.30340171  2.33822135  2.37304098  2.40454446  2.43438986  2.46091911
  2.48247412  2.49739682  2.50237105  2.49573874  2.47418373  2.43438986
  2.37635714  2.2967694   2.19396858  2.07127082  1.92701805  1.76452642
  1.58711209  1.39643314  1.19580573  0.99020408  0.77797011  0.56407808
  0.34686988  0.12966169 -0.08588843 -0.30309663 -0.52030482 -0.73751302
 -0.95306313 -1.17027133 -1.38747952 -1.60302964 -1.82023783 -2.03578795
 -2.25133807 -2.46854626 -2.68409638 -2.90130458 -3.11685469 -3.33406289
 -3.549613   -3.7668212 ]","[-2.12075618 -2.02156901 -1.90893273 -1.78284734 -1.63826944 -1.47015559
 -1.27682467 -1.04987097 -0.79265679 -0.50181983 -0.18072239  0.16559214
  0.53039919  0.9069742   1.28859263  1.66684879  2.03501811  2.38805719
  2.72428489  3.03865778  3.33117587  3.59847689  3.8439231   4.06583338
  4.26420772  4.4424084   4.60043541  4.74501332  4.87782326  5.00558979
  5.12999403  5.25776056  5.38888936  5.52842385  5.67804517  5.83439105
  5.99914262  6.17061874  6.34713828  6.52870124  6.71362647  6.90023284
  7.08683921  7.27512672  7.46341422  7.65002059  7.83662696  8.01987106
  8.20143401  8.37795355  8.54942967  8.71250011  8.86380257  9.0050182
  9.13278472  9.245421    9.34124589  9.4202594   9.47909925  9.52112771
  9.54466365  9.5513882   9.53793909  9.50935974  9.463969    9.40512915
  9.33620248  9.25887011  9.17649432  9.08739398  8.99325023  8.89070078
  8.77638337  8.64525457  8.48722755  8.2972589   8.06862407  7.79123623
  7.46509536  7.08683921  6.65478662  6.17398102  5.65114696  5.08964671
  4.50292938  3.90276295  3.30091538  2.71419805  2.16278464  1.66348651
  1.23983962  0.91201762  0.70019417  0.62118066  0.68506393  0.89016282
  1.23143393  1.69206587  2.24516042  2.8604571   3.50769541  4.15325258
  4.76854926  5.33173065  5.82430422  6.23954542  6.5707297   6.82121933
  6.99605773  7.10028832  7.14567905  7.13727336  7.08683921  6.99942001
  6.88342145  6.74388696  6.58922222  6.42110837  6.24626997  6.06975043
  5.8932309   5.72007363  5.5570032   5.4040196   5.26784739  5.14848656
  5.04929939  4.97364815  4.923214    4.9013592   4.90640262  4.94170652
  5.00727092  5.09973354  5.22077551  5.36871569  5.54019182  5.73520388
  5.94534619  6.17229988]",1.8033254408828747,8.577756856943514,6.031080000000001,0.2003049999999993
054,1,2,csp,6b.png,1,1,140,NaN,133,1,0,570,neg_feedback_onset,12,"[  0.14976681   0.19322247   0.23823011   0.28168577   0.32048546
   0.34842124   0.36238913   0.35773317   0.33290136   0.28634173
   0.21960626   0.13424694   0.03181575  -0.08147935  -0.20563837
  -0.33445335  -0.46637231  -0.59673927  -0.72400227  -0.84816128
  -0.96766434  -1.08406341  -1.20046249  -1.31996555  -1.44567655
  -1.58380346  -1.73434626  -1.90351292  -2.08975145  -2.29306184
  -2.50878813  -2.72917038  -2.94955264  -3.15751899  -3.34375752
  -3.4974043   -3.61225139  -3.67898686  -3.69605873  -3.661915
  -3.58276362  -3.46326057  -3.31582174  -3.15131104  -2.98369637
  -2.83004959  -2.69968262  -2.60811534  -2.56465969  -2.5755236
  -2.64381106  -2.76641809  -2.94024071  -3.15441502  -3.39807709
  -3.66036301  -3.92420092  -4.17717492  -4.40842109  -4.61173148
  -4.77934615  -4.9112651   -5.0121443   -5.08353574  -5.13630332
  -5.17820699  -5.21700668  -5.25891035  -5.31167793  -5.37686142
  -5.45601279  -5.55068404  -5.6562192   -5.77417027  -5.89832929
  -6.02869625  -6.16061521  -6.29098218  -6.41824517  -6.53774822
  -6.64793935  -6.74416259  -6.82176197  -6.87452955  -6.90246533
  -6.89936136  -6.86366564  -6.79537818  -6.69760295  -6.57499593
  -6.43531703  -6.28477422  -6.13423142  -5.99144855  -5.86573754
  -5.76175437  -5.68260299  -5.6313874   -5.60500361  -5.60034765
  -5.61276355  -5.63759535  -5.66708312  -5.69812287  -5.72605865
  -5.74933847  -5.76796232  -5.78503418  -5.80210605  -5.82383388
  -5.85952959  -5.91074519  -5.98679258  -6.09387974  -6.23355863
  -6.40893324  -6.62465953  -6.87918552  -7.16940722  -7.49222066
  -7.84452187  -8.22165488  -8.61896374  -9.02868849  -9.44617319
  -9.86676186 -10.28424655 -10.69241932 -11.08196823 -11.44668534
 -11.77881071 -12.06903241 -12.30959051 -12.49427705 -12.61998805
 -12.68517153 -12.69603545 -12.65723575 -12.57963637 -12.47565319
 -12.35615014 -12.23354311 -12.11404006 -12.0069529  -11.91383364
 -11.83468227 -11.76949879 -11.71362723 -11.6670676  -11.62516393
 -11.58946821 -11.55842846 -11.53204467 -11.51031684 -11.49634895
 -11.48703702 -11.48082907 -11.4777251  -11.47462112 -11.46841317
 -11.45444528 -11.43271745 -11.4016777  -11.35977403 -11.31011042
 -11.25579085 -11.1999193  -11.14715171 -11.10214407 -11.07110432
 -11.05868842 -11.06800034 -11.10214407 -11.16267159 -11.25268688
 -11.36908596 -11.51342081 -11.68103549 -11.87037799 -12.07368838
 -12.28786268 -12.50824493 -12.72862719 -12.94435348 -13.15387182
 -13.35407824 -13.54652471 -13.72810727 -13.9019299  -14.06954457
 -14.23250328 -14.38925404 -14.54445281 -14.69809959 -14.85019439
 -15.00073719 -15.15128    -15.30182281 -15.45236562 -15.60290842
 -15.75345123 -15.90244205 -16.05298486 -16.20352767 -16.35407048
 -16.50461328 -16.6536041  -16.80414691 -16.95468972 -17.10523253
 -17.25422335 -17.40476615 -17.55530896 -17.70585177 -17.85484259
 -18.0053854  -18.15592821 -18.30647101 -18.45546183 -18.60445265
 -18.75344347 -18.90088231 -19.04366517 -19.18334407 -19.31526302
 -19.43631806 -19.54030124 -19.61945261 -19.66601225 -19.66911622
 -19.6210046  -19.51236546 -19.33388688 -19.08246487 -18.75654745
 -18.36389456 -17.90916216 -17.40631814 -16.87088238 -16.31527078
 -15.75655521 -15.20559957 -14.67016381 -14.15955986 -13.67999565
 -13.23147121 -12.81864248 -12.44461344 -12.11559204 -11.83313028
 -11.60654008 -11.43582143 -11.33028626 -11.28683061 -11.30700645
 -11.38615782 -11.51807678 -11.69034741 -11.89210581 -12.11093608]","[-1.73387568 -1.6111502  -1.47833769 -1.33375699 -1.17740809 -1.01265333
 -0.83781155 -0.65288275 -0.46122926 -0.25948874 -0.04934237  0.16920986
  0.39953028  0.6416189   0.89379455  1.15773839  1.42840691  1.70411895
  1.97646865  2.23705015  2.4774576   2.6859228   2.8540399   2.97172186
  3.03056285  3.02383816  2.95154781  2.81201062  2.60522659  2.33792041
  2.01849792  1.65368382  1.25692748  0.8383159   0.41297965 -0.00899426
 -0.4124753  -0.78569525 -1.1185671  -1.39932266 -1.62459957 -1.79271666
 -1.90199278 -1.95915259 -1.97260196 -1.95074673 -1.90703629 -1.8481953
 -1.78599198 -1.72546982 -1.67335352 -1.62964308 -1.59433849 -1.56912092
 -1.55230921 -1.54054102 -1.53213516 -1.52877282 -1.52541048 -1.52372931
 -1.52372931 -1.52372931 -1.52372931 -1.52372931 -1.52372931 -1.52372931
 -1.52372931 -1.52541048 -1.52541048 -1.52541048 -1.52541048 -1.52541048
 -1.52541048 -1.52541048 -1.52709165 -1.52709165 -1.52709165 -1.52709165
 -1.52709165 -1.52709165 -1.52709165 -1.52877282 -1.52877282 -1.52877282
 -1.52877282 -1.52877282 -1.52877282 -1.52877282 -1.53045399 -1.53045399
 -1.53045399 -1.53045399 -1.53045399 -1.53045399 -1.53045399 -1.53213516
 -1.53213516 -1.53213516 -1.53213516 -1.53213516 -1.53213516 -1.53213516
 -1.53213516 -1.53213516 -1.53213516 -1.53213516 -1.53213516 -1.53045399
 -1.52877282 -1.52372931 -1.5186858  -1.51196111 -1.50187409 -1.48842472
 -1.46993184 -1.44975779 -1.42622139 -1.40100383 -1.37410509 -1.34552519
 -1.32030762 -1.29677123 -1.27995952 -1.27155366 -1.27323483 -1.2866842
 -1.31190177 -1.35224987 -1.40436617 -1.46656949 -1.53885985 -1.61451254
 -1.6918464  -1.76245559 -1.82465891 -1.87341287 -1.90535512 -1.92048566
 -1.91712331 -1.89694926]",-0.2923706075017195,0.7271064441805241,6.443350000000001,0.37496999999999847
054,1,2,csp,29b.png,1,0,52,NaN,58,1,0,245,neg_feedback_onset,13,"[-7.32690052e-01 -6.54726655e-01 -5.70128076e-01 -4.78894313e-01
 -3.81025368e-01 -2.79838831e-01 -1.76993499e-01 -7.58069626e-02
  2.04031869e-02  1.06660562e-01  1.82965164e-01  2.45999400e-01
  2.97422066e-01  3.35574366e-01  3.60456302e-01  3.75385463e-01
  3.77044258e-01  3.70409076e-01  3.52162323e-01  3.25621592e-01
  2.87469292e-01  2.42681808e-01  1.91259142e-01  1.36518885e-01
  8.17786271e-02  3.20147566e-02 -7.79633970e-03 -3.43370706e-02
 -4.42898447e-02 -3.76546620e-02 -1.27727267e-02  2.86971653e-02
  8.34374228e-02  1.46471659e-01  2.14482282e-01  2.82492905e-01
  3.42209549e-01  3.91973419e-01  4.20172946e-01  4.23490537e-01
  3.91973419e-01  3.20645205e-01  2.01211916e-01  2.70383696e-02
 -2.03534230e-01 -4.93823474e-01 -8.42170567e-01 -1.24359912e+00
 -1.69479155e+00 -2.18413627e+00 -2.70333932e+00 -3.24078912e+00
 -3.78321531e+00 -4.31402993e+00 -4.81996261e+00 -5.28110781e+00
 -5.68253636e+00 -6.00268393e+00 -6.22662135e+00 -6.34107825e+00
 -6.33444307e+00 -6.20339821e+00 -5.95457886e+00 -5.59627899e+00
 -5.14674536e+00 -4.62588352e+00 -4.06023419e+00 -3.47302052e+00
 -2.88746564e+00 -2.32181631e+00 -1.79100170e+00 -1.30663336e+00
 -8.75346481e-01 -5.02117453e-01 -1.85287478e-01  7.51434444e-02
  2.80834109e-01  4.35102107e-01  5.41265031e-01  6.02640471e-01
  6.27522406e-01  6.20887223e-01  5.89370106e-01  5.41265031e-01
  4.83207182e-01  4.21831742e-01  3.65432689e-01  3.18986409e-01
  2.85810496e-01  2.69222539e-01  2.69222539e-01  2.85810496e-01
  3.14010022e-01  3.55479914e-01  4.01926194e-01  4.53348860e-01
  5.06430321e-01  5.59511783e-01  6.09275654e-01  6.60698320e-01
  7.12120986e-01  7.66861243e-01  8.26577888e-01  8.96247307e-01
  9.77528295e-01  1.07207965e+00  1.17824257e+00  1.29601707e+00
  1.42374433e+00  1.55810678e+00  1.69578682e+00  1.83014928e+00
  1.95787654e+00  2.07565104e+00  2.18181396e+00  2.27636531e+00
  2.35764630e+00  2.42731572e+00  2.49034996e+00  2.54674901e+00
  2.60148927e+00  2.65622952e+00  2.71428737e+00  2.77400402e+00
  2.83703825e+00  2.90173129e+00  2.96642432e+00  3.02614096e+00
  3.08254001e+00  3.12898629e+00  3.16713859e+00  3.19202053e+00
  3.20694969e+00  3.20694969e+00  3.19367932e+00  3.16713859e+00
  3.12732750e+00  3.07590483e+00  3.01618819e+00  2.94817756e+00
  2.87850815e+00  2.81049752e+00  2.74912208e+00  2.70101701e+00
  2.67115869e+00  2.66452350e+00  2.68277026e+00  2.73087533e+00
  2.80552114e+00  2.90504888e+00  3.02614096e+00  3.16216221e+00
  3.30315984e+00  3.44249868e+00  3.57188474e+00  3.68468285e+00
  3.77094022e+00  3.82899807e+00  3.85719760e+00  3.85388001e+00
  3.82236289e+00  3.76596383e+00  3.69131803e+00  3.60671945e+00
  3.51548569e+00  3.42591072e+00  3.34131214e+00  3.26500754e+00
  3.19865571e+00  3.13893907e+00  3.08585761e+00  3.03609374e+00
  2.98467107e+00  2.92661322e+00  2.85860260e+00  2.77732161e+00
  2.67779387e+00  2.55836058e+00  2.41736295e+00  2.25314217e+00
  2.06735706e+00  1.86000760e+00  1.63607018e+00  1.40052119e+00
  1.16165462e+00  9.24446833e-01  7.00509416e-01  4.98136343e-01
  3.23962797e-01  1.87941551e-01  9.17314012e-02  3.86499394e-02
  2.86971653e-02  5.85554875e-02  1.26566110e-01  2.24435056e-01
  3.48844732e-01  4.93159956e-01  6.52404341e-01  8.23260297e-01
  1.00241023e+00  1.18819535e+00  1.37729805e+00  1.57303594e+00
  1.77209143e+00  1.97778209e+00  2.18844914e+00  2.40409258e+00
  2.62637120e+00  2.85362621e+00  3.08254001e+00  3.30979502e+00
  3.53207364e+00  3.74108190e+00  3.93184340e+00  4.09606418e+00
  4.22710903e+00  4.31668400e+00  4.35981269e+00  4.35151871e+00
  4.29014327e+00  4.17402757e+00  4.00980680e+00  3.79913975e+00
  3.55197919e+00  3.27661911e+00  2.98301227e+00  2.67945266e+00
  2.37589305e+00  2.07896863e+00  1.79033818e+00  1.51166050e+00
  1.23961801e+00  9.67575521e-01  6.88897846e-01  3.91973419e-01
  6.85082616e-02 -2.89791605e-01 -6.92878956e-01 -1.14075379e+00
 -1.63839249e+00 -2.18413627e+00 -2.77300874e+00 -3.39837471e+00
 -4.05691660e+00 -4.74034042e+00 -5.44366979e+00 -6.15861073e+00
 -6.88018685e+00 -7.60508056e+00 -8.32499789e+00 -9.03828003e+00
 -9.73497421e+00 -1.04084453e+01 -1.10503992e+01 -1.16492244e+01
 -1.21982858e+01 -1.26843129e+01 -1.30973531e+01 -1.34324298e+01]","[-1.94859726e+00 -1.60059396e+00 -1.28798084e+00 -1.01075787e+00
 -7.71874256e-01 -5.65431624e-01 -3.91429977e-01 -2.42496363e-01
 -1.12732423e-01  6.70938555e-03  1.21727423e-01  2.39694642e-01
  3.67983992e-01  5.08070064e-01  6.62902038e-01  8.33954504e-01
  1.01680369e+00  1.20555124e+00  1.39429879e+00  1.57419880e+00
  1.73492913e+00  1.86616767e+00  1.96349062e+00  2.01805046e+00
  2.02837259e+00  1.99150783e+00  1.91040537e+00  1.78801438e+00
  1.63170782e+00  1.44443486e+00  1.23504305e+00  1.00795615e+00
  7.67597944e-01  5.19866786e-01  2.66237266e-01  8.18397578e-03
 -2.49869314e-01 -5.09397195e-01 -7.68925075e-01 -1.02992755e+00
 -1.28945543e+00 -1.55045790e+00 -1.80998578e+00 -2.06951366e+00
 -2.32904154e+00 -2.58856942e+00 -2.84662271e+00 -3.10467600e+00
 -3.35830552e+00 -3.60751127e+00 -3.84934407e+00 -4.08085473e+00
 -4.29319572e+00 -4.48194327e+00 -4.63824984e+00 -4.75031870e+00
 -4.80782771e+00 -4.80192935e+00 -4.72377607e+00 -4.56746951e+00
 -4.33153507e+00 -4.02039653e+00 -3.64437602e+00 -3.21821945e+00
 -2.75962189e+00 -2.28922760e+00 -1.82620627e+00 -1.39267674e+00
 -1.00338492e+00 -6.73076710e-01 -4.07650469e-01 -2.11529968e-01
 -8.17660282e-02 -1.68840581e-02 -6.56192652e-03 -4.34266823e-02
 -1.17156194e-01 -2.18902920e-01 -3.41293909e-01 -4.78430800e-01
 -6.24415233e-01 -7.74823436e-01 -9.28180820e-01 -1.08301279e+00
 -1.23784477e+00 -1.39267674e+00 -1.54750872e+00 -1.70234069e+00
 -1.85569807e+00 -2.01053005e+00 -2.16388743e+00 -2.31724482e+00
 -2.46912761e+00 -2.61953581e+00 -2.76699484e+00 -2.91003009e+00
 -3.04421780e+00 -3.16808338e+00 -3.27425388e+00 -3.35683093e+00
 -3.40696700e+00 -3.41876372e+00 -3.38042437e+00 -3.28899978e+00
 -3.13859157e+00 -2.92919976e+00 -2.66672270e+00 -2.36148252e+00
 -2.02527595e+00 -1.67579807e+00 -1.33221854e+00 -1.01223246e+00
 -7.27636549e-01 -4.90227522e-01 -3.02954563e-01 -1.68766852e-01
 -8.02914380e-02 -3.16299604e-02 -1.24602874e-02 -1.24602874e-02
 -2.42570093e-02 -3.75283213e-02 -4.49012725e-02 -4.49012725e-02
 -3.01553702e-02 -2.13815583e-03  3.91503706e-02  9.37102091e-02
  1.55642999e-01  2.21999559e-01  2.82457759e-01  3.31119236e-01
  3.56187270e-01  3.51763499e-01  3.06051202e-01  2.16101198e-01
  7.60151263e-02 -1.11257833e-01 -3.44243089e-01 -6.17042282e-01]",2.4743840476936874,0.46880909881157473,6.02847,0.798449999999999
054,1,2,csm,13a.png,1,1,20,NaN,17,1,0,NaN,neu_feedback_onset,14,"[-1.25505911 -1.36637625 -1.42784988 -1.43117278 -1.37136059 -1.24509042
 -1.0573466  -0.81809784 -0.53731284 -0.23326754  0.07908501  0.38146885
  0.66225386  0.91147131  1.12247543  1.29692765  1.43482797  1.5428222
  1.62423324  1.68736833  1.73887327  1.78207096  1.82028431  1.86182055
  1.90501824  1.95486173  2.00968957  2.06950176  2.13595975  2.20574064
  2.27552153  2.34530242  2.41009896  2.4682497   2.52141609  2.56627523
  2.60615002  2.64104047  2.66762366  2.68922251  2.70085266  2.69752976
  2.67260801  2.61944162  2.52972334  2.39182301  2.20407919  1.95818463
  1.65413934  1.2919433   0.87824232  0.41802075 -0.07875272 -0.60377083
 -1.14374198 -1.68537459 -2.2170385  -2.72045776 -3.18234078 -3.58607306
 -3.91504011 -4.15595032 -4.29717354 -4.33372544 -4.26726745 -4.10444537
 -3.86021227 -3.54952117 -3.19729383 -2.8218062  -2.44465711 -2.07913817
 -1.73854098 -1.42618843 -1.14706488 -0.89784743 -0.67355171 -0.47085485
 -0.28311103 -0.10699736  0.05914761  0.22196968  0.3798074   0.53764513
  0.6938214   0.84667477  0.99952815  1.14905862  1.2919433   1.42984362
  1.5561138   1.66909238  1.76545647  1.84188315  1.89504954  1.92827854
  1.93824724  1.92993999  1.90667969  1.87511215  1.8402217   1.80865416
  1.78373241  1.76877937  1.76711792  1.77874806  1.80200836  1.8368988
  1.8800965   1.92993999  1.98642928  2.04458002  2.10605366  2.16918875
  2.23232384  2.29712038  2.36025546  2.4217291   2.48320274  2.54301493
  2.60282712  2.66263931  2.72079005  2.78226369  2.84373733  2.91019532
  2.97831476  3.05141855  3.12784523  3.20593337  3.28236006  3.35546384
  3.42026038  3.47508822  3.51662447  3.54320766  3.55317636  3.54819201
  3.53157751  3.50499432  3.47508822  3.44518213  3.41693748  3.39700009
  3.38536994  3.38204704  3.38703139  3.39700009  3.41029168  3.42358328
  3.43521343  3.44352068  3.44850503  3.45016648  3.45182793  3.45348938
  3.45847373  3.46844242  3.48339547  3.50499432  3.53157751  3.55816071
  3.58640535  3.61298855  3.6345874   3.65120189  3.66283204  3.67113929
  3.67778509  3.68276944  3.68775379  3.69439959  3.70270683  3.71101408
  3.71932133  3.72430568  3.72430568  3.71599843  3.69606104  3.66117059
  3.6113271   3.54653056  3.46678097  3.37373979  3.27405281  3.17270437
  3.07634029  2.99160636  2.92680982  2.88361212  2.86533618  2.87530488
  2.91019532  2.96834606  3.0431113   3.13282958  3.23417801  3.34549515
  3.46678097  3.6013584   3.75421178  3.93198689  4.14132956  4.38556267
  4.66967057  4.99365326  5.3558493   5.75127433  6.17494401  6.61522818
  7.06381961  7.50908813  7.93940361  8.33981299  8.70200902  9.01270012
  9.26357903  9.45132285  9.57260868  9.63075942  9.63242087  9.59088462
  9.51611939  9.4230782   9.32671412  9.23699583  9.16389205  9.11072565
  9.08081956  9.07085086  9.07915811  9.09577261  9.1123871   9.1190329
  9.10407986  9.05589781  8.96285663  8.81664906  8.61062929  8.33981299
  8.00918449  7.62372816  7.19341268  6.73152966  6.25967794  5.79114913
  5.34754205  4.94380977  4.59324388  4.30415163  4.08317882  3.92700255
  3.83562281  3.80073237  3.81568541  3.8721747   3.96023154  4.07321012
  4.20446465  4.34734932]","[ 1.77677846  1.72942621  1.64388667  1.51404987  1.33686082  1.11384702
  0.85111843  0.55784     0.24470419 -0.06995912 -0.37392999 -0.6519335
 -0.89174971 -1.08268619 -1.22168794 -1.30722748 -1.34388728 -1.33319484
 -1.2858426  -1.20641302 -1.10254358 -0.98034424 -0.84592496 -0.70234073
 -0.55264653 -0.39989735 -0.24562068 -0.08676153  0.07209761  0.23401174
  0.39745337  0.56394997  0.73350156  0.90610813  1.0802422   1.25590376
  1.42698284  1.59195195  1.74164615  1.87148295  1.9738249   2.03950705
  2.06089193  2.03492457  1.955495    1.82107572  1.63472172  1.396433
  1.10926454  0.78085381  0.41731076  0.02169038 -0.39989735 -0.8382875
 -1.28889758 -1.74409013 -2.1977552  -2.63920033 -3.06078806 -3.45182596
 -3.80162159 -4.09795499 -4.33471622 -4.50426781 -4.60508227 -4.6371596
 -4.60508227 -4.51954273 -4.38970593 -4.2262643  -4.03685532 -3.82911644
 -3.60152016 -3.35559398 -3.08522793 -2.78278456 -2.44520887 -2.0679184
 -1.65091313 -1.19877556 -0.71608815 -0.21659834  0.28900145  0.79001876
  1.27270617  1.72942621  2.15406893  2.54205185  2.89337496  3.20651078
  3.48604178  3.73349545  3.95039929  4.13675329  4.29255745  4.41475679
  4.50335132  4.55375855  4.56597848  4.54001112  4.48196643  4.39642689
  4.29408494  4.18716051  4.08787355  4.01149896  3.96872919  3.97178417
  4.02677388  4.13828078  4.30630488  4.52626369  4.78899228  5.08227071
  5.39235154  5.70243238  5.99112833  6.24010949  6.43104597  6.54560785
  6.57004772  6.49520062  6.31648408  6.0338981   5.65508013  5.19072263
  4.654573    4.06496117  3.44174452  2.80019796  2.15712392  1.52932479
  0.930548    0.3730135  -0.1295313  -0.56792145 -0.92993701 -1.20794051
 -1.395822   -1.488999  ]",7.967689787400895,3.676596381677426,6.01884,0.09526500000000038
054,2,2,csm,41a.png,1,1,284,NaN,105,1,1,722,neu_feedback_onset,1,"[ 1.34920528e+00  1.21911661e+00  1.06875439e+00  9.01497540e-01
  7.20724982e-01  5.36573498e-01  3.50732551e-01  1.69959994e-01
 -6.75785262e-04 -1.57795859e-01 -2.99710764e-01 -4.26420501e-01
 -5.34546143e-01 -6.24087690e-01 -6.93355679e-01 -7.40660648e-01
 -7.60934206e-01 -7.50797427e-01 -7.05181921e-01 -6.22398227e-01
 -4.99067416e-01 -3.35189490e-01 -1.30764448e-01  1.09139320e-01
  3.77763962e-01  6.71730551e-01  9.80902308e-01  1.30021085e+00
  1.62458777e+00  1.94896470e+00  2.26827323e+00  2.58420284e+00
  2.89337460e+00  3.19916743e+00  3.49820241e+00  3.79385846e+00
  4.08444613e+00  4.37165486e+00  4.65379521e+00  4.93086717e+00
  5.19949181e+00  5.45797967e+00  5.70295183e+00  5.92933989e+00
  6.12869655e+00  6.29426393e+00  6.41590528e+00  6.48517327e+00
  6.49362059e+00  6.43111045e+00  6.29595340e+00  6.08477050e+00
  5.80094069e+00  5.44784289e+00  5.03730335e+00  4.58114829e+00
  4.09289344e+00  3.59281235e+00  3.09611018e+00  2.62643942e+00
  2.20576310e+00  1.85604422e+00  1.59924582e+00  1.45395199e+00
  1.43536790e+00  1.55025139e+00  1.80029194e+00  2.17366330e+00
  2.65684976e+00  3.22450938e+00  3.85298967e+00  4.51188030e+00
  5.17921825e+00  5.83135103e+00  6.45307347e+00  7.03255933e+00
  7.56136130e+00  8.03441099e+00  8.44664000e+00  8.79635887e+00
  9.07680975e+00  9.28630318e+00  9.42314970e+00  9.48734930e+00
  9.48228091e+00  9.41639185e+00  9.30319782e+00  9.16128291e+00
  9.00923123e+00  8.87069525e+00  8.76763800e+00  8.71864356e+00
  8.73722766e+00  8.83183760e+00  9.00416284e+00  9.24575607e+00
  9.55154890e+00  9.90295724e+00  1.02864654e+01  1.06885576e+01
  1.10940288e+01  1.14944315e+01  1.18796291e+01  1.22462426e+01
  1.25908931e+01  1.29118911e+01  1.32058577e+01  1.34711034e+01
  1.37042493e+01  1.39002271e+01  1.40573471e+01  1.41688517e+01
  1.42347408e+01  1.42567038e+01  1.42364302e+01  1.41806779e+01
  1.40978943e+01  1.39965265e+01  1.38867114e+01  1.37819646e+01
  1.36839758e+01  1.36028815e+01  1.35369925e+01  1.34829297e+01
  1.34390036e+01  1.33933881e+01  1.33393253e+01  1.32683678e+01
  1.31720684e+01  1.30453587e+01  1.28899281e+01  1.27040871e+01
  1.24962832e+01  1.22682057e+01  1.20316808e+01  1.17917770e+01
  1.15535627e+01  1.13237958e+01  1.11024761e+01  1.08896037e+01
  1.06851787e+01  1.04841326e+01  1.02847759e+01  1.00803509e+01
  9.87423636e+00  9.66305347e+00  9.44849165e+00  9.23730875e+00
  9.03457317e+00  8.84704276e+00  8.68316484e+00  8.55138671e+00
  8.46015570e+00  8.41791912e+00  8.42805590e+00  8.49732389e+00
  8.62403363e+00  8.80480618e+00  9.03288371e+00  9.29643996e+00
  9.58026977e+00  9.86578905e+00  1.01327242e+01  1.03641807e+01
  1.05381954e+01  1.06378737e+01  1.06530789e+01  1.05736741e+01
  1.03979699e+01  1.01276558e+01  9.77455804e+00  9.35050278e+00
  8.87407417e+00  8.36554576e+00  7.84688058e+00  7.34004163e+00
  6.85854463e+00  6.41928421e+00  6.02901822e+00  5.68943612e+00
  5.39715900e+00  5.14542899e+00  4.92073039e+00  4.71292642e+00
  4.51019084e+00  4.30576580e+00  4.09627237e+00  3.87833162e+00
  3.65870141e+00  3.44076066e+00  3.22957777e+00  3.03191058e+00
  2.85113802e+00  2.68894956e+00  2.54703465e+00  2.42201438e+00
  2.31219928e+00  2.21589988e+00  2.12804779e+00  2.04695356e+00
  1.97092772e+00  1.89828080e+00  1.82732335e+00  1.75636590e+00
  1.68709791e+00  1.61782992e+00  1.54856193e+00  1.47929394e+00
  1.41002595e+00  1.34244742e+00  1.27317943e+00  1.20391145e+00
  1.13464346e+00  1.06537547e+00  9.97796940e-01  9.28528951e-01
  8.59260961e-01  7.89992972e-01  7.22414446e-01  6.53146456e-01
  5.83878467e-01  5.14610477e-01  4.45342488e-01  3.77763962e-01
  3.08495972e-01  2.39227983e-01  1.69959994e-01  1.02381467e-01
  3.31134779e-02 -3.61545115e-02 -1.05422501e-01 -1.73001027e-01
 -2.42269017e-01 -3.11537006e-01 -3.79115532e-01 -4.45004595e-01
 -5.10893658e-01 -5.75093258e-01 -6.34224469e-01 -6.88287290e-01
 -7.35592258e-01 -7.72760448e-01 -7.98102395e-01 -8.08239174e-01
 -8.01481321e-01 -7.79518300e-01 -7.42350111e-01 -6.93355679e-01
 -6.35913932e-01 -5.80161648e-01 -5.32856679e-01 -4.99067416e-01
 -4.87241174e-01 -5.04135806e-01 -5.49751311e-01 -6.25777153e-01
 -7.28834406e-01 -8.53854679e-01 -9.95769584e-01 -1.14613181e+00]","[-2.65983544 -2.17564405 -1.74131954 -1.36007914 -1.03353146 -0.75845927
 -0.53003676 -0.34022086 -0.17614272 -0.02654205  0.12145     0.2774851
  0.45282351  0.65068245  0.87427914  1.12361358  1.39225133  1.67697517
  1.96974206  2.26250895  2.55366723  2.83517385  3.10702882  3.36762352
  3.61856657  3.85985796  4.0931063   4.3183116   4.53547386  4.74620167
  4.94566922  5.13548512  5.31404075  5.47811889  5.62932816  5.76284273
  5.88027121  5.97839638  6.05400101  6.1038679   6.12317121  6.10708512
  6.05400101  5.95909307  5.82075267  5.6357626   5.40734008  5.13709373
  4.83145796  4.49365001  4.13171293  3.75529836  3.36923213  2.98477451
  2.61157716  2.25929173  1.93756987  1.65767186  1.42924934  1.25873676
  1.15417716  1.11557053  1.14291689  1.22978179  1.36812219  1.54506921
  1.74936259  1.96974206  2.19333875  2.41371822  2.62444604  2.82230498
  3.00890365  3.18424206  3.34992882  3.50596392  3.65234736  3.78907915
  3.91294207  4.01911028  4.10436657  4.1622765   4.19123147  4.18801425
  4.15262485  4.08667187  3.99337253  3.88237849  3.75851558  3.63304405
  3.51561557  3.41427319  3.33866855  3.29041028  3.27432418  3.29041028
  3.33384273  3.3981871   3.47861756  3.56869968  3.66039041  3.75047253
  3.83412021  3.91455068  3.99337253  4.0754116   4.16388511  4.26683611
  4.3874818   4.53064803  4.69633478  4.88132485  5.08400962  5.29634604
  5.51189969  5.71941028  5.90761757  6.06526128  6.17786393  6.23577386
  6.2245136   6.13282287  5.95426724  5.67919505  5.31082353  4.84915267
  4.30705134  3.69577981  3.03625001  2.34454802  1.64158577  0.94666656
  0.27265927 -0.36435    -0.95631822 -1.49681093 -1.98100232 -2.40406656
 -2.76439504 -3.05877054]",12.674056941666219,3.5037520811382556,5.91904,0.3111649999999999
054,2,2,csm,30a.png,1,1,208,NaN,209,1,1,647,neu_feedback_onset,2,"[-9.59702276e-01 -8.11491997e-01 -6.56766980e-01 -5.03670647e-01
 -3.50574315e-01 -2.05621404e-01 -7.04405998e-02  5.00820450e-02
  1.54317846e-01  2.40638119e-01  3.07414179e-01  3.56274710e-01
  3.83962345e-01  3.92105767e-01  3.83962345e-01  3.59532079e-01
  3.20443654e-01  2.68325753e-01  2.06435746e-01  1.34773633e-01
  5.65967825e-02 -2.48374369e-02 -1.07900341e-01 -1.86077191e-01
 -2.57739305e-01 -3.19629311e-01 -3.70118528e-01 -4.05949584e-01
 -4.27122481e-01 -4.38523272e-01 -4.40151956e-01 -4.40151956e-01
 -4.41780641e-01 -4.53181431e-01 -4.79240382e-01 -5.24843545e-01
 -5.94876973e-01 -6.90969352e-01 -8.11491997e-01 -9.56444908e-01
 -1.12257072e+00 -1.30498337e+00 -1.49879681e+00 -1.70075367e+00
 -1.90596791e+00 -2.10955346e+00 -2.30336690e+00 -2.48252218e+00
 -2.64213325e+00 -2.77242800e+00 -2.86526301e+00 -2.91412354e+00
 -2.90923749e+00 -2.84897617e+00 -2.72845352e+00 -2.54604087e+00
 -2.30499558e+00 -2.01183239e+00 -1.67306604e+00 -1.29846863e+00
 -8.96183585e-01 -4.74354328e-01 -4.27529652e-02  3.92105767e-01
  8.26964499e-01  1.25856586e+00  1.68039512e+00  2.09082358e+00
  2.48496521e+00  2.86119130e+00  3.21298713e+00  3.53546664e+00
  3.82537246e+00  4.07781854e+00  4.29280488e+00  4.46870279e+00
  4.60551228e+00  4.71137677e+00  4.78792493e+00  4.84330020e+00
  4.88727468e+00  4.92636311e+00  4.96708022e+00  5.01756943e+00
  5.08108812e+00  5.16089366e+00  5.25698604e+00  5.36773658e+00
  5.48988791e+00  5.61855397e+00  5.74722004e+00  5.86937137e+00
  5.97686454e+00  6.06155613e+00  6.11856008e+00  6.13484692e+00
  6.10553061e+00  6.01921033e+00  5.87100005e+00  5.65275634e+00
  5.35796447e+00  4.98825311e+00  4.54362228e+00  4.02895801e+00
  3.44914637e+00  2.81884551e+00  2.14619885e+00  1.44912194e+00
  7.40644226e-01  3.86812542e-02 -6.37222767e-01 -1.27078099e+00
 -1.84082053e+00 -2.32942585e+00 -2.71542405e+00 -2.98415697e+00
 -3.12259515e+00 -3.12422383e+00 -2.99067171e+00 -2.72845352e+00
 -2.35222743e+00 -1.88316633e+00 -1.34732916e+00 -7.70774887e-01
 -1.84448507e-01  3.85591029e-01  9.14913456e-01  1.38071719e+00
  1.76997276e+00  2.06965069e+00  2.27486492e+00  2.38724414e+00
  2.41167441e+00  2.35467046e+00  2.23089044e+00  2.05336384e+00
  1.83512014e+00  1.59081748e+00  1.33185666e+00  1.06638110e+00
  7.99276864e-01  5.33801309e-01  2.68325753e-01  1.22151329e-03
 -2.72397464e-01 -5.57417232e-01 -8.58723844e-01 -1.17631730e+00
 -1.51019760e+00 -1.85710738e+00 -2.21053189e+00 -2.56232772e+00
 -2.90272275e+00 -3.22194489e+00 -3.50696466e+00 -3.74963864e+00
 -3.94508076e+00 -4.08677630e+00 -4.17472526e+00 -4.21055632e+00
 -4.20404158e+00 -4.16006710e+00 -4.09166236e+00 -4.01022814e+00
 -3.92553655e+00 -3.85061707e+00 -3.79361311e+00 -3.76429680e+00
 -3.76429680e+00 -3.80012785e+00 -3.87016128e+00 -3.97439708e+00
 -4.11120657e+00 -4.27570369e+00 -4.46463108e+00 -4.67473137e+00
 -4.90274718e+00 -5.14216379e+00 -5.39135250e+00 -5.64542726e+00
 -5.90113071e+00 -6.15683416e+00 -6.40602287e+00 -6.64543948e+00
 -6.87182661e+00 -7.07704084e+00 -7.26271086e+00 -7.42395062e+00
 -7.55913142e+00 -7.67151065e+00 -7.75945960e+00 -7.82623566e+00
 -7.87672488e+00 -7.91255594e+00 -7.93698620e+00 -7.95327304e+00
 -7.96141647e+00 -7.96630252e+00 -7.96630252e+00 -7.96304515e+00
 -7.95653041e+00 -7.94675831e+00 -7.93210015e+00 -7.91255594e+00
 -7.88975435e+00 -7.86369540e+00 -7.83437908e+00 -7.80343408e+00
 -7.77574645e+00 -7.75131618e+00 -7.73502934e+00 -7.72851460e+00
 -7.73828671e+00 -7.76597434e+00 -7.81483487e+00 -7.88812567e+00
 -7.98584673e+00 -8.10962675e+00 -8.25783703e+00 -8.43047757e+00
 -8.61940496e+00 -8.82136182e+00 -9.02820474e+00 -9.23179029e+00
 -9.42234636e+00 -9.59335823e+00 -9.73993982e+00 -9.85557641e+00
 -9.94352537e+00 -1.00005293e+01 -1.00298456e+01 -1.00363604e+01
 -1.00217022e+01 -9.98912853e+00 -9.94026800e+00 -9.87837799e+00
 -9.80182983e+00 -9.70899482e+00 -9.60150165e+00 -9.47446426e+00
 -9.32625399e+00 -9.15849949e+00 -8.96794342e+00 -8.75784313e+00
 -8.52982732e+00 -8.28552466e+00 -8.03144990e+00 -7.77086039e+00
 -7.50864221e+00 -7.25293876e+00 -7.00863610e+00 -6.77736292e+00
 -6.56563395e+00 -6.37507787e+00 -6.20895206e+00 -6.06888521e+00
 -5.95487730e+00 -5.87181440e+00 -5.82132518e+00 -5.80503834e+00]","[-2.65383145 -2.44102074 -2.220025   -1.99411824 -1.76330046 -1.52593467
 -1.28365786 -1.028285   -0.75654209 -0.46515511 -0.14757605  0.19619511
  0.56779535  0.96395068  1.37975008  1.80700851  2.23590395  2.65497736
  3.0544067   3.41945892  3.73867499  4.00223288  4.20358455  4.33454499
  4.39184018  4.37874414  4.29361985  4.14628936  3.94330068  3.69447584
  3.40963689  3.10351686  2.7859378   2.47326975  2.17860876  1.91668788
  1.70224016  1.54672464  1.46487436  1.46323736  1.54508763  1.70224016
  1.92650991  2.19661582  2.4896398   2.77447876  3.02330359  3.20992222
  3.31469057  3.3245126   3.2344773   3.05113269  2.78430079  2.45035167
  2.06892939  1.654767    1.23078258  0.81170917  0.41227983  0.0439536
 -0.28017349 -0.54700538 -0.75163107 -0.88422852 -0.94152371 -0.92024264
 -0.82693332 -0.66814379 -0.45533308 -0.20650824  0.06196066  0.33206656
  0.58907643  0.81825719  1.00978684  1.15548033  1.25206365  1.29953681
  1.2978998   1.25042664  1.16039134  1.03761593  0.88701143  0.71839986
  0.53996626  0.36644368  0.20438014  0.06523467 -0.0444447  -0.11647294
 -0.15085006 -0.14430203 -0.1033769  -0.03298566  0.06032365  0.165092
  0.27313437  0.37462871  0.46139     0.53014423  0.57598038  0.59889846
  0.60217247  0.59071343  0.56779535  0.54160327  0.51704818  0.49904112
  0.4908561   0.49576711  0.51213717  0.53832926  0.57106937  0.60872049
  0.64473461  0.67747472  0.70366681  0.72003687  0.72658489  0.72167387
  0.70530382  0.68074873  0.64800862  0.60872049  0.56452134  0.51704818
  0.46793802  0.41555384  0.36316967  0.30914849  0.2534903   0.19619511
  0.13889992  0.07833071  0.0161245  -0.04935572 -0.11974695 -0.1934122
 -0.27526247 -0.36366077]",3.8878732232071114,1.9962872715456506,6.139925000000001,0.10425500000000021
054,2,2,csm,16a.png,1,1,276,NaN,270,1,0,279,neu_feedback_onset,3,"[ 4.23959054e-01  3.18258316e-01  2.04299708e-01  8.70379515e-02
 -3.02238048e-02 -1.44182413e-01 -2.44928429e-01 -3.29158705e-01
 -3.88615370e-01 -4.18343702e-01 -4.13388980e-01 -3.73751204e-01
 -3.01081946e-01 -1.97032782e-01 -6.65584335e-02  7.87800814e-02
  2.34028040e-01  3.85972851e-01  5.26356644e-01  6.48573123e-01
  7.46015991e-01  8.12078952e-01  8.45110432e-01  8.46762007e-01
  8.18685248e-01  7.64183305e-01  6.86559325e-01  5.90768031e-01
  4.81764145e-01  3.64502389e-01  2.42285911e-01  1.18417858e-01
 -3.79862028e-03 -1.22711951e-01 -2.33367411e-01 -3.35765001e-01
 -4.26601573e-01 -5.05877126e-01 -5.70288513e-01 -6.21487308e-01
 -6.61125085e-01 -6.92504992e-01 -7.17278602e-01 -7.40400639e-01
 -7.65174249e-01 -7.98205730e-01 -8.37843507e-01 -8.89042302e-01
 -9.51802115e-01 -1.02281980e+00 -1.10044378e+00 -1.18467405e+00
 -1.27055590e+00 -1.36139248e+00 -1.45883534e+00 -1.56288451e+00
 -1.68179784e+00 -1.81722691e+00 -1.97577802e+00 -2.15910273e+00
 -2.36554949e+00 -2.59511828e+00 -2.84120281e+00 -3.09719678e+00
 -3.35484233e+00 -3.60753316e+00 -3.84701139e+00 -4.06667074e+00
 -4.26155648e+00 -4.42175916e+00 -4.54562721e+00 -4.62655434e+00
 -4.65793424e+00 -4.63481221e+00 -4.55553665e+00 -4.41845601e+00
 -4.22522185e+00 -3.98244046e+00 -3.70002131e+00 -3.38787381e+00
 -3.06086215e+00 -2.73219892e+00 -2.41674828e+00 -2.12441968e+00
 -1.86677413e+00 -1.64876636e+00 -1.47865423e+00 -1.35808933e+00
 -1.28707164e+00 -1.26394961e+00 -1.28707164e+00 -1.35313460e+00
 -1.45883534e+00 -1.59921914e+00 -1.76602811e+00 -1.95595913e+00
 -2.15910273e+00 -2.37050421e+00 -2.58190569e+00 -2.78835244e+00
 -2.98323818e+00 -3.16656289e+00 -3.33172030e+00 -3.48531668e+00
 -3.62900362e+00 -3.76773584e+00 -3.91307436e+00 -4.06997389e+00
 -4.24999546e+00 -4.46304851e+00 -4.71408776e+00 -5.00971951e+00
 -5.35324691e+00 -5.74301838e+00 -6.17573078e+00 -6.64477781e+00
 -7.14355316e+00 -7.65719269e+00 -8.17578693e+00 -8.68612331e+00
 -9.17994395e+00 -9.64568782e+00 -1.00767486e+01 -1.04698233e+01
 -1.08232601e+01 -1.11370592e+01 -1.14128720e+01 -1.16556534e+01
 -1.18654033e+01 -1.20437733e+01 -1.21907634e+01 -1.23063736e+01
 -1.23922554e+01 -1.24467574e+01 -1.24731826e+01 -1.24715310e+01
 -1.24484090e+01 -1.24120743e+01 -1.23658303e+01 -1.23179346e+01
 -1.22749937e+01 -1.22386591e+01 -1.22122339e+01 -1.21940666e+01
 -1.21775508e+01 -1.21593835e+01 -1.21280036e+01 -1.20768048e+01
 -1.19975292e+01 -1.18852222e+01 -1.17316258e+01 -1.15367401e+01
 -1.12989134e+01 -1.10214490e+01 -1.07093015e+01 -1.03707288e+01
 -1.00123373e+01 -9.64568782e+00 -9.27903839e+00 -8.92229840e+00
 -8.58207415e+00 -8.26662351e+00 -7.98090120e+00 -7.72655880e+00
 -7.50855102e+00 -7.33018103e+00 -7.18979724e+00 -7.09070279e+00
 -7.03454928e+00 -7.02463983e+00 -7.05932289e+00 -7.14025002e+00
 -7.26742122e+00 -7.44083649e+00 -7.65719269e+00 -7.91153509e+00
 -8.20056054e+00 -8.51601118e+00 -8.84962914e+00 -9.19150496e+00
 -9.53503236e+00 -9.86534717e+00 -1.01758431e+01 -1.04549591e+01
 -1.06977405e+01 -1.08959294e+01 -1.10478742e+01 -1.11519233e+01
 -1.12080769e+01 -1.12163347e+01 -1.11783485e+01 -1.10941182e+01
 -1.09636439e+01 -1.07885771e+01 -1.05672661e+01 -1.03046659e+01
 -1.00007762e+01 -9.66550671e+00 -9.30216042e+00 -8.92560154e+00
 -8.54739109e+00 -8.17743851e+00 -7.83391111e+00 -7.52671834e+00
 -7.27072436e+00 -7.07583863e+00 -6.95031900e+00 -6.90077178e+00
 -6.93215169e+00 -7.04280715e+00 -7.22943501e+00 -7.48542899e+00
 -7.80087963e+00 -8.15927119e+00 -8.55069424e+00 -8.95698145e+00
 -9.36657181e+00 -9.76955588e+00 -1.01543726e+01 -1.05144158e+01
 -1.08463821e+01 -1.11436655e+01 -1.14029626e+01 -1.16176672e+01
 -1.17811730e+01 -1.18885254e+01 -1.19314663e+01 -1.19033895e+01
 -1.18042951e+01 -1.16341830e+01 -1.13996594e+01 -1.11106340e+01
 -1.07803192e+01 -1.04252308e+01 -1.00668392e+01 -9.72000865e+00
 -9.39960329e+00 -9.11883571e+00 -8.88596377e+00 -8.70429062e+00
 -8.57381628e+00 -8.49123757e+00 -8.45159980e+00 -8.44664508e+00
 -8.47141869e+00 -8.51601118e+00 -8.57546785e+00 -8.64153081e+00
 -8.70429062e+00 -8.76044414e+00 -8.80173349e+00 -8.82320395e+00
 -8.82155238e+00 -8.79017247e+00 -8.73236738e+00 -8.64648553e+00
 -8.53583007e+00 -8.40700730e+00 -8.26332036e+00 -8.11302712e+00]","[-2.21547383 -1.93768136 -1.65673217 -1.38051807 -1.10903907 -0.84703026
 -0.59607003 -0.35773672 -0.13360871  0.07631401  0.27518816  0.45985702
  0.63663404  0.80394086  0.96493423  1.12119249  1.27271565  1.41476862
  1.54735138  1.66099376  1.75096063  1.80936019  1.82987895  1.80936019
  1.74464717  1.63889663  1.49368693  1.31533154  1.11172229  0.89390774
  0.66504463  0.43302479  0.20416168 -0.0215447  -0.24093761 -0.45243869
 -0.65762631 -0.85650046 -1.04906115 -1.23373    -1.41208539 -1.57939222
 -1.73880721 -1.88717364 -2.02449151 -2.14918245 -2.26282482 -2.36699699
 -2.46327734 -2.55324421 -2.63689763 -2.71897267 -2.79631262 -2.87049584
 -2.93836559 -3.00150024 -3.05516469 -3.09935895 -3.13092627 -3.1530234
 -3.1624936  -3.1624936  -3.15618013 -3.14513157 -3.13092627 -3.11829934
 -3.10882914 -3.10409405 -3.10725078 -3.11672098 -3.13723974 -3.16880706
 -3.21457969 -3.27140087 -3.34400572 -3.4292375  -3.52867457 -3.63758185
 -3.75280259 -3.87118006 -3.9864008  -4.09688644 -4.19632351 -4.27997692
 -4.34942504 -4.40466786 -4.44570538 -4.47569434 -4.5009482  -4.5246237
 -4.55303429 -4.58617998 -4.62879587 -4.67930359 -4.73454641 -4.79452433
 -4.85134552 -4.90343161 -4.94446913 -4.97130136 -4.98392829 -4.97919319
 -4.96025279 -4.9318422  -4.89553977 -4.85923735 -4.82609166 -4.8008378
 -4.78821087 -4.7866325  -4.79768106 -4.82135656 -4.85292388 -4.89238304
 -4.9365773  -4.98392829 -5.03127927 -5.07863026 -5.12282452 -5.16544041
 -5.2033212  -5.23488852 -5.26014238 -5.27592605 -5.28223951 -5.27908278
 -5.26487748 -5.24593709 -5.22226159 -5.20174283 -5.18753754 -5.18753754
 -5.20489956 -5.24278036 -5.30275827 -5.38167659 -5.47795693 -5.58212911
 -5.69103638 -5.79520855]",0.03699525833095302,0.333745549993573,6.05483,0.36857500000000076
054,2,2,csp,66b.png,1,0,144,NaN,157,1,1,203,pos_feedback_onset,4,"[ -0.47498291  -0.73959735  -0.9495248   -1.10652936  -1.20531875
  -1.24589296  -1.228252    -1.15063177  -1.00950407  -0.8083971
  -0.54907495  -0.23859402   0.11069704   0.48468544   0.86925842
   1.24324682   1.59077378   1.89949062   2.15528457   2.35286335
   2.48869876   2.5645549    2.58572405   2.55749851   2.49046285
   2.39520166   2.27700721   2.14822819   2.01415687   1.88184965
   1.75659882   1.64016847   1.53608679   1.44611789   1.37026175
   1.31028248   1.26794417   1.24501092   1.24148272   1.25559549
   1.28911332   1.33850802   1.39848729   1.46375885   1.52726631
   1.5801892    1.61547112   1.6260557    1.60841474   1.55725595
   1.47081523   1.34909259   1.19738032   1.0192066    0.81633553
   0.5975876    0.36649099   0.1265739   -0.11510728  -0.35502437
  -0.59141326  -0.82074577  -1.04478599  -1.26000573  -1.46993318
  -1.67633244  -1.88096761  -2.08913096  -2.3061148   -2.5372114
  -2.78947717  -3.06820437  -3.37692121  -3.71915588  -4.09138018
  -4.49006593  -4.90639264  -5.33330393  -5.75492293  -6.15890097
  -6.53818166  -6.88041633  -7.18207678  -7.43787074  -7.65132638
  -7.82067962  -7.95298684  -8.04824803  -8.1099914   -8.13998104
  -8.13998104  -8.1082273   -8.04648394  -7.95651503  -7.84008468
  -7.70072107  -7.5472447   -7.38494785  -7.22441509  -7.07446691
  -6.94215969  -6.83631392  -6.76222188  -6.72341176  -6.72164767
  -6.75869369  -6.83454982  -6.94745198  -7.09563607  -7.27910208
  -7.49079362  -7.73247481  -7.99708924  -8.28287283  -8.58453329
  -8.89854242  -9.22313612  -9.55655031  -9.89525679 -10.24101965
 -10.59560299 -10.95547862 -11.32241064 -11.69463494 -12.07038744
 -12.44613994 -12.81307195 -13.16941939 -13.50459768 -13.81331452
 -14.09027762 -14.32843062 -14.52777349 -14.68301396 -14.79591612
 -14.86647997 -14.89470551 -14.88412093 -14.83825443 -14.7553419
 -14.64067565 -14.49601976 -14.32313833 -14.12379545 -13.90151933
 -13.65807405 -13.3987519  -13.12531699 -12.84482569 -12.5590421
 -12.27325851 -11.99100311 -11.7158041  -11.44942557 -11.1989239
 -10.96077091 -10.73849478 -10.53209553 -10.34157313 -10.1686917
 -10.00992304  -9.86879534  -9.74178041  -9.63240645  -9.54067344
  -9.4665814   -9.41189442  -9.38190478  -9.37661249  -9.39778165
  -9.44717634  -9.52479658  -9.62887826  -9.75412909  -9.89702088
 -10.04696906 -10.19691724 -10.33628084 -10.45623939 -10.54973649
 -10.61147986 -10.6397054  -10.63441311 -10.59736709 -10.53033143
 -10.44036252 -10.33098856 -10.20750182 -10.07343051  -9.93230281
  -9.78588282  -9.63769874  -9.48598646  -9.33427418  -9.18256191
  -9.02908554  -8.87737326  -8.72389689  -8.57042052  -8.41694414
  -8.26346777  -8.1117555   -7.95827912  -7.80480275  -7.65309048
  -7.5013782   -7.34966592  -7.19971774  -7.05506185  -6.91393416
  -6.77986284  -6.65637611  -6.54876624  -6.46232552  -6.40234625
  -6.37412071  -6.38294119  -6.43057179  -6.5205407   -6.64755562
  -6.80808838  -6.99331849  -7.19442546  -7.39906062  -7.59840349
  -7.7818695   -7.94240226  -8.07647357  -8.18231935  -8.25641139
  -8.2987497   -8.30933427  -8.28816512  -8.23171404  -8.13998104
  -8.00767382  -7.83832058  -7.62839313  -7.38494785  -7.11151293
  -6.81690886  -6.51172021  -6.20829566  -5.91721978  -5.64907716
  -5.40916007  -5.206289    -5.04046396  -4.91168493  -4.81642374
  -4.75468037  -4.72292664  -4.71410615  -4.72998302  -4.76879314
  -4.82700831  -4.90639264  -5.00518203  -5.11984829  -5.25039141]","[-1.97546047 -1.749042   -1.51285006 -1.27340031 -1.03883728 -0.81404772
 -0.60228943 -0.40682025 -0.22926907 -0.06637808  0.08511054  0.23334134
  0.38645887  0.55097877  0.73830341  0.95494842  1.20580055  1.49574651
  1.82641522  2.19129103  2.58548723  3.00085925  3.42600473  3.84463457
  4.24208859  4.60533549  4.91645728  5.1656805   5.33997386  5.43282172
  5.44096627  5.3644075   5.21128997  4.98650041  4.70795682  4.38543266
  4.04010376  3.68825922  3.34944597  3.04321091  2.78584314  2.59037396
  2.47309244  2.43562752  2.48123699  2.60340524  2.79398769  3.03995309
  3.32338341  3.62798956  3.94074026  4.24697532  4.53692128  4.8040625
  5.04025444  5.24223926  5.40024352  5.51100939  5.56476342  5.55661887
  5.48006011  5.3302004   5.10541083  4.80894923  4.44570232  4.02381466
  3.55143079  3.041582    2.50567064  1.96161474  1.41918774  0.89793658
  0.41089252 -0.02565533 -0.39541788 -0.68373493 -0.88246193 -0.98508326
 -0.98834108 -0.90200885 -0.73260222 -0.49641029 -0.21135106  0.10465746
  0.43206835  0.75622142  1.06408539  1.34425789  1.59185219  1.80361048
  1.97464602  2.10821663  2.2026934   2.26296307  2.29391236  2.29717018
  2.28250999  2.25318961  2.21735359  2.17988866  2.14568156  2.11636118
  2.09192753  2.0707517   2.05120478  2.02514222  1.99093512  1.94043891
  1.87039578  1.77754792  1.6586375   1.51855125  1.35728917  1.17810908
  0.98589771  0.78228398  0.5721546   0.35388067  0.12583329 -0.11524537
 -0.37424205 -0.65767237 -0.97042307 -1.31575197 -1.69203015 -2.09762871
 -2.5227742  -2.95932205 -3.39098317 -3.8079841  -4.19566466 -4.54262246
 -4.83745515 -5.07364709 -5.24468263 -5.34730395 -5.37662433 -5.33427267
 -5.22024898 -5.0426978 ]",1.0328783435136297,3.110036935531818,5.6686250000000005,0.5556150000000004
054,2,2,csm,1a.png,1,1,332,NaN,332,1,1,216,neu_feedback_onset,5,"[ 3.46273713e-01  2.75691350e-01  2.16872714e-01  1.69817805e-01
  1.34526623e-01  1.10999169e-01  9.58743768e-02  8.57911821e-02
  7.57079873e-02  6.22637276e-02  4.04168057e-02  1.18477538e-02
 -2.68044927e-02 -7.21788692e-02 -1.22594843e-01 -1.76371882e-01
 -2.31829453e-01 -2.83925959e-01 -3.32661400e-01 -3.79716309e-01
 -4.25090686e-01 -4.73826127e-01 -5.24242101e-01 -5.83060737e-01
 -6.48601503e-01 -7.20864399e-01 -7.98168892e-01 -8.77153917e-01
 -9.51097346e-01 -1.01831864e+00 -1.07041515e+00 -1.10402580e+00
 -1.11747006e+00 -1.10738686e+00 -1.07545675e+00 -1.02504077e+00
 -9.57819476e-01 -8.77153917e-01 -7.89766230e-01 -6.97336944e-01
 -6.03227126e-01 -5.10797841e-01 -4.20049088e-01 -3.29300336e-01
