sub,run,cat_cond,trial_type,picture,old,response_old,target_pos,response_pos,dot_resp_loc,cat_corr,TN_corr,TN_rt,feedback_type,trial,SP_timeseries,FB_timeseries,SP_peak_response,FB_peak_response,preStim_bl,anticipation
039,1,2,csm,8a.png,1,0,12,NaN,10,1,1,539,neu_feedback_onset,1,"[ 7.85177436e-01  6.15212471e-01  4.18943405e-01  2.14580768e-01
  1.62883091e-02 -1.61770226e-01 -3.09477874e-01 -4.16717673e-01
 -4.81466231e-01 -5.07770333e-01 -4.93606586e-01 -4.45045167e-01
 -3.68156254e-01 -2.66986632e-01 -1.45583086e-01 -1.00157926e-02
  1.41738640e-01  3.01586643e-01  4.69528216e-01  6.43539966e-01
  8.21598500e-01  9.97633643e-01  1.17366878e+00  1.34565714e+00
  1.51562211e+00  1.68356368e+00  1.85150525e+00  2.02147022e+00
  2.19750536e+00  2.37961068e+00  2.57385635e+00  2.77417220e+00
  2.98460502e+00  3.19908462e+00  3.41356422e+00  3.62197364e+00
  3.82431288e+00  4.01046499e+00  4.18245334e+00  4.33420778e+00
  4.46775168e+00  4.58308505e+00  4.68020788e+00  4.76114358e+00
  4.82791553e+00  4.87850034e+00  4.91289801e+00  4.93313194e+00
  4.93920212e+00  4.92908515e+00  4.90682784e+00  4.87445356e+00
  4.83600910e+00  4.79756464e+00  4.76519037e+00  4.74697983e+00
  4.74697983e+00  4.76923715e+00  4.81779857e+00  4.89468748e+00
  4.99383371e+00  5.11523726e+00  5.24878116e+00  5.39041863e+00
  5.52800932e+00  5.65548304e+00  5.76676962e+00  5.85782228e+00
  5.92864102e+00  5.97720244e+00  6.00755332e+00  6.02171707e+00
  6.02576386e+00  6.02374046e+00  6.02171707e+00  6.01969368e+00
  6.02576386e+00  6.03992760e+00  6.06623170e+00  6.11074634e+00
  6.17751829e+00  6.26654756e+00  6.38795110e+00  6.54172893e+00
  6.73192782e+00  6.95854777e+00  7.22361218e+00  7.52105087e+00
  7.84884044e+00  8.19888734e+00  8.56309798e+00  8.93337879e+00
  9.29961282e+00  9.65168311e+00  9.98149608e+00  1.02789348e+01
  1.05338822e+01  1.07402682e+01  1.08879759e+01  1.09729584e+01
  1.09931923e+01  1.09466543e+01  1.08333443e+01  1.06633793e+01
  1.04428296e+01  1.01838353e+01  9.90258377e+00  9.61323865e+00
  9.33401050e+00  9.08108644e+00  8.86458345e+00  8.69461848e+00
  8.57928512e+00  8.51655995e+00  8.50441959e+00  8.53679387e+00
  8.60761261e+00  8.70473545e+00  8.82006882e+00  8.94551915e+00
  9.07703966e+00  9.21463034e+00  9.36233799e+00  9.52420938e+00
  9.70631470e+00  9.91674752e+00  1.01636014e+01  1.04488997e+01
  1.07665723e+01  1.11125725e+01  1.14707129e+01  1.18248066e+01
  1.21525962e+01  1.24338477e+01  1.26503507e+01  1.27838946e+01
  1.28284092e+01  1.27838946e+01  1.26543975e+01  1.24540816e+01
  1.22052044e+01  1.19300230e+01  1.16528182e+01  1.13978708e+01
  1.11833912e+01  1.10296134e+01  1.09405841e+01  1.09203502e+01
  1.09648648e+01  1.10660344e+01  1.12096953e+01  1.13796603e+01
  1.15617656e+01  1.17378007e+01  1.18956253e+01  1.20251224e+01
  1.21181985e+01  1.21748535e+01  1.21930640e+01  1.21789003e+01
  1.21364090e+01  1.20736839e+01  1.19988183e+01  1.19199060e+01
  1.18450405e+01  1.17823153e+01  1.17357773e+01  1.17074498e+01
  1.17013797e+01  1.17175668e+01  1.17519645e+01  1.18025493e+01
  1.18632510e+01  1.19300230e+01  1.20008417e+01  1.20696371e+01
  1.21364090e+01  1.21950874e+01  1.22476956e+01  1.22962570e+01
  1.23367249e+01  1.23731459e+01  1.24075436e+01  1.24378945e+01
  1.24662220e+01  1.24945495e+01  1.25249004e+01  1.25552513e+01
  1.25896489e+01  1.26280934e+01  1.26705846e+01  1.27171227e+01
  1.27677075e+01  1.28243625e+01  1.28850642e+01  1.29477894e+01
  1.30145613e+01  1.30853801e+01  1.31622690e+01  1.32452281e+01
  1.33362807e+01  1.34334036e+01  1.35325498e+01  1.36316960e+01
  1.37247721e+01  1.38036844e+01  1.38603394e+01  1.38886669e+01
  1.38846201e+01  1.38502224e+01  1.37895206e+01  1.37065616e+01
  1.36114621e+01  1.35183861e+01  1.34334036e+01  1.33666316e+01
  1.33221170e+01  1.33039065e+01  1.33120000e+01  1.33443743e+01
  1.33969825e+01  1.34678013e+01  1.35527837e+01  1.36499066e+01
  1.37551230e+01  1.38664096e+01  1.39857897e+01  1.41092167e+01
  1.42366904e+01  1.43661875e+01  1.44997314e+01  1.46312519e+01
  1.47627724e+01  1.48922695e+01  1.50197433e+01  1.51431702e+01
  1.52625503e+01  1.53758603e+01  1.54810767e+01  1.55721294e+01
  1.56409247e+01  1.56834160e+01  1.56854394e+01  1.56409247e+01
  1.55397551e+01  1.53738369e+01  1.51411468e+01  1.48416847e+01
  1.44794975e+01  1.40606552e+01  1.35993218e+01  1.31096608e+01
  1.26058361e+01  1.21020114e+01  1.16123504e+01  1.11489935e+01
  1.07200343e+01  1.03315430e+01  9.98351947e+00  9.67798721e+00]","[-1.30832077e+00 -1.22271230e+00 -1.14268699e+00 -1.06266168e+00
 -9.80775315e-01 -8.93305790e-01 -7.92808888e-01 -6.79284611e-01
 -5.45288742e-01 -3.88960229e-01 -2.08438018e-01 -1.86105373e-03
  2.28909609e-01  4.82012916e-01  7.50004653e-01  1.02544060e+00
  1.30273761e+00  1.56886829e+00  1.82011055e+00  2.04902016e+00
  2.25373607e+00  2.43239722e+00  2.58872574e+00  2.72830477e+00
  2.86043958e+00  2.99071334e+00  3.13029237e+00  3.28289878e+00
  3.45783783e+00  3.65324847e+00  3.86913070e+00  4.09804031e+00
  4.33439413e+00  4.56702585e+00  4.78290808e+00  4.96901346e+00
  5.11603670e+00  5.21095044e+00  5.24817151e+00  5.22397782e+00
  5.13650829e+00  4.98948505e+00  4.78476914e+00  4.53352688e+00
  4.24134145e+00  3.91751810e+00  3.57322316e+00  3.21776190e+00
  2.85671747e+00  2.50311726e+00  2.15882233e+00  1.83313792e+00
  1.52978616e+00  1.24876705e+00  9.93802691e-01  7.64893082e-01
  5.58316119e-01  3.74071799e-01  2.12160125e-01  6.88589880e-02
 -5.39705581e-02 -1.56328513e-01 -2.32631716e-01 -2.81019113e-01
 -2.94046489e-01 -2.67991737e-01 -1.97271695e-01 -7.81642566e-02
  9.30526864e-02  3.16379134e-01  5.88092978e-01  9.04472112e-01
  1.25993337e+00  1.64331044e+00  2.04529805e+00  2.45472987e+00
  2.86416169e+00  3.26056613e+00  3.63649899e+00  3.98079393e+00
  4.28600674e+00  4.54655426e+00  4.75871438e+00  4.91504290e+00
  5.01740085e+00  5.06578825e+00  5.05834403e+00  5.00065137e+00
  4.89457131e+00  4.74754806e+00  4.56516480e+00  4.35300467e+00
  4.11665085e+00  3.86540859e+00  3.60300002e+00  3.33686934e+00
  3.07446076e+00  2.81949640e+00  2.58314258e+00  2.36726034e+00
  2.18115497e+00  2.03040962e+00  1.92060745e+00  1.85547057e+00
  1.84058214e+00  1.87594216e+00  1.96341168e+00  2.10112966e+00
  2.28351293e+00  2.50497832e+00  2.75435952e+00  3.01676809e+00
  3.28289878e+00  3.53600208e+00  3.76118959e+00  3.94915601e+00
  4.08501293e+00  4.16503824e+00  4.18550984e+00  4.14270560e+00
  4.03848659e+00  3.88215808e+00  3.67744217e+00  3.43550518e+00
  3.16565239e+00  2.88091117e+00  2.59244784e+00  2.30956768e+00
  2.03971489e+00  1.78847263e+00  1.55956302e+00  1.35670817e+00
  1.17618596e+00  1.02171850e+00  8.89583682e-01  7.79781512e-01
  6.94173041e-01  6.36480375e-01  6.08564569e-01  6.14147730e-01]",13.924768458677084,3.2470734930117517,4.942195,
039,1,2,csp,47b.png,1,0,260,40,3,0,1,946,neg_feedback_onset,2,"[-1.39436693e+00 -1.30868314e+00 -1.17559981e+00 -1.00058611e+00
 -7.85465113e-01 -5.37529044e-01 -2.67716263e-01  9.38875555e-03
  2.77378477e-01  5.21668427e-01  7.24028013e-01  8.69872760e-01
  9.50087370e-01  9.57379607e-01  8.89926412e-01  7.49550844e-01
  5.45368199e-01  2.90139892e-01 -1.54960043e-03 -3.13292746e-01
 -6.23212832e-01 -9.14902325e-01 -1.17559981e+00 -1.39254387e+00
 -1.56208839e+00 -1.68787948e+00 -1.77538633e+00 -1.84101646e+00
 -1.89935436e+00 -1.97227674e+00 -2.07436806e+00 -2.22385892e+00
 -2.42804157e+00 -2.68691599e+00 -2.99683608e+00 -3.34139429e+00
 -3.69871392e+00 -4.04874131e+00 -4.36230752e+00 -4.61206665e+00
 -4.78161117e+00 -4.85088742e+00 -4.81624929e+00 -4.67951984e+00
 -4.44616825e+00 -4.13807122e+00 -3.77528241e+00 -3.38332466e+00
 -2.98407467e+00 -2.60487832e+00 -2.26214317e+00 -1.97045368e+00
 -1.73527902e+00 -1.56026533e+00 -1.43994341e+00 -1.37066716e+00
 -1.33785209e+00 -1.33420597e+00 -1.34514433e+00 -1.36337492e+00
 -1.37978245e+00 -1.38525163e+00 -1.37613634e+00 -1.34879045e+00
 -1.30139090e+00 -1.23576077e+00 -1.15007698e+00 -1.04798566e+00
 -9.34955978e-01 -8.10987943e-01 -6.83373790e-01 -5.53936578e-01
 -4.28145484e-01 -3.09646627e-01 -1.98440008e-01 -9.45256263e-02
  2.73458900e-04  8.77803068e-02  1.71641036e-01  2.50032587e-01
  3.24778020e-01  3.95877334e-01  4.59684410e-01  5.12553131e-01
  5.50837377e-01  5.67244911e-01  5.59952673e-01  5.23491487e-01
  4.54215232e-01  3.55770028e-01  2.26332816e-01  6.95497135e-02
 -1.10933160e-01 -3.09646627e-01 -5.22944569e-01 -7.43534748e-01
 -9.69594105e-01 -1.19200734e+00 -1.40530528e+00 -1.60401875e+00
 -1.77903245e+00 -1.92123108e+00 -2.02696852e+00 -2.08530642e+00
 -2.09624477e+00 -2.05431441e+00 -1.96498450e+00 -1.83737035e+00
 -1.68423336e+00 -1.52015802e+00 -1.36519798e+00 -1.23758383e+00
 -1.15372310e+00 -1.13002333e+00 -1.17013063e+00 -1.28133725e+00
 -1.45635095e+00 -1.68970254e+00 -1.97045368e+00 -2.28584294e+00
 -2.61946280e+00 -2.96037489e+00 -3.29764087e+00 -3.62396849e+00
 -3.93206552e+00 -4.21828583e+00 -4.48445249e+00 -4.73056550e+00
 -4.95662486e+00 -5.16992280e+00 -5.37228239e+00 -5.56552668e+00
 -5.75694791e+00 -5.94836914e+00 -6.14161343e+00 -6.33850383e+00
 -6.53721730e+00 -6.73775383e+00 -6.93646729e+00 -7.12788852e+00
 -7.30654834e+00 -7.46880062e+00 -7.61282231e+00 -7.73496728e+00
 -7.83341248e+00 -7.90815792e+00 -7.96467276e+00 -8.00478006e+00
 -8.03030289e+00 -8.04671043e+00 -8.05582572e+00 -8.05947184e+00
 -8.05582572e+00 -8.04853349e+00 -8.03394901e+00 -8.01207230e+00
 -7.98108029e+00 -7.94097298e+00 -7.89357344e+00 -7.83523554e+00
 -7.76778235e+00 -7.68939080e+00 -7.59823783e+00 -7.49250039e+00
 -7.36853236e+00 -7.22086455e+00 -7.04402779e+00 -6.83255291e+00
 -6.58643990e+00 -6.30204265e+00 -5.97936115e+00 -5.62021846e+00
 -5.23190682e+00 -4.81807235e+00 -4.38965341e+00 -3.95576529e+00
 -3.52370023e+00 -3.10075046e+00 -2.69785435e+00 -2.31683495e+00
 -1.96498450e+00 -1.64594912e+00 -1.36519798e+00 -1.12455415e+00
 -9.25840681e-01 -7.74526757e-01 -6.70612375e-01 -6.14097535e-01
 -6.04982239e-01 -6.35974247e-01 -7.05250502e-01 -8.01872647e-01
 -9.18548444e-01 -1.04251648e+00 -1.16648451e+00 -1.28316031e+00
 -1.38160551e+00 -1.45999706e+00 -1.51651190e+00 -1.55115003e+00
 -1.56573451e+00 -1.56391145e+00 -1.54750391e+00 -1.52380414e+00
 -1.49281213e+00 -1.45999706e+00 -1.42353588e+00 -1.38707469e+00
 -1.34696739e+00 -1.30321396e+00 -1.25763748e+00 -1.20659182e+00
 -1.15007698e+00 -1.09173908e+00 -1.02610894e+00 -9.58655749e-01
 -8.87556435e-01 -8.14634062e-01 -7.38065570e-01 -6.61497078e-01
 -5.84928586e-01 -5.06537035e-01 -4.29968543e-01 -3.55223111e-01
 -2.80477678e-01 -2.07555305e-01 -1.40102110e-01 -7.44719737e-02
 -1.06648971e-02  4.94960608e-02  1.09657019e-01  1.71641036e-01
  2.39094231e-01  3.19308842e-01  4.15930986e-01  5.36252902e-01
  6.83920708e-01  8.60757463e-01  1.07040929e+00  1.30923006e+00
  1.57175060e+00  1.84885562e+00  2.13142982e+00  2.40488872e+00
  2.65829396e+00  2.88070720e+00  3.06301313e+00  3.19791952e+00
  3.28360331e+00  3.32188756e+00  3.31824144e+00  3.28178025e+00
  3.22526541e+00  3.15963528e+00  3.09947432e+00  3.05754396e+00
  3.04660560e+00  3.07395149e+00  3.14505080e+00  3.25990354e+00]","[-0.76661641 -0.67278552 -0.56271467 -0.44001274 -0.31731081 -0.19460887
 -0.08273358  0.01651063  0.10131932  0.16988804  0.22041237  0.25650117
  0.27995889  0.29258998  0.29619886  0.29439442  0.2889811   0.27995889
  0.27274113  0.26732781  0.26732781  0.27454557  0.29619886  0.3340921
  0.39544307  0.48566508  0.61017145  0.77257107  0.97466837  1.21285447
  1.4835205   1.77403537  2.07357244  2.36408731  2.62753558  2.8440684
  2.99925026  3.07503674  3.06601454  2.96677033  2.77549967  2.49761588
  2.14214117  1.7217066   1.24894327  0.74189558  0.21499905 -0.31911525
 -0.8424029  -1.34403727 -1.81319172 -2.24084404 -2.62158092 -2.95179348
 -3.22787283 -3.45523229 -3.63387187 -3.76920488 -3.87025353 -3.9406267
 -3.9857377  -4.01460875 -4.02904427 -4.03626203 -4.03626203 -4.03265315
 -4.02543539 -4.01821763 -4.00919543 -4.00017323 -3.99115103 -3.98212882
 -3.97310662 -3.96588886 -3.95686666 -3.9496489  -3.94243114 -3.93882226
 -3.93521338 -3.93521338 -3.93882226 -3.94423558 -3.95145334 -3.96047554
 -3.97310662 -3.98393326 -3.99475991 -4.00739099 -4.02363095 -4.04528423
 -4.08317747 -4.14091956 -4.23114157 -4.35745238 -4.53248308 -4.75623366
 -5.03050857 -5.35530781 -5.71800028 -6.11317268 -6.52278061 -6.93238853
 -7.32756093 -7.69566673 -8.02407484 -8.30556751 -8.53653585 -8.71878431
 -8.85592177 -8.9515571  -9.01290806 -9.04719243 -9.06162795 -9.05982351
 -9.04358355 -9.0147125  -8.97501482 -8.92088161 -8.85231289 -8.76569976
 -8.66284667 -8.54194917 -8.40661616 -8.26045651 -8.10888353 -7.95731055
 -7.81475978 -7.68664453 -7.57837812 -7.49717831 -7.44484954 -7.42139182
 -7.42860958 -7.4610895  -7.51341827 -7.58379144 -7.6631868  -7.74799549
 -7.83280418 -7.91580843]",2.0579193594404788,0.5152578951024838,5.485284999999999,-0.1037549999999996
039,1,2,csp,21b.png,1,0,44,NaN,46,1,1,407,pos_feedback_onset,3,"[-0.92455399 -0.80415418 -0.70511563 -0.61967061 -0.54587718 -0.47985148
 -0.41382578 -0.34585815 -0.27012279 -0.18273583 -0.08369728  0.02893479
  0.15516039  0.29303759  0.43868252  0.59015324  0.74550783  0.89697855
  1.04456541  1.1824426   1.314494    1.43683574  1.55529361  1.66792569
  1.78055776  1.8970737   2.01747351  2.14175718  2.27186664  2.40391804
  2.53402751  2.65636925  2.76900132  2.86803987  2.94960103  3.0136848
  3.06029117  3.09136209  3.11078141  3.12049108  3.12825881  3.1340846
  3.14962006  3.17486518  3.21758769  3.28361339  3.37488421  3.49722595
  3.6506386   3.83900604  4.0584444   4.3108956   4.59053386  4.89541723
  5.217778    5.55179036  5.88774466  6.21593122  6.5208146   6.78880126
  7.00823962  7.16165227  7.23932957  7.2354457   7.14805875  6.97911063
  6.74025296  6.44507924  6.11106688  5.75957712  5.40614544  5.06824921
  4.7614239   4.49343724  4.26817309  4.09145725  3.96134778  3.87590276
  3.83318024  3.83123831  3.86425116  3.93221879  4.02737348  4.14388942
  4.27205695  4.39828256  4.5089727   4.59053386  4.62743057  4.60801125
  4.52645009  4.38080516  4.17690227  3.92250913  3.63510315  3.33021977
  3.02727832  2.74181427  2.4854792   2.26992471  2.09709273  1.9689252
  1.88153824  1.83298993  1.81745448  1.83298993  1.87765438  1.95338974
  2.05825409  2.19807321  2.37284713  2.58451775  2.83114316  3.11078141
  3.41178093  3.72443203  4.03125734  4.31866333  4.56723067  4.76336583
  4.89735917  4.96144293  4.95755907  4.88959144  4.7672497   4.60218545
  4.40993415  4.19826352  3.9807671   3.76132875  3.54189039  3.32245204
  3.10107175  2.87192374  2.63306606  2.38449872  2.12622172  1.86017699
  1.59413226  1.33585526  1.08728792  0.8581399   0.65423701  0.47557923
  0.32410851  0.20176677  0.10272822  0.02310899 -0.03709091 -0.08369728
 -0.11671013 -0.13807139 -0.14972298 -0.14778105 -0.13224559 -0.10117467
 -0.05262637  0.01339933  0.10272822  0.21147643  0.34352783  0.49694049
  0.6717144   0.8639657   1.07175246  1.28924888  1.5125711   1.73395139
  1.94756394  2.14564104  2.32235688  2.47188567  2.59034355  2.67384664
  2.72433688  2.73987234  2.73016268  2.69714983  2.65054345  2.60005321
  2.55538877  2.52043398  2.50489852  2.51266625  2.54373717  2.59616934
  2.66413698  2.73987234  2.81366577  2.87969147  2.92629784  2.94960103
  2.9418333   2.90687852  2.84279475  2.75346586  2.64277572  2.51460819
  2.37478906  2.22526027  2.07378955  1.91843496  1.7650223   1.61549351
  1.46984859  1.33391332  1.20380386  1.08534598  0.97465584  0.87367536
  0.78240454  0.69501758  0.61539836  0.539663    0.46975343  0.40566967
  0.35323749  0.31439885  0.29692145  0.30274725  0.33770203  0.40372773
  0.50276628  0.62899188  0.78434647  0.96300425  1.16108135  1.37275197
  1.59801612  1.82910607  2.06602182  2.30487949  2.54762104  2.79230451
  3.03504605  3.27972953  3.524413    3.76909648  4.01183802  4.25457956
  4.49537917  4.73035299  4.96338487  5.18670708  5.39837771  5.59451288
  5.77122872  5.92269944  6.04115731  6.12271847  6.15961519  6.14796359
  6.08582176  5.97124775  5.8061835   5.59451288  5.34594554  5.07019114
  4.77890129  4.48566951]","[-0.77195032 -0.77010222 -0.74792505 -0.70357071 -0.6370392  -0.55202672
 -0.45038135 -0.33579931 -0.21567298 -0.09000235  0.03382018  0.15579462
  0.27407286  0.3868068   0.49399646  0.59748991  0.69543908  0.78969205
  0.88024883  0.96710941  1.0502738   1.12974199  1.20921018  1.29052647
  1.37369085  1.46239953  1.5585006   1.66384216  1.7802723   1.90963912
  2.04824643  2.19794233  2.35318252  2.5121189   2.67105528  2.82444737
  2.97229517  3.10720629  3.22733262  3.33267418  3.41953476  3.48976246
  3.54150919  3.57477495  3.59140783  3.58955973  3.57292685  3.54150919
  3.49530676  3.43616764  3.36778803  3.29201603  3.20885165  3.12199107
  3.03328239  2.94642181  2.86140932  2.78378923  2.71540962  2.66181479
  2.62670094  2.61561236  2.63039714  2.67475148  2.75052347  2.85401693
  2.98523185  3.13307965  3.29201603  3.44910432  3.59510402  3.71707845
  3.80578713  3.85383767  3.85568576  3.80948333  3.71523036  3.57662305
  3.39735759  3.18482638  2.94457371  2.68584006  2.41232164  2.13510701
  1.8560443   1.58067777  1.31270364  1.05396999  0.80447683  0.56607226
  0.33690817  0.11698457 -0.09739474 -0.30253356 -0.50212808 -0.69433022
 -0.87544377 -1.04731684 -1.20440513 -1.34486053 -1.46868306 -1.57587272
 -1.6645814  -1.7385053  -1.79394822 -1.83275827 -1.85863163 -1.86602402
 -1.85493544 -1.82351778 -1.76992295 -1.69230286 -1.5888094  -1.46129067
 -1.31159478 -1.14341791 -0.96784865 -0.79043129 -0.62225442 -0.47071043
 -0.3468879  -0.25633112 -0.2008882  -0.18610342 -0.21012868 -0.2711159
 -0.36536887 -0.4910395  -0.64073539 -0.81260846 -1.0011144  -1.20070893
 -1.40769585 -1.61653086 -1.82906207 -2.03789709 -2.244884   -2.44632663
 -2.64407306 -2.8362752 ]",5.011010756363203,2.4982581681288076,5.149510000000001,-0.25556
039,1,2,csp,56b.png,1,1,56,119,55,1,1,280,pos_feedback_onset,4,"[ 0.98610002  1.0267999   1.03649035  1.0093571   0.94346205  0.8407433
  0.70120084  0.53258704  0.34459234  0.14109293 -0.06628267 -0.26784399
 -0.45971487 -0.63220485 -0.78143775 -0.90935167 -1.01207042 -1.0915321
 -1.15161288 -1.19037467 -1.21363175 -1.22138411 -1.21363175 -1.19425085
 -1.16130333 -1.11672726 -1.06439884 -1.00237997 -0.93648493 -0.8667137
 -0.79888056 -0.73298551 -0.67290473 -0.62057631 -0.57600025 -0.54305272
 -0.52173374 -0.50816711 -0.50429093 -0.50622902 -0.51398138 -0.52367183
 -0.53530037 -0.54886699 -0.56437171 -0.58375261 -0.60700968 -0.63801912
 -0.678719   -0.72910933 -0.79500438 -0.87252797 -0.96555627 -1.0721512
 -1.19231276 -1.32216477 -1.46364531 -1.61287822 -1.76792539 -1.92684874
 -2.08964828 -2.25244781 -2.41524734 -2.57804687 -2.73697022 -2.8920174
 -3.03931221 -3.17691658 -3.30289241 -3.40948734 -3.49476328 -3.55290597
 -3.58003923 -3.57034878 -3.52189654 -3.4346825  -3.31064476 -3.15559759
 -2.97341716 -2.77573202 -2.57417069 -2.37842364 -2.20205748 -2.05282457
 -1.94429155 -1.88033459 -1.86289178 -1.89390122 -1.96948672 -2.08383401
 -2.22919073 -2.39586644 -2.57417069 -2.75635112 -2.93659346 -3.11102153
 -3.27769724 -3.43274441 -3.58197732 -3.72539595 -3.8668765  -4.00254277
 -4.13627096 -4.26612297 -4.38822262 -4.49869373 -4.59559821 -4.67699798
 -4.73707876 -4.77584055 -4.79522145 -4.79715954 -4.785531   -4.76421201
 -4.74095494 -4.71963595 -4.70413123 -4.69831696 -4.70413123 -4.72545022
 -4.75839774 -4.80491189 -4.86305458 -4.93088772 -5.00453513 -5.0859349
 -5.17121084 -5.25842488 -5.347577   -5.43672912 -5.52781934 -5.61697146
 -5.7041855  -5.79139953 -5.8727993  -5.95032289 -6.0220322  -6.08598916
 -6.13831758 -6.17901747 -6.20227454 -6.20808881 -6.19258409 -6.1538223
 -6.09374152 -6.01234175 -5.91156109 -5.80108998 -5.68286651 -5.56851922
 -5.46386238 -5.38246261 -5.3281961  -5.30881521 -5.3281961  -5.38827688
 -5.48711946 -5.62278573 -5.78752335 -5.97551805 -6.17901747 -6.39220733
 -6.60539719 -6.81664897 -7.02014838 -7.21589544 -7.40195204 -7.5783182
 -7.74887009 -7.91360772 -8.07253107 -8.22564015 -8.37099688 -8.50860124
 -8.63263898 -8.741172   -8.82838604 -8.89040491 -8.92529052 -8.9291667
 -8.90009535 -8.83807648 -8.741172   -8.61131999 -8.45045855 -8.26052576
 -8.04539781 -7.80701278 -7.55118495 -7.2798524  -6.99882939 -6.71199212
 -6.42515485 -6.14219376 -5.86698503 -5.60534293 -5.35920554 -5.13051096
 -4.91925918 -4.7293264  -4.55877451 -4.40760351 -4.28162769 -4.18084702
 -4.11107579 -4.08006636 -4.09363299 -4.15758995 -4.27193724 -4.43667486
 -4.64598854 -4.89018784 -5.15570612 -5.42897677 -5.69449505 -5.93675626
 -6.14606994 -6.31855992 -6.44647384 -6.53368787 -6.58407821 -6.60152101
 -6.59183056 -6.56082113 -6.51624507 -6.46197856 -6.39995969 -6.33212655
 -6.26235532 -6.19258409 -6.11893669 -6.04722737 -5.97357996 -5.90187064
 -5.82822324 -5.75457583 -5.68286651 -5.6092191  -5.5355717  -5.46192429
 -5.39021497 -5.31656757 -5.24292016 -5.16927275 -5.09756343 -5.02391603
 -4.95026862 -4.87662121 -4.80491189 -4.73126449 -4.65761708 -4.58396967
 -4.51032227 -4.43861295 -4.36496554 -4.29131813 -4.21960882 -4.14983759
 -4.08200445 -4.02192367]","[-2.99590803 -2.77153167 -2.5200754  -2.23960494 -1.92818602 -1.58581864
 -1.21637135 -0.82564699 -0.42138268 -0.01711837  0.37940883  0.75465895
  1.10089489  1.41037953  1.67924432  1.90942352  2.10091714  2.2614623
  2.40073038  2.52452424  2.64638382  2.77211195  2.90944576  3.06805664
  3.24601031  3.44717532  3.66961741  3.90946801  4.16479283  4.4259205
  4.68704816  4.94430727  5.18609215  5.40853423  5.60583069  5.77604724
  5.91724961  6.02943779  6.11261179  6.16870588  6.19965434  6.20739146
  6.19191723  6.15516593  6.09520328  6.01396356  5.91338105  5.79345575
  5.65612194  5.50524818  5.34276875  5.17255219  4.99846708  4.82631625
  4.65803398  4.49555454  4.34081222  4.19767558  4.0661446   3.94815359
  3.8456368   3.75859424  3.69089448  3.63866895  3.60385192  3.58450913
  3.57483774  3.57290346  3.57483774  3.57290346  3.5690349   3.55549495
  3.53615216  3.50713797  3.47038667  3.42589825  3.36980416  3.3021044
  3.22086468  3.11834789  2.99261976  2.83400888  2.64251526  2.41040178
  2.13960272  1.8281838   1.48194786  1.10282917  0.70243342  0.28656343
 -0.13124083 -0.54517654 -0.94557229 -1.32469097 -1.67672975 -1.99782007
 -2.28796192 -2.5471553  -2.77733451 -2.9804338  -3.15838747 -3.31506407
 -3.45626644 -3.58006029 -3.69224847 -3.79283098 -3.88180782 -3.95531042
 -4.01333879 -4.04815581 -4.05782721 -4.03268158 -3.96691609 -3.85666219
 -3.69224847 -3.47560923 -3.20674444 -2.88758841 -2.52587824 -2.1332196
 -1.72508673 -1.31501958 -0.92042666 -0.55871649 -0.24536329  0.00802726
  0.19178376  0.29816911  0.33105185  0.28849771  0.18211237  0.02350149
 -0.17766353 -0.40397417 -0.63802193 -0.86820113 -1.08097182 -1.2666626
 -1.41753637 -1.52972455]",-0.11068253879877737,4.9268020468540445,5.159719999999999,-0.36573999999999973
039,1,2,csp,20b.png,1,1,8,52,9,1,0,440,neg_feedback_onset,5,"[ 2.87622655e+00  2.62752944e+00  2.36328875e+00  2.07462246e+00
  1.76597157e+00  1.43511559e+00  1.08649552e+00  7.26772911e-01
  3.60388767e-01 -3.77486694e-03 -3.59056461e-01 -6.94353465e-01
 -1.00522486e+00 -1.28945014e+00 -1.54036776e+00 -1.75797774e+00
 -1.94672108e+00 -2.10881831e+00 -2.24648993e+00 -2.36417696e+00
 -2.46632042e+00 -2.55292030e+00 -2.62619713e+00 -2.68615090e+00
 -2.73278161e+00 -2.76608926e+00 -2.78385334e+00 -2.78607385e+00
 -2.77719181e+00 -2.75498671e+00 -2.72612008e+00 -2.69281243e+00
 -2.65950478e+00 -2.62841764e+00 -2.60399203e+00 -2.58622795e+00
 -2.57734591e+00 -2.57290489e+00 -2.57290489e+00 -2.57734591e+00
 -2.58178693e+00 -2.58400744e+00 -2.58622795e+00 -2.58178693e+00
 -2.57290489e+00 -2.55736132e+00 -2.53293571e+00 -2.49296653e+00
 -2.43745379e+00 -2.35973594e+00 -2.25537197e+00 -2.11547984e+00
 -1.94005955e+00 -1.72244958e+00 -1.46264991e+00 -1.16288107e+00
 -8.25363553e-01 -4.58979409e-01 -7.70516957e-02  3.09317038e-01
  6.80142201e-01  1.01988023e+00  1.31076703e+00  1.53281803e+00
  1.67493066e+00  1.72600239e+00  1.68381270e+00  1.54836160e+00
  1.33075162e+00  1.04430584e+00  7.06788321e-01  3.44845197e-01
 -1.93184367e-02 -3.63497481e-01 -6.61045816e-01 -9.00860892e-01
 -1.06961965e+00 -1.16288107e+00 -1.18064515e+00 -1.13179393e+00
 -1.02742996e+00 -8.83096812e-01 -7.09897035e-01 -5.21153688e-01
 -3.27969321e-01 -1.39225975e-01  4.28558423e-02  2.18276129e-01
  3.89255396e-01  5.58014154e-01  7.26772911e-01  9.02193198e-01
  1.07983399e+00  1.26191581e+00  1.44177712e+00  1.61719741e+00
  1.78151514e+00  1.92806880e+00  2.05241736e+00  2.14567878e+00
  2.21007357e+00  2.23894020e+00  2.23671969e+00  2.20341204e+00
  2.14345827e+00  2.06129940e+00  1.96137645e+00  1.84590993e+00
  1.72378188e+00  1.59277180e+00  1.45954120e+00  1.32409009e+00
  1.18863898e+00  1.05318788e+00  9.19957277e-01  7.88947190e-01
  6.57937102e-01  5.31368034e-01  4.07019476e-01  2.89332448e-01
  1.82747970e-01  8.72660415e-02  7.32768288e-03 -5.04055761e-02
 -8.14927156e-02 -8.14927156e-02 -5.04055761e-02  1.84302327e-02
  1.18353181e-01  2.47142759e-01  3.95916926e-01  5.55793644e-01
  7.15670361e-01  8.64444528e-01  9.88793086e-01  1.07983399e+00
  1.13090572e+00  1.13756725e+00  1.09981858e+00  1.01988023e+00
  8.99972688e-01  7.53419030e-01  5.86880783e-01  4.13681006e-01
  2.42701739e-01  8.94865515e-02 -3.93030263e-02 -1.37005465e-01
 -2.01400254e-01 -2.32487393e-01 -2.32487393e-01 -2.08061783e-01
 -1.65872094e-01 -1.14800365e-01 -6.15081260e-02 -1.26569068e-02
  2.95327825e-02  6.28404319e-02  8.50455316e-02  9.83685913e-02
  1.05030121e-01  1.09471141e-01  1.11691651e-01  1.16132671e-01
  1.22794201e-01  1.33896751e-01  1.49440320e-01  1.73865930e-01
  2.07173579e-01  2.53804289e-01  3.15978568e-01  3.95916926e-01
  4.98060385e-01  6.26849962e-01  7.80065150e-01  9.62146967e-01
  1.16865439e+00  1.39958743e+00  1.65050505e+00  1.91696625e+00
  2.19897102e+00  2.48985782e+00  2.78740616e+00  3.08939551e+00
  3.39360538e+00  3.70003575e+00  4.00424562e+00  4.30401446e+00
  4.59490127e+00  4.87024450e+00  5.12560315e+00  5.34987465e+00
  5.53417698e+00  5.67406911e+00  5.76511002e+00  5.80063817e+00
  5.78509460e+00  5.72069982e+00  5.61633585e+00  5.47866423e+00
  5.32100802e+00  5.15002876e+00  4.97904949e+00  4.81251124e+00
  4.65707554e+00  4.51274240e+00  4.38395282e+00  4.26848630e+00
  4.16190182e+00  4.06641989e+00  3.97759950e+00  3.89322012e+00
  3.81328176e+00  3.73556391e+00  3.66006657e+00  3.58456923e+00
  3.50907189e+00  3.43357455e+00  3.35807722e+00  3.28480039e+00
  3.20930305e+00  3.13602622e+00  3.06052888e+00  2.98725205e+00
  2.91175471e+00  2.83625737e+00  2.76298055e+00  2.68748321e+00
  2.61420638e+00  2.53870904e+00  2.46543221e+00  2.39215538e+00
  2.31887855e+00  2.24560172e+00  2.17676592e+00  2.11015062e+00
  2.04797634e+00  1.99024308e+00  1.94139186e+00  1.90364319e+00
  1.87921758e+00  1.87033554e+00  1.87477656e+00  1.89476115e+00
  1.92806880e+00  1.96581747e+00  2.00356614e+00  2.03243277e+00
  2.03687379e+00  2.00800716e+00  1.93473033e+00  1.80372024e+00
  1.61053588e+00  1.34851570e+00  1.01988023e+00  6.31290982e-01
  1.84968480e-01 -3.01323202e-01 -8.20922533e-01 -1.35384492e+00]","[-1.88542382e+00 -1.68927609e+00 -1.47647430e+00 -1.25071936e+00
 -1.01941307e+00 -7.88106786e-01 -5.58650948e-01 -3.36596911e-01
 -1.25645576e-01  7.42030573e-02  2.59248088e-01  4.29489516e-01
  5.86777792e-01  7.32963367e-01  8.68046239e-01  9.95727310e-01
  1.11970748e+00  1.23813630e+00  1.35656512e+00  1.46944259e+00
  1.57861916e+00  1.68224437e+00  1.77661734e+00  1.85803715e+00
  1.92465336e+00  1.97461552e+00  2.00607318e+00  2.01717588e+00
  2.00607318e+00  1.97646597e+00  1.92650381e+00  1.85988760e+00
  1.77846779e+00  1.68224437e+00  1.57676871e+00  1.46389124e+00
  1.34361197e+00  1.21963180e+00  1.09195073e+00  9.62419205e-01
  8.32887683e-01  7.03356162e-01  5.73824640e-01  4.47994019e-01
  3.24013849e-01  2.05585029e-01  9.82589113e-02  2.03549534e-03
 -7.38329673e-02 -1.23795126e-01 -1.38598728e-01 -1.10841973e-01
 -3.31230605e-02  1.05660713e-01  3.07359796e-01  5.73824640e-01
  9.03204795e-01  1.28624801e+00  1.71370203e+00  2.17076326e+00
  2.63707673e+00  3.09598841e+00  3.52714333e+00  3.91573789e+00
  4.24511805e+00  4.50603154e+00  4.69107657e+00  4.79285134e+00
  4.81320629e+00  4.75584233e+00  4.62446036e+00  4.42646218e+00
  4.16924959e+00  3.86207484e+00  3.51419018e+00  3.13299741e+00
  2.72959925e+00  2.30954703e+00  1.88024256e+00  1.44723719e+00
  1.01978316e+00  6.05282295e-01  2.07435479e-01 -1.62654582e-01
 -5.03137438e-01 -8.10312189e-01 -1.08047793e+00 -1.31363467e+00
 -1.51348331e+00 -1.68187428e+00 -1.82435896e+00 -1.94278778e+00
 -2.04271209e+00 -2.12968326e+00 -2.20555172e+00 -2.27216793e+00
 -2.32953189e+00 -2.37764360e+00 -2.41650306e+00 -2.44240936e+00
 -2.45351206e+00 -2.44981116e+00 -2.42760576e+00 -2.38504540e+00
 -2.32583099e+00 -2.24811208e+00 -2.15558956e+00 -2.05566525e+00
 -1.95204003e+00 -1.85026526e+00 -1.75774275e+00 -1.68002383e+00
 -1.62451032e+00 -1.59305267e+00 -1.58935177e+00 -1.61710852e+00
 -1.67447248e+00 -1.76144365e+00 -1.87432112e+00 -2.01125444e+00
 -2.16854271e+00 -2.33693369e+00 -2.51457692e+00 -2.69592105e+00
 -2.87356428e+00 -3.04565616e+00 -3.20664534e+00 -3.35653181e+00
 -3.49346513e+00 -3.61744531e+00 -3.72847232e+00 -3.82839664e+00
 -3.91906871e+00 -4.00233897e+00 -4.07820743e+00 -4.14852454e+00
 -4.21143985e+00 -4.26695336e+00 -4.31321462e+00 -4.34837318e+00]",4.094342806769001,1.9404747145217782,4.50347,0.31892499999999924
039,1,2,csp,32b.png,1,1,252,42,253,1,1,547,pos_feedback_onset,6,"[nan nan nan nan nan nan nan nan nan nan nan nan nan nan nan nan nan nan
 nan nan nan nan nan nan nan nan nan nan nan nan nan nan nan nan nan nan
 nan nan nan nan nan nan nan nan nan nan nan nan nan nan nan nan nan nan
 nan nan nan nan nan nan nan nan nan nan nan nan nan nan nan nan nan nan
 nan nan nan nan nan nan nan nan nan nan nan nan nan nan nan nan nan nan
 nan nan nan nan nan nan nan nan nan nan nan nan nan nan nan nan nan nan
 nan nan nan nan nan nan nan nan nan nan nan nan nan nan nan nan nan nan
 nan nan nan nan nan nan nan nan nan nan nan nan nan nan nan nan nan nan
 nan nan nan nan nan nan nan nan nan nan nan nan nan nan nan nan nan nan
 nan nan nan nan nan nan nan nan nan nan nan nan nan nan nan nan nan nan
 nan nan nan nan nan nan nan nan nan nan nan nan nan nan nan nan nan nan
 nan nan nan nan nan nan nan nan nan nan nan nan nan nan nan nan nan nan
 nan nan nan nan nan nan nan nan nan nan nan nan nan nan nan nan nan nan
 nan nan nan nan nan nan nan nan nan nan nan nan nan nan nan nan nan nan
 nan nan nan nan nan nan nan nan]","[ 0.21257662  0.13857257  0.05716812 -0.02978663 -0.11674138 -0.19629573
 -0.26844967 -0.32580281 -0.36280483 -0.37760564 -0.36650503 -0.32580281
 -0.25364886 -0.1555935  -0.02978663  0.12007156  0.28843076  0.46974067
  0.66215119  0.86011201  1.06177303  1.26528415  1.47249547  1.683407
  1.89986883  2.12188096  2.3531436   2.59365674  2.84527049  3.10428465
  3.37069921  3.63896387  3.90537843  4.16624269  4.41415623  4.64541887
  4.8563304   5.04134051  5.1985991   5.32810618  5.42246134  5.48536478
  5.51496639  5.50941609  5.47056397  5.40396033  5.31330537  5.20599951
  5.08944314  4.97288677  4.8655809   4.77122575  4.70092191  4.65281928
  4.62876796  4.63061806  4.65466938  4.6990718   4.75827504  4.83227908
  4.91553363  5.00988879  5.11349445  5.22635062  5.34660719  5.47241407
  5.60377125  5.73882863  5.87018581  5.99414258  6.10329855  6.1902533
  6.24760643  6.26795754  6.24760643  6.17915269  6.05889612  5.88868682
  5.66852478  5.40211023  5.09129324  4.74532433  4.36975381  3.97568227
  3.57051013  3.16348788  2.76571615  2.38274522  2.0238256   1.6926575
  1.39294112  1.12467646  0.88971362  0.6843524   0.50304249  0.3457839
  0.20702631  0.08306954 -0.03163673 -0.13894259 -0.23884805 -0.33505331
 -0.42940847 -0.52006342 -0.60886827 -0.69767313 -0.78647798 -0.87713294
 -0.97148809 -1.06954345 -1.17499921 -1.28600528 -1.40256165 -1.52281822
 -1.64122469 -1.75593096 -1.85768652 -1.94279117 -2.00939481 -2.05194714
 -2.07044815 -2.07044815 -2.05564734 -2.03344613 -2.01679522 -2.01309502
 -2.03344613 -2.08894916 -2.18700452 -2.3276122  -2.51632252 -2.75128536
 -3.02510032 -3.33591731 -3.67448581 -4.03525553 -4.41267615 -4.80119739
 -5.19896912 -5.60044106]",,4.614753446275863,5.03158,0.12000999999999973
039,1,2,csm,66a.png,1,1,320,306,321,1,1,742,neu_feedback_onset,7,"[  3.0188576    2.91569558   2.74726779   2.51567957   2.23356303
   1.90302349   1.5345877    1.13667705   0.71350222   0.27769532
  -0.16442763  -0.60233988  -1.03183075  -1.44447883  -1.83186275
  -2.1897718   -2.51820599  -2.81505997  -3.08033374  -3.31823799
  -3.53087808  -3.72035934  -3.89510317  -4.05721492  -4.20879993
  -4.35196355  -4.49302183  -4.62776406  -4.76040094  -4.88882713
  -5.01093728  -5.12462604  -5.22989341  -5.31621265  -5.38358376
  -5.42148002  -5.42569071  -5.38989981  -5.30779126  -5.17936507
  -5.00462124  -4.78777046  -4.53933947  -4.2740657   -4.00247589
  -3.74562351  -3.51614065  -3.33297542  -3.20454923  -3.13928347
  -3.14138881  -3.20875993  -3.33718612  -3.51824599  -3.74351816
  -4.00037054  -4.2740657   -4.5540769   -4.82987741  -5.08672978
  -5.318318    -5.51622065  -5.67622705  -5.79623185  -5.87202435
  -5.90570991  -5.89939387  -5.85307623  -5.77096768  -5.65517358
  -5.50569391  -5.32673939  -5.11831     -4.88461644  -4.62565871
  -4.34564751  -4.05089888  -3.74772886  -3.44455883  -3.14770486
  -2.86769366  -2.61505197  -2.3939905   -2.21293062  -2.07608304
  -1.98555311  -1.93923546  -1.93291942  -1.96660498  -2.0297654
  -2.12029534  -2.2297734   -2.3497782   -2.48030974  -2.61715732
  -2.7540049   -2.89085248  -3.02770006  -3.16454763  -3.29928987
  -3.4340321   -3.56877433  -3.70562191  -3.84246949  -3.97931707
  -4.12248069  -4.26774966  -4.41722932  -4.57091968  -4.73303143
  -4.89935387  -5.06988701  -5.24673619  -5.42779606  -5.61096128
  -5.79623185  -5.98360777  -6.17098368  -6.36257029  -6.5541569
  -6.75205956  -6.95627825  -7.16891834  -7.39208516  -7.62788406
  -7.87420971  -8.13316743  -8.4026519   -8.6826631   -8.96688499
  -9.25321223  -9.53953948  -9.82165602 -10.09535118 -10.3585196
 -10.60484525 -10.83222276 -11.03854681 -11.21960668 -11.37329704
 -11.49540718 -11.58172643 -11.63436011 -11.64909754 -11.62593872
 -11.566989   -11.47014302 -11.34382217 -11.19223716 -11.02170403
 -10.8427495  -10.65958428 -10.4827351  -10.32062335 -10.17745973
 -10.05324424  -9.95218756  -9.87007901  -9.80481325  -9.74586352
  -9.68691379  -9.61743733  -9.52901274  -9.41321863  -9.26163362
  -9.07215236  -8.8384588   -8.56476364  -8.25106688  -7.90157922
  -7.52051135  -7.1141793   -6.68679379  -6.2383548   -5.77096768
  -5.28463244  -4.77092768  -4.23195875  -3.66140961  -3.06138561
  -2.43609744  -1.7897558   -1.13709812  -0.49075647   0.12821565
   0.70087014   1.2103642    1.63774972   1.97249995   2.21040421
   2.34935713   2.39988547   2.37672665   2.30093414   2.19356143
   2.08197802   1.98723738   1.9346037    1.93881439   2.01039621
   2.15566517   2.37251595   2.65252715   2.98306669   3.34939713
   3.72835966   4.10942753   4.47365263   4.81050821   5.11578358
   5.38526804   5.62527764   5.84002307   6.03792573   6.22951234
   6.42109895   6.62110695   6.83164169   7.04849247   7.26744859
   7.48008868   7.67378064   7.84010308   7.96642392   8.04432177
   8.07169129   8.04221643   7.96221323   7.83799773   7.67799133
   7.49693146   7.30745019   7.12007428   6.94743579   6.80006148
   6.68005668   6.59584278   6.54110375   6.51373423   6.51162889
   6.52636632   6.55373583   6.58952674   6.63163369   6.67795133
   6.73058501   6.78742939   6.84848447   6.90953954   6.96427857
   7.00849087   7.02743899   7.01691226   6.96427857   6.86743259
   6.72216362   6.53057701   6.2989888    6.03371503   5.74528244]","[ -1.63125467  -1.57485866  -1.48019392  -1.34927461  -1.186129
  -1.00082781  -0.79538519  -0.57584357  -0.35025952  -0.12064718
   0.10493687   0.32850677   0.54402011   0.75349101   0.9528912
   1.14222067   1.32147943   1.48865332   1.64374236   1.78473239
   1.90759513   2.01233059   2.0969246    2.15936305   2.2036742
   2.22784392   2.23992878   2.24395707   2.24597121   2.2499995
   2.2640985    2.29431065   2.34466423   2.41515925   2.50982398
   2.62463015   2.75756361   2.90258193   3.05767097   3.21276
   3.36180661   3.49675421   3.60753209   3.68809782   3.73039483
   3.72636655   3.67601296   3.57329165   3.41820262   3.21678829
   2.9710628    2.68505445   2.36681981   2.02441545   1.66388379
   1.28723899   0.90253762   0.51179382   0.11702173  -0.27976451
  -0.67655074  -1.07333697  -1.46609492  -1.85482458  -2.23549766
  -2.60811418  -2.96461754  -3.30299362  -3.61317169  -3.89313761
  -4.13483481  -4.334235    -4.49133818  -4.60211606  -4.67462522
  -4.71289394  -4.72699294  -4.72900709  -4.73504952  -4.75317681
  -4.79748796  -4.87805369  -5.00091644  -5.17010447  -5.38561781
  -5.64745644  -5.95159208  -6.28996816  -6.65654224  -7.0452719
  -7.44608642  -7.85495751  -8.2638286   -8.66665727  -9.05740107
  -9.43203173  -9.79054924 -10.12691117 -10.44111753 -10.73115416
 -10.99903523 -11.24274657 -11.46430233 -11.66571666 -11.8490037
 -12.01416346 -12.16723835 -12.30822838 -12.43713355 -12.55999629
 -12.67681661 -12.78960863 -12.90038651 -13.00713611 -13.11187156
 -13.21660701 -13.31731418 -13.41802135 -13.51470022 -13.60936496
 -13.7040297  -13.79466615 -13.88328845 -13.97191076 -14.05650478
 -14.1410988  -14.22166453 -14.29618783 -14.36668285 -14.42912129
 -14.47746073 -14.50767288 -14.51572945 -14.49558802 -14.43919201
 -14.34452727 -14.20555138 -14.02427848 -13.80272272 -13.54692652]",6.6408972148359595,2.11172855793382,4.74981,0.0791599999999999
039,1,2,csp,63b.png,1,1,0,116,360,1,1,477,pos_feedback_onset,8,"[ 3.96229465e-01  2.06197271e-01  5.07163844e-02 -7.02131939e-02
 -1.49187612e-01 -1.91142772e-01 -1.98546624e-01 -1.73867118e-01
 -1.29444008e-01 -7.26811445e-02 -8.51442949e-03  5.31843349e-02
  1.05011297e-01  1.37094655e-01  1.46966457e-01  1.27222852e-01
  8.03317913e-02  6.29327397e-03 -9.48926997e-02 -2.20758179e-01
 -3.58963411e-01 -5.04572495e-01 -6.50181579e-01 -7.83450911e-01
 -8.96976637e-01 -9.78419006e-01 -1.02531007e+00 -1.03024597e+00
 -9.95694660e-01 -9.19188192e-01 -8.05662466e-01 -6.62521332e-01
 -5.02104545e-01 -3.26880054e-01 -1.46719662e-01  2.85048292e-02
  1.98793419e-01  3.56742256e-01  5.09755192e-01  6.52896325e-01
  7.98505409e-01  9.44114493e-01  1.10206333e+00  1.27481987e+00
  1.46485206e+00  1.67709581e+00  1.90661522e+00  2.15834618e+00
  2.42488484e+00  2.70623121e+00  2.99991732e+00  3.30347524e+00
  3.61196907e+00  3.92786674e+00  4.24870032e+00  4.57446979e+00
  4.90517517e+00  5.24328440e+00  5.59126543e+00  5.95158621e+00
  6.32671470e+00  6.71665089e+00  7.12633069e+00  7.55328614e+00
  7.99998519e+00  8.46149195e+00  8.93533846e+00  9.41412087e+00
  9.89043533e+00  1.03593459e+01  1.08134488e+01  1.12404043e+01
  1.16377443e+01  1.19980651e+01  1.23139628e+01  1.25829694e+01
  1.28050850e+01  1.29753736e+01  1.31012390e+01  1.31826814e+01
  1.32295725e+01  1.32493161e+01  1.32517840e+01  1.32493161e+01
  1.32517840e+01  1.32665917e+01  1.33036110e+01  1.33653097e+01
  1.34516880e+01  1.35652137e+01  1.36984831e+01  1.38465601e+01
  1.40045089e+01  1.41649257e+01  1.43253425e+01  1.44832914e+01
  1.46363043e+01  1.47893172e+01  1.49472661e+01  1.51101508e+01
  1.52878432e+01  1.54828113e+01  1.56975230e+01  1.59369142e+01
  1.61985170e+01  1.64823313e+01  1.67883572e+01  1.71141267e+01
  1.74596398e+01  1.78199605e+01  1.81901531e+01  1.85702175e+01
  1.89502819e+01  1.93254104e+01  1.96832632e+01  2.00139686e+01
  2.03076547e+01  2.05519818e+01  2.07370781e+01  2.08506038e+01
  2.08900911e+01  2.08506038e+01  2.07272063e+01  2.05223664e+01
  2.02434880e+01  1.98955070e+01  1.94833592e+01  1.90243204e+01
  1.85208585e+01  1.79853132e+01  1.74275564e+01  1.68525239e+01
  1.62676196e+01  1.56777794e+01  1.50879392e+01  1.44980991e+01
  1.39131948e+01  1.33381623e+01  1.27804055e+01  1.22423922e+01
  1.17339944e+01  1.12626159e+01  1.08405963e+01  1.04753396e+01
  1.01767176e+01  9.94966615e+00  9.79912116e+00  9.72508265e+00
  9.72755060e+00  9.79665321e+00  9.92251869e+00  1.01002111e+01
  1.03124549e+01  1.05543140e+01  1.08085129e+01  1.10676478e+01
  1.13218467e+01  1.15612379e+01  1.17759496e+01  1.19561100e+01
  1.20943152e+01  1.21806935e+01  1.22053730e+01  1.21658858e+01
  1.20572959e+01  1.18771355e+01  1.16328084e+01  1.13243146e+01
  1.09639938e+01  1.05543140e+01  1.01100829e+01  9.63623642e+00
  9.14264631e+00  8.63671644e+00  8.11844682e+00  7.59770925e+00
  7.07450373e+00  6.54883025e+00  6.02315678e+00  5.49995126e+00
  4.97674574e+00  4.45847611e+00  3.94761035e+00  3.44414843e+00
  2.95302626e+00  2.48164770e+00  2.03248070e+00  1.61539705e+00
  1.23780061e+00  9.04627284e-01  6.25748869e-01  4.06101267e-01
  2.50620381e-01  1.56838259e-01  1.24754902e-01  1.51902358e-01
  2.30876776e-01  3.56742256e-01  5.22094945e-01  7.17063040e-01
  9.34242691e-01  1.17116595e+00  1.41796100e+00  1.67462786e+00
  1.93623063e+00  2.20276929e+00  2.47177590e+00  2.74078251e+00
  3.00978913e+00  3.27879574e+00  3.55027030e+00  3.81927692e+00
  4.09075148e+00  4.36222604e+00  4.63123265e+00  4.90270722e+00
  5.17171383e+00  5.44318839e+00  5.71466296e+00  5.98366957e+00
  6.25514413e+00  6.52415075e+00  6.79562531e+00  7.06709987e+00
  7.33610649e+00  7.60758105e+00  7.87658766e+00  8.14806223e+00
  8.41706884e+00  8.68854340e+00  8.96001797e+00  9.22902458e+00
  9.50049914e+00  9.76950576e+00  1.00409803e+01  1.03124549e+01
  1.05814615e+01  1.08529361e+01  1.11219427e+01  1.13934172e+01
  1.16648918e+01  1.19338984e+01  1.22053730e+01  1.24743796e+01
  1.27458542e+01  1.30148608e+01  1.32863353e+01  1.35578099e+01
  1.38268165e+01  1.40982911e+01  1.43672977e+01  1.46387722e+01
  1.49102468e+01  1.51817214e+01  1.54531959e+01  1.57271384e+01
  1.60010810e+01  1.62799594e+01  1.65662416e+01  1.68599278e+01]","[-0.97441024 -1.01744783 -1.0487479  -1.06635419 -1.06048542 -1.02918536
 -0.96462897 -0.86681625 -0.73183471 -0.56164059 -0.3562339  -0.11952713
  0.14456719  0.43213656  0.73731222  1.05422541  1.37700736  1.69978931
  2.02061501  2.33165943  2.62901008  2.91266694  3.18067377  3.43107432
  3.66386857  3.87905654  4.07663822  4.25661361  4.41702645  4.55787676
  4.67720827  4.77502098  4.84740239  4.898265    4.9236963   4.92565256
  4.90413376  4.86305242  4.80632105  4.73198339  4.64786446  4.55592051
  4.46006405  4.36225134  4.26639488  4.17836344  4.10206952  4.03946939
  4.0003443   3.98665052  4.00425681  4.05316317  4.1372821   4.2527011
  4.3935514   4.552008    4.7143771   4.86892118  4.99999022  5.09780293
  5.14670929  5.14475303  5.08410915  4.97064641  4.80632105  4.5989581
  4.36420759  4.10989454  3.85166898  3.59735593  3.36064916  3.1454612
  2.95766079  2.7992042   2.67204767  2.5722787   2.49794104  2.44512218
  2.4099096   2.3883908   2.37860953  2.37860953  2.3844783   2.39817208
  2.41577836  2.43729716  2.46664097  2.49794104  2.53510987  2.57423496
  2.61727255  2.65835389  2.69747898  2.7307353   2.75421035  2.76399162
  2.7561666   2.72486653  2.67009142  2.58597248  2.47055348  2.32970318
  2.15950906  1.96583989  1.75065192  1.52177018  1.2811509   1.03466287
  0.78426233  0.53190553  0.28346124  0.03892946 -0.19973356 -0.43057156
 -0.65162829 -0.85703498 -1.04483539 -1.20916075 -1.34609854 -1.44978002
 -1.51629266 -1.54172397 -1.52998644 -1.47716758 -1.39304865 -1.28154215
 -1.15242937 -1.01744783 -0.89029131 -0.78465358 -0.71422842 -0.69662214
 -0.74161598 -0.86094749 -1.06244168 -1.3480548  -1.71778685 -2.16185656
 -2.67439518 -3.23584014]",17.691935601297626,4.014918394854265,4.051945000000001,0.4264549999999998
039,1,2,csm,54a.png,1,0,144,NaN,326,1,0,297,neu_feedback_onset,9,"[ 3.21782466e-01  4.29500915e-01  4.78079824e-01  4.71743444e-01
  4.25276662e-01  3.47127983e-01  2.43633787e-01  1.29578958e-01
  1.12998765e-02 -1.04867079e-01 -2.08361275e-01 -2.97070586e-01
 -3.64658633e-01 -4.06901162e-01 -4.17461794e-01 -3.96340530e-01
 -3.39313115e-01 -2.48491678e-01 -1.19651964e-01  4.50938999e-02
  2.41521660e-01  4.69631318e-01  7.25198619e-01  1.00399931e+00
  1.30814552e+00  1.62918874e+00  1.96712898e+00  2.31562984e+00
  2.67469134e+00  3.03375284e+00  3.38859008e+00  3.73497882e+00
  4.06235842e+00  4.36861676e+00  4.64741745e+00  4.89664837e+00
  5.11419740e+00  5.30006453e+00  5.45636188e+00  5.58942585e+00
  5.69925643e+00  5.79430212e+00  5.87878717e+00  5.95482373e+00
  6.02874815e+00  6.09844833e+00  6.17026063e+00  6.24629718e+00
  6.32444586e+00  6.40893092e+00  6.50186448e+00  6.60535868e+00
  6.72152563e+00  6.85247747e+00  7.00243845e+00  7.16929644e+00
  7.35516357e+00  7.55792771e+00  7.77125248e+00  7.99513788e+00
  8.22324754e+00  8.45135720e+00  8.67524260e+00  8.89912801e+00
  9.11878916e+00  9.33633819e+00  9.55599934e+00  9.78199687e+00
  1.00101065e+01  1.02403283e+01  1.04705501e+01  1.06923234e+01
  1.08993118e+01  1.10830668e+01  1.12351399e+01  1.13513068e+01
  1.14294555e+01  1.14632495e+01  1.14611374e+01  1.14210070e+01
  1.13513068e+01  1.12583733e+01  1.11464306e+01  1.10197030e+01
  1.08866390e+01  1.07514629e+01  1.06141747e+01  1.04832229e+01
  1.03564953e+01  1.02424404e+01  1.01389462e+01  1.00502369e+01
  9.98053675e+00  9.92984572e+00  9.89816382e+00  9.89182744e+00
  9.91083658e+00  9.95519124e+00  1.00291157e+01  1.01283856e+01
  1.02572253e+01  1.04092984e+01  1.05846049e+01  1.07789206e+01
  1.09795726e+01  1.11844488e+01  1.13829887e+01  1.15646316e+01
  1.17251532e+01  1.18561050e+01  1.19532629e+01  1.20166267e+01
  1.20483086e+01  1.20483086e+01  1.20229630e+01  1.19807205e+01
  1.19236931e+01  1.18624414e+01  1.17990776e+01  1.17399381e+01
  1.16871349e+01  1.16427803e+01  1.16089863e+01  1.15815286e+01
  1.15625195e+01  1.15519588e+01  1.15456225e+01  1.15456225e+01
  1.15498467e+01  1.15582952e+01  1.15751922e+01  1.15963135e+01
  1.16279954e+01  1.16702379e+01  1.17230411e+01  1.17906291e+01
  1.18708899e+01  1.19659356e+01  1.20715419e+01  1.21877089e+01
  1.23102122e+01  1.24306034e+01  1.25446583e+01  1.26460403e+01
  1.27284133e+01  1.27833286e+01  1.28107862e+01  1.28023377e+01
  1.27622073e+01  1.26882829e+01  1.25826766e+01  1.24496126e+01
  1.22912031e+01  1.21158966e+01  1.19258052e+01  1.17314896e+01
  1.15329497e+01  1.13365219e+01  1.11485427e+01  1.09668998e+01
  1.07979297e+01  1.06395202e+01  1.04937835e+01  1.03564953e+01
  1.02276556e+01  1.01072643e+01  9.99532164e+00  9.89182744e+00
  9.79889388e+00  9.71863307e+00  9.65738141e+00  9.61936313e+00
  9.61091462e+00  9.63626014e+00  9.69962394e+00  9.80523026e+00
  9.95307911e+00  1.01431705e+01  1.03712801e+01  1.06289596e+01
  1.09098724e+01  1.12055701e+01  1.15054921e+01  1.18011898e+01
  1.20884390e+01  1.23587911e+01  1.26101342e+01  1.28403560e+01
  1.30473444e+01  1.32353236e+01  1.34021816e+01  1.35479183e+01
  1.36704217e+01  1.37696916e+01  1.38415039e+01  1.38858586e+01
  1.38964192e+01  1.38731858e+01  1.38161584e+01  1.37232248e+01
  1.35986094e+01  1.34444241e+01  1.32691176e+01  1.30769141e+01
  1.28720379e+01  1.26650495e+01  1.24559490e+01  1.22510727e+01
  1.20525328e+01  1.18624414e+01  1.16807986e+01  1.15054921e+01
  1.13407462e+01  1.11802246e+01  1.10281515e+01  1.08824148e+01
  1.07409023e+01  1.06057262e+01  1.04789986e+01  1.03564953e+01
  1.02445526e+01  1.01410584e+01  1.00502369e+01  9.96997612e+00
  9.90238808e+00  9.84324853e+00  9.79044537e+00  9.73764221e+00
  9.68061480e+00  9.61302675e+00  9.52431744e+00  9.41026261e+00
  9.26452589e+00  9.08077088e+00  8.85688548e+00  8.59286967e+00
  8.29083559e+00  7.95711961e+00  7.59594598e+00  7.21787535e+00
  6.83135621e+00  6.44906132e+00  6.08155131e+00  5.73938683e+00
  5.42890424e+00  5.15855205e+00  4.93044240e+00  4.74246314e+00
  4.59250216e+00  4.47633521e+00  4.38551377e+00  4.31370147e+00
  4.25033768e+00  4.19119814e+00  4.12783434e+00  4.05602204e+00
  3.97576124e+00  3.88493980e+00  3.78144560e+00  3.66950290e+00]","[-1.33907927 -1.22101203 -1.09310586 -0.95732853 -0.81761563 -0.67790273
 -0.53818983 -0.40044472 -0.26466739 -0.12495449  0.01672619  0.16234245
  0.31189429  0.46931728  0.63264362  0.80187333  0.97700641  1.16197841
  1.350886    1.54963252  1.7542824   1.96483564  2.18129225  2.40562
  2.63388333  2.86608223  3.10221671  3.34031898  3.57842124  3.8184913
  4.05462578  4.28485689  4.50918465  4.72367347  4.92832335  5.11919872
  5.29629958  5.46159371  5.61508112  5.7587296   5.89450692  6.0224131
  6.14441591  6.26248315  6.37661482  6.49074648  6.59897478  6.7052353
  6.80756024  6.90201403  6.98859667  7.06337259  7.124374    7.16963311
  7.19521434  7.2011177   7.18143983  7.1401163   7.07321153  6.98072552
  6.86462607  6.72491317  6.56355461  6.38251818  6.18573945  5.97715399
  5.76266517  5.54817635  5.34352647  5.15461889  4.98735697  4.84764407
  4.73744798  4.6567687   4.60167065  4.56625048  4.54460482  4.52295916
  4.49147456  4.44424767  4.36947175  4.26124344  4.11759497  3.93852632
  3.72797308  3.48790303  3.22618731  2.9487293   2.65946457  2.36626425
  2.07109616  1.77592806  1.48272775  1.19149522  0.90419827  0.61690133
  0.33157216  0.04821079 -0.2331828  -0.51457638 -0.79596997 -1.07539577
 -1.350886   -1.62440843 -1.8939953  -2.15571101 -2.40955558 -2.65159342
 -2.88182453 -3.09631335 -3.29702766 -3.48199967 -3.65713274 -3.82439466
 -3.98968879 -4.16088629 -4.3458583  -4.55050818 -4.77877151 -5.03655165
 -5.31991302 -5.62688785 -5.95157275 -6.28806439 -6.62455602 -6.95120871
 -7.26015132 -7.54154491 -7.79538947 -8.01578165 -8.20272145 -8.36014444
 -8.49198619 -8.60218228 -8.69466828 -8.77337977 -8.84422012 -8.90718931
 -8.96622293 -9.02328876]",12.382288552380189,6.172801243641565,4.734565000000001,0.0030249999999991672
039,1,2,csm,10a.png,1,1,332,327,153,1,1,940,neu_feedback_onset,10,"[ 2.66714176e-01  2.06454588e-01  1.46195000e-01  8.85553943e-02
  3.09157885e-02 -2.14838531e-02 -7.38834946e-02 -1.18423190e-01
 -1.55102939e-01 -1.83922742e-01 -2.02262617e-01 -2.04882599e-01
 -1.94402670e-01 -1.68202849e-01 -1.23663154e-01 -5.81636022e-02
  2.30558423e-02  1.25235143e-01  2.43134337e-01  3.74133441e-01
  5.20852437e-01  6.80671344e-01  8.48350197e-01  1.02126901e+00
  1.20204778e+00  1.38544652e+00  1.57146525e+00  1.76010396e+00
  1.94874267e+00  2.14000136e+00  2.33126005e+00  2.51989876e+00
  2.71115746e+00  2.90241615e+00  3.09367484e+00  3.28493353e+00
  3.47619222e+00  3.66745091e+00  3.85870961e+00  4.04996830e+00
  4.24122699e+00  4.43248568e+00  4.62374437e+00  4.81500307e+00
  5.00888174e+00  5.20276041e+00  5.40187905e+00  5.60361767e+00
  5.80797627e+00  6.02281480e+00  6.24289330e+00  6.47607170e+00
  6.71973004e+00  6.97648828e+00  7.24634643e+00  7.52668452e+00
  7.81750253e+00  8.11618049e+00  8.41223846e+00  8.70567645e+00
  8.98863452e+00  9.25325271e+00  9.49691104e+00  9.71436955e+00
  9.90038828e+00  1.00575872e+01  1.01859663e+01  1.02881456e+01
  1.03693651e+01  1.04296247e+01  1.04794043e+01  1.05213240e+01
  1.05606238e+01  1.06051635e+01  1.06575631e+01  1.07178227e+01
  1.07885622e+01  1.08724016e+01  1.09667210e+01  1.10689003e+01
  1.11815595e+01  1.12994587e+01  1.14252179e+01  1.15562170e+01
  1.16950760e+01  1.18391750e+01  1.19963739e+01  1.21640528e+01
  1.23500715e+01  1.25570501e+01  1.27928485e+01  1.30548467e+01
  1.33509047e+01  1.36784024e+01  1.40347200e+01  1.44146174e+01
  1.48049947e+01  1.52006120e+01  1.55831294e+01  1.59420670e+01
  1.62643248e+01  1.65420429e+01  1.67673613e+01  1.69350402e+01
  1.70476994e+01  1.71079590e+01  1.71236789e+01  1.71027190e+01
  1.70529394e+01  1.69874398e+01  1.69140803e+01  1.68407208e+01
  1.67804612e+01  1.67333015e+01  1.67097217e+01  1.67097217e+01
  1.67359215e+01  1.67857012e+01  1.68590607e+01  1.69533800e+01
  1.70607993e+01  1.71813185e+01  1.73096976e+01  1.74433167e+01
  1.75795558e+01  1.77184148e+01  1.78598938e+01  1.80066128e+01
  1.81611918e+01  1.83288706e+01  1.85070294e+01  1.87035281e+01
  1.89183666e+01  1.91463050e+01  1.93873434e+01  1.96362417e+01
  1.98877600e+01  2.01366583e+01  2.03750766e+01  2.06003951e+01
  2.08073737e+01  2.09907724e+01  2.11505913e+01  2.12842104e+01
  2.13942497e+01  2.14833291e+01  2.15566886e+01  2.16117082e+01
  2.16588679e+01  2.16981676e+01  2.17322274e+01  2.17636671e+01
  2.17977269e+01  2.18317867e+01  2.18632265e+01  2.18946662e+01
  2.19234860e+01  2.19470659e+01  2.19654058e+01  2.19732657e+01
  2.19680257e+01  2.19549258e+01  2.19261060e+01  2.18815663e+01
  2.18213067e+01  2.17427073e+01  2.16483879e+01  2.15357287e+01
  2.14021096e+01  2.12501506e+01  2.10824718e+01  2.09043130e+01
  2.07156743e+01  2.05244156e+01  2.03383969e+01  2.01654781e+01
  2.00135191e+01  1.98956199e+01  1.98144005e+01  1.97829607e+01
  1.98065405e+01  1.98877600e+01  2.00318590e+01  2.02309776e+01
  2.04824959e+01  2.07759339e+01  2.10929517e+01  2.14125895e+01
  2.17191274e+01  2.19837456e+01  2.21854843e+01  2.23033834e+01
  2.23243433e+01  2.22378839e+01  2.20413852e+01  2.17400873e+01
  2.13444700e+01  2.08676333e+01  2.03331569e+01  1.97593808e+01
  1.91672649e+01  1.85777689e+01  1.80039929e+01  1.74590366e+01
  1.69481401e+01  1.64739233e+01  1.60390063e+01  1.56355291e+01
  1.52634916e+01  1.49124140e+01  1.45770563e+01  1.42495585e+01
  1.39246808e+01  1.35998030e+01  1.32670653e+01  1.29264676e+01
  1.25753900e+01  1.22216924e+01  1.18627549e+01  1.15064373e+01
  1.11579797e+01  1.08200020e+01  1.05029842e+01  1.02121661e+01
  9.95016794e+00  9.71960952e+00  9.52573084e+00  9.36329196e+00
  9.23491283e+00  9.13535351e+00  9.05937403e+00  9.00697439e+00
  8.97029464e+00  8.94671480e+00  8.93361489e+00  8.92575495e+00
  8.92313497e+00  8.92313497e+00  8.92575495e+00  8.92837493e+00
  8.93099491e+00  8.93623488e+00  8.93885486e+00  8.94409482e+00
  8.94933479e+00  8.95195477e+00  8.95719473e+00  8.96243470e+00
  8.96767466e+00  8.97291463e+00  8.98077457e+00  8.98601454e+00
  8.99649446e+00  9.00697439e+00  9.02269428e+00  9.04103416e+00
  9.06199402e+00  9.09081382e+00  9.12225360e+00  9.16155333e+00]","[nan nan nan nan nan nan nan nan nan nan nan nan nan nan nan nan nan nan
 nan nan nan nan nan nan nan nan nan nan nan nan nan nan nan nan nan nan
 nan nan nan nan nan nan nan nan nan nan nan nan nan nan nan nan nan nan
 nan nan nan nan nan nan nan nan nan nan nan nan nan nan nan nan nan nan
 nan nan nan nan nan nan nan nan nan nan nan nan nan nan nan nan nan nan
 nan nan nan nan nan nan nan nan nan nan nan nan nan nan nan nan nan nan
 nan nan nan nan nan nan nan nan nan nan nan nan nan nan nan nan nan nan
 nan nan nan nan nan nan nan nan nan nan nan nan nan nan]",19.527970928678826,,3.8168200000000008,0.7241249999999999
039,1,2,csm,26a.png,1,1,96,48,99,1,0,NaN,neu_feedback_onset,11,"[-2.03353498 -1.81869095 -1.59901896 -1.37210504 -1.1355352  -0.88930946
 -0.63101382 -0.36306228 -0.0878688   0.18732468  0.45769021  0.70874391
  0.93082988  1.10946424  1.23257711  1.28568463  1.26154485  1.15050187
  0.94772772  0.65805037  0.2838838  -0.16028813 -0.65998156 -1.19347067
 -1.73902968 -2.26769084 -2.75531437 -3.17534653 -3.51330343 -3.74987327
 -3.88264205 -3.90436785 -3.8222926  -3.64607222 -3.38777658 -3.05947559
 -2.6756531  -2.25320697 -1.79937912 -1.32623946 -0.84344388 -0.35823432
  0.12214728  0.59287297  1.04670082  1.47880286  1.88435115  2.25851772
  2.59647463  2.89580789  3.15410352  3.37618949  3.55965181  3.70931844
  3.83243131  3.9314044   4.01106567  4.07865706  4.14142048  4.19694197
  4.25487744  4.31522689  4.38040429  4.45040965  4.52524297  4.60249026
  4.68456551  4.77146871  4.85837192  4.95010308  5.03942026  5.13115142
  5.22288258  5.31702772  5.40875888  5.50049004  5.5922212   5.68636634
  5.7780975   5.87224263  5.96397379  6.05570495  6.14985009  6.24158125
  6.33331241  6.42745755  6.51918871  6.61091987  6.70506501  6.79679617
  6.88852733  6.98267247  7.07440363  7.16854876  7.26027992  7.35201108
  7.44615622  7.53788738  7.62961854  7.72376368  7.81549484  7.907226
  8.00137114  8.0931023   8.18483346  8.2789786   8.37070976  8.4648549
  8.55658606  8.64831722  8.74246235  8.83660749  8.93075263  9.02489777
  9.12145688  9.22042998  9.32181705  9.42803208  9.5342471   9.64770407
  9.76116103  9.87461799  9.98807495 10.09670395 10.200505   10.29223616
 10.37189743 10.43707484 10.4853544  10.51673611 10.53604793 10.53846191
 10.53121998 10.51432213 10.48776837 10.45397268 10.41534904 10.36706948
 10.31637594 10.25844047 10.19567705 10.12808567 10.05808031  9.98807495
  9.91806959  9.85289219  9.79495672  9.74909114  9.72495136  9.72736534
  9.76598898  9.85047821  9.99048893 10.19326307 10.45880064 10.78710163
 11.16851014 11.59095627 12.03754218 12.4841281  12.90898821 13.29281069
 13.61386975 13.86250947 14.03148793 14.11839113 14.12321909 14.05562771
 13.92285892 13.73456865 13.50524075 13.24211716 12.95726776 12.66276246
 12.3634292  12.07133787 11.79131644 11.52819285 11.28438108 11.06229511
 10.85952097 10.67605865 10.51190815 10.36224152 10.22464478 10.10153191
  9.99048893  9.89151583  9.80219865  9.72736534  9.66460191  9.61873633
  9.58735462  9.57287075  9.57287075  9.58735462  9.61873633  9.65977396
  9.71288147  9.77323092  9.8408223   9.91324163  9.99048893 10.07256418
 10.15222545 10.23671467 10.3212039  10.40569313 10.49018235 10.57467158
 10.6591608  10.74606401 10.83055324 10.91504246 11.00194567 11.08643489
 11.17092412 11.25541335 11.34231655 11.42680578 11.511295   11.59819821
 11.68268743 11.76717666 11.85407986 11.93856909 12.02305832 12.10996152
 12.19445075 12.27893997 12.3634292  12.4503324  12.53482163 12.61931086
 12.70621406 12.79070329 12.87519251 12.96209572 13.04658495 13.13107417
 13.21797738 13.3024666  13.38695583 13.47144506 13.55834826 13.64283749
 13.72732671 13.81422992 13.89871914 13.98320837 14.07011157 14.1546008
 14.23909003 14.32599323 14.41048246 14.49497168 14.57946091 14.66636411
 14.75085334 14.83534257]","[ 1.37306596e+00  1.26181664e+00  1.09686076e+00  8.85870665e-01
  6.38436832e-01  3.73740173e-01  1.03289240e-01 -1.51816960e-01
 -3.80069876e-01 -5.66124774e-01 -7.00391195e-01 -7.79032956e-01
 -8.00131965e-01 -7.63688222e-01 -6.79292186e-01 -5.50780040e-01
 -3.85824151e-01 -1.97851162e-01  5.46656143e-03  2.16456652e-01
  4.23610558e-01  6.19255915e-01  7.97638445e-01  9.49167692e-01
  1.06808938e+00  1.14864923e+00  1.18701107e+00  1.17933870e+00
  1.12563213e+00  1.02972754e+00  8.95461124e-01  7.34341418e-01
  5.55958888e-01  3.73740173e-01  2.03030010e-01  5.53369464e-02
 -5.59123739e-02 -1.24963676e-01 -1.44144593e-01 -1.15373217e-01
 -3.86495483e-02  7.83540471e-02  2.31801385e-01  4.15938191e-01
  6.23092098e-01  8.45590739e-01  1.08535220e+00  1.33470413e+00
  1.59748270e+00  1.86985172e+00  2.15564739e+00  2.45678779e+00
  2.77327293e+00  3.10893898e+00  3.45994977e+00  3.82822338e+00
  4.20800554e+00  4.59354198e+00  4.97907841e+00  5.35118821e+00
  5.70219900e+00  6.02252031e+00  6.30064362e+00  6.52889653e+00
  6.70152479e+00  6.81469220e+00  6.87031686e+00  6.86648068e+00
  6.81085602e+00  6.70536097e+00  6.55766791e+00  6.37736728e+00
  6.17021338e+00  5.94579665e+00  5.71178945e+00  5.47202799e+00
  5.23418461e+00  4.99825933e+00  4.76617023e+00  4.53983541e+00
  4.31541868e+00  4.09100194e+00  3.86658521e+00  3.64025039e+00
  3.41199747e+00  3.18182646e+00  2.95357355e+00  2.72723872e+00
  2.50665818e+00  2.29183190e+00  2.08851418e+00  1.89286882e+00
  1.70489583e+00  1.52651330e+00  1.35388505e+00  1.18509297e+00
  1.02013709e+00  8.55181197e-01  6.92143400e-01  5.29105603e-01
  3.66067806e-01  2.01111918e-01  3.80741208e-02 -1.24963676e-01
 -2.86083381e-01 -4.45284995e-01 -5.98732333e-01 -7.44507305e-01
 -8.78773726e-01 -9.97695413e-01 -1.09743618e+00 -1.16840558e+00
 -1.20293123e+00 -1.19909504e+00 -1.14922466e+00 -1.05140198e+00
 -9.03708918e-01 -7.11899745e-01 -4.79810646e-01 -2.22786354e-01
  4.95826712e-02  3.23869788e-01  5.86648355e-01  8.22573638e-01
  1.02205518e+00  1.17742061e+00  1.28483374e+00  1.33854031e+00
  1.34237650e+00  1.29442420e+00  1.20043771e+00  1.06617129e+00
  8.99297307e-01  7.03651951e-01  4.90743769e-01  2.66327037e-01
  3.99922125e-02 -1.82506428e-01 -3.93496518e-01 -5.91059966e-01]",13.983898077714906,4.660147712244059,4.14254,0.4000750000000002
039,1,2,csp,30b.png,1,1,108,225,111,1,1,469,pos_feedback_onset,12,"[ 0.26952641  0.36931329  0.46095431  0.54648592  0.61776227  0.67478335
  0.71143975  0.72162209  0.69922095  0.64016341  0.53834006  0.39171443
  0.19825006 -0.04001658 -0.31697609 -0.62651908 -0.9584632  -1.29855319
 -1.63660672 -1.96244144 -2.26994796 -2.55301687 -2.80961172 -3.03973249
 -3.24541566 -3.43073416 -3.59976092 -3.75453241 -3.89912157 -4.03352839
 -4.16182581 -4.28401384 -4.39398305 -4.49580641 -4.58337449 -4.65261437
 -4.70352604 -4.73407305 -4.74018245 -4.72389071 -4.68927077 -4.64039556
 -4.58337449 -4.52838988 -4.4835876  -4.45711353 -4.46118647 -4.50191581
 -4.58337449 -4.70963544 -4.88273514 -5.09656417 -5.34908608 -5.63011853
 -5.93151565 -6.24513157 -6.55874749 -6.86014461 -7.14321352 -7.39980837
 -7.62178327 -7.8050653  -7.94965446 -8.05147781 -8.11257182 -8.13700943
 -8.12275416 -8.07795188 -8.00463907 -7.90485219 -7.78470063 -7.64825734
 -7.49755879 -7.33667789 -7.16357819 -6.98233263 -6.78886826 -6.58725803
 -6.37139253 -6.14330822 -5.89689571 -5.63419147 -5.34908608 -5.0456525
 -4.72389071 -4.38176425 -4.02741899 -3.66492786 -3.29632733 -2.92976327
 -2.57338154 -2.23125508 -1.91152976 -1.61624205 -1.34946487 -1.11527116
 -0.91162446 -0.74056123 -0.59597207 -0.47785699 -0.3780701  -0.29661142
 -0.22737154 -0.16424106 -0.10721999 -0.05019891  0.00885863  0.06995264
  0.13511959  0.20639593  0.28581815  0.37134976  0.46502724  0.56888706
  0.67885628  0.7949349   0.91304999  1.02912861  1.13909782  1.23684824
  1.31830692  1.37736447  1.4119844   1.42013027  1.40383854  1.36718213
  1.31423399  1.25313998  1.19408243  1.14724369  1.12280609  1.12891549
  1.1716813   1.25517644  1.3814374   1.54639123  1.74392853  1.96386697
  2.19602421  2.42818145  2.64811988  2.84565718  3.01264748  3.14298137
  3.23462238  3.28960699  3.31200813  3.30997166  3.28757053  3.25498705
  3.21833065  3.18574717  3.16130957  3.1470543   3.1470543   3.15723664
  3.17963777  3.21222125  3.25498705  3.3079352   3.36699274  3.43623262
  3.51361836  3.60322291  3.7030098   3.81705195  3.9433129   4.08179266
  4.23452769  4.39540858  4.56850828  4.74568091  4.92896294  5.11224497
  5.295527    5.4747361   5.64376286  5.80260729  5.94312351  6.06531153
  6.16306195  6.23841123  6.28728644  6.31172404  6.31172404  6.29135937
  6.24859356  6.18953602  6.11215027  6.02050926  5.91461297  5.79242495
  5.65598166  5.50324664  5.33421988  5.15501078  4.96561935  4.77215498
  4.58072708  4.39744505  4.23045475  4.08382913  3.95960464  3.86389069
  3.79261435  3.74170267  3.70504626  3.67653573  3.64598872  3.60525938
  3.54620184  3.46474316  3.35477394  3.21425771  3.04523095  2.84973012
  2.63182815  2.39559797  2.14511253  1.88851769  1.62988638  1.37329153
  1.12280609  0.88250298  0.65238221  0.43855317  0.2389794   0.05569737
 -0.10925646 -0.25384561 -0.38010657 -0.48803932 -0.5756074  -0.64484728
 -0.70186836 -0.7425977  -0.77518117 -0.79961877 -0.81998344 -0.83831165
 -0.85663985 -0.87293159 -0.88922332 -0.90347859 -0.91366093 -0.91773386
 -0.91569739 -0.90144212 -0.87700452 -0.83831165 -0.78943644 -0.73037889
 -0.66521195 -0.59597207 -0.52673219 -0.46156525 -0.40658064 -0.3597419
 -0.32715843 -0.30475729]","[ -1.7868131   -1.61972887  -1.44545823  -1.26400116  -1.07535768
  -0.88132439  -0.68190127  -0.47708835  -0.26688561  -0.05129306
   0.16429949   0.37989204   0.58829818   0.78592468   0.96738175
   1.12727955   1.2620249    1.36443136   1.43629555   1.47402424
   1.47941406   1.4560582    1.40575327   1.33388908   1.24046564
   1.13087276   1.00511044   0.86856849   0.72304352   0.56673892
   0.4032479    0.23616367   0.06368963  -0.10878441  -0.27766524
  -0.44295286  -0.60105407  -0.74837564  -0.88491759  -1.0052901
  -1.11488298  -1.21010303  -1.29634005  -1.37718725  -1.45983107
  -1.54786469  -1.65027115  -1.77423687  -1.92335505  -2.10481212
  -2.32040467  -2.57013271  -2.85219963  -3.16301222  -3.49897728
  -3.8565016   -4.22839875  -4.61287213  -5.00453194  -5.39798834
  -5.79144475  -6.18310455  -6.56398473  -6.93228867  -7.27903335
  -7.59703237  -7.87191287  -8.09469184  -8.25099644  -8.32645383
  -8.3138776   -8.20428472  -7.9994718   -7.70303204  -7.33113489
  -6.89994978  -6.43283259  -5.95673237  -5.49500499  -5.07280291
  -4.70629557  -4.40805921  -4.18528024  -4.03616206  -3.95890806
  -3.94633183  -3.98406052  -4.06670434  -4.18168703  -4.32182219
  -4.47992339  -4.64880422  -4.82307487  -5.00453194  -5.1877856
  -5.37103927  -5.55608955  -5.74293642  -5.9279867   -6.11303697
  -6.29988385  -6.48493412  -6.6699844   -6.85683127  -7.04188155
  -7.22693182  -7.4137787   -7.59882897  -7.78387925  -7.96892952
  -8.1557764   -8.33903007  -8.52228374  -8.7055374   -8.88519786
  -9.06306172  -9.23553576  -9.40261999  -9.5643144   -9.71522919
  -9.86075416  -9.99729611 -10.12844825 -10.25780378 -10.39434573
 -10.54346391 -10.71773455 -10.92614069 -11.18305514 -11.49566434
 -11.8711547  -12.31671264 -12.83233816 -13.41264145 -14.05223269
 -14.73853564 -15.45897408 -16.19737857 -16.94296948 -17.68137397]",5.196961998507263,0.19609939175950705,4.910465,0.3685900000000002
039,1,2,csm,24a.png,1,0,88,NaN,91,1,0,NaN,neu_feedback_onset,13,"[ 3.78134066  3.10948236  2.45716903  1.83661628  1.25271034  0.72010994
  0.24370133 -0.16918614 -0.51366621 -0.78729577 -0.99496106 -1.14154833
 -1.23438693 -1.28324935 -1.29790808 -1.28569247 -1.2539319  -1.20506948
 -1.14887769 -1.08535654 -1.01450603 -0.93632616 -0.85326004 -0.76042144
 -0.65781035 -0.53809742 -0.39883952 -0.24003665 -0.05680257  0.15330585
  0.38540235  0.63948694  0.90823026  1.18674607  1.46037563  1.71934647
  1.95388609  2.1517789   2.30569553  2.40830661  2.45716903  2.44983967
  2.39120476  2.28370744  2.13467705  1.95632921  1.7584364   1.55321423
  1.34799206  1.15742862  0.98641014  0.84226599  0.72988242  0.64681631
  0.59062452  0.56375019  0.56130707  0.5759658   0.60528325  0.64681631
  0.69567873  0.74942739  0.8080623   0.86669721  0.92777523  0.98885326
  1.05237441  1.11345244  1.17453046  1.23805161  1.29668652  1.35532142
  1.41151321  1.46526187  1.51412429  1.55810047  1.59719041  1.62895098
  1.65582532  1.67781341  1.69491525  1.7120171   1.72911895  1.74866392
  1.77553825  1.80974195  1.85371812  1.90502367  1.96610169  2.03695221
  2.11513208  2.1981982   2.28615056  2.37654604  2.47182776  2.56710948
  2.66727745  2.76744541  2.87249962  2.97999695  3.09482364  3.21697969
  3.34890823  3.4954955   3.65674149  3.83508933  4.03542526  4.25286303
  4.48495954  4.73171477  4.98824248  5.24477019  5.49885479  5.74561002
  5.98014964  6.19758742  6.39792335  6.58360055  6.75461903  6.91097878
  7.06000916  7.19682394  7.3311956   7.4582379   7.5852802   7.70987937
  7.83203543  7.9566346   8.07879066  8.20094671  8.32310276  8.44525882
  8.56741487  8.68957093  8.81172698  8.93388304  9.05603909  9.17575202
  9.3003512   9.42250725  9.54466331  9.66926248  9.79386166  9.92090395
 10.05283249 10.18964727 10.33623454 10.49259429 10.66605589 10.86150557
 11.07894335 11.32325546 11.59688502 11.89738891 12.2198809  12.55703161
 12.89418232 13.22156054 13.51962132 13.77370591 13.97159872 14.09864101
 14.14506031 14.11085662 13.99114369 13.79325088 13.52206444 13.18735685
 12.80378684 12.38357001 11.93403573 11.46984272 11.0032066  10.53412735
 10.07482058  9.62284318  9.18308139  8.75309208  8.33287525  7.92487403
  7.53397465  7.16017713  6.81325393  6.50053443  6.22934799  6.01191022
  5.85310734  5.76271186  5.73828065  5.78469995  5.89708352  6.07298824
  6.30508475  6.58604367  6.90609253  7.26034509  7.63902886  8.0372576
  8.44770194  8.86791877  9.28813559  9.7059093  10.11635364 10.51458238
 10.90059551 11.27194992 11.62375935 11.96091006 12.2785158  12.58390594
 12.87708047 13.16292564 13.43899832 13.715071   13.98870056 14.26721637
 14.54817529 14.83402046 15.12963811 15.43258513 15.74530463 16.06779661
 16.39761796 16.73721179 17.0865781  17.44816002 17.81707131 18.19575508
 18.58176821 18.97022446 19.35379447 19.72514888 20.07940144 20.40677966
 20.69506795 20.94182318 21.13971599 21.28874637 21.38647122 21.442663
 21.45976485 21.44754924 21.41090243 21.36448313 21.30584822 21.24477019
 21.1763628  21.10062605 21.01511681 20.9100626  20.78302031 20.62666056
 20.44098336 20.2259887  19.98411971 19.72270576 19.44907619 19.17300351
 18.90426019 18.65261872]","[-1.03806099 -0.96901865 -0.9205024  -0.88131621 -0.84586203 -0.80294382
 -0.74509753 -0.66299312 -0.55476457 -0.41854589 -0.25247106 -0.06213811
  0.15058695  0.38197211  0.62641933  0.87833059  1.13583988  1.39708119
  1.6601885   1.92329582  2.18453713  2.44577843  2.70701974  2.96452903
  3.22203832  3.47208357  3.71653079  3.94978196  4.16623904  4.358438
  4.52078081  4.64580344  4.72230982  4.74470193  4.70924776  4.61221527
  4.45360448  4.23714739  3.97404008  3.66988056  3.3395969   2.99438518
  2.64730744  2.30396172  1.97554408  1.66392052  1.37468908  1.10971575
  0.86900055  0.65627548  0.47527258  0.32785784  0.22149531  0.15618498
  0.13565888  0.16178301  0.22895935  0.33532188  0.46967455  0.62082131
  0.77756609  0.92871285  1.06119951  1.16756204  1.24220241  1.2795226
  1.2795226   1.24593443  1.17689209  1.0798596   0.95483698  0.80742224
  0.64134741  0.4603445   0.26627953  0.06288451 -0.14237651 -0.35136956
 -0.55849659 -0.76375762 -0.96342062 -1.15748559 -1.34968455 -1.53628548
 -1.72102041 -1.90575533 -2.09235627 -2.28082321 -2.47675419 -2.67641719
 -2.88354422 -3.09626929 -3.31272637 -3.53291547 -3.75123856 -3.96582964
 -4.17482268 -4.37075366 -4.55175657 -4.71409938 -4.85218407 -4.9585466
 -5.02758895 -5.05371308 -5.02758895 -4.94175252 -4.79620379 -4.58347873
 -4.30730935 -3.97515968 -3.59635979 -3.18397173 -2.75292357 -2.32374142
 -1.90948735 -1.52695544 -1.18920775 -0.90744034 -0.68538523 -0.52677443
 -0.43533998 -0.40548383 -0.439072   -0.52864044 -0.66859114 -0.85332607
 -1.07538118 -1.32729244 -1.60159581 -1.89082726 -2.18752274 -2.48421823
 -2.77531568 -3.05708309 -3.32205642 -3.57210167 -3.80348683 -4.0180779
 -4.21214287 -4.38754775]",19.747625591693428,2.6359714351291403,4.093124999999999,
039,1,2,csm,4a.png,1,1,184,242,NaN,0,0,NaN,neu_feedback_onset,14,"[nan nan nan nan nan nan nan nan nan nan nan nan nan nan nan nan nan nan
 nan nan nan nan nan nan nan nan nan nan nan nan nan nan nan nan nan nan
 nan nan nan nan nan nan nan nan nan nan nan nan nan nan nan nan nan nan
 nan nan nan nan nan nan nan nan nan nan nan nan nan nan nan nan nan nan
 nan nan nan nan nan nan nan nan nan nan nan nan nan nan nan nan nan nan
 nan nan nan nan nan nan nan nan nan nan nan nan nan nan nan nan nan nan
 nan nan nan nan nan nan nan nan nan nan nan nan nan nan nan nan nan nan
 nan nan nan nan nan nan nan nan nan nan nan nan nan nan nan nan nan nan
 nan nan nan nan nan nan nan nan nan nan nan nan nan nan nan nan nan nan
 nan nan nan nan nan nan nan nan nan nan nan nan nan nan nan nan nan nan
 nan nan nan nan nan nan nan nan nan nan nan nan nan nan nan nan nan nan
 nan nan nan nan nan nan nan nan nan nan nan nan nan nan nan nan nan nan
 nan nan nan nan nan nan nan nan nan nan nan nan nan nan nan nan nan nan
 nan nan nan nan nan nan nan nan nan nan nan nan nan nan nan nan nan nan
 nan nan nan nan nan nan nan nan]","[  2.44093716   2.03705519   1.6370944    1.25673954   0.90383296
   0.58621704   0.30781296   0.06666013  -0.13724145  -0.30977355
  -0.45681796  -0.58425645  -0.6960102   -0.79600039  -0.88618763
  -0.9665719   -1.03519263  -1.09008921  -1.12930105  -1.14890697
  -1.14890697  -1.12734046  -1.08616802  -1.02735026  -0.95872954
  -0.88226644  -0.80580335  -0.73326144  -0.6705225   -0.62346829
  -0.59209881  -0.57641408  -0.57641408  -0.59013822  -0.61366533
  -0.64699539  -0.68424664  -0.72345848  -0.76463092  -0.80384276
  -0.8430546   -0.88030585  -0.91559651  -0.95088717  -0.98617783
  -1.0175473   -1.05087736  -1.08028625  -1.10773454  -1.13126164
  -1.14890697  -1.16067052  -1.16263111  -1.15282815  -1.12930105
  -1.0920498   -1.043035    -0.98029605  -0.90775414  -0.83325164
  -0.76463092  -0.70581316  -0.6705225   -0.66464072  -0.69797079
  -0.77247329  -0.89599059  -1.06852269  -1.2900696   -1.56063131
  -1.87824723  -2.23507499  -2.62719341  -3.04872071  -3.49181453
  -3.95059308  -4.417214    -4.88383492  -5.34457406  -5.79354965
  -6.22684051  -6.64248603  -7.04048623  -7.42084109  -7.78747182
  -8.1384178   -8.47956083  -8.81090089  -9.13635918  -9.4539751
  -9.76570924 -10.06960102 -10.36172924 -10.64013332 -10.90285266
 -11.1420449  -11.35378884 -11.53416332 -11.67924713 -11.79100088
 -11.86550338 -11.910597   -11.93216351 -11.93804529 -11.94196647
 -11.95569062 -11.98902068 -12.05568082 -12.16155279 -12.31251838
 -12.51053818 -12.75169101 -13.03009509 -13.33986864 -13.66924811
 -14.00843055 -14.34761298 -14.68091364 -15.00049015 -15.30830311
 -15.60043133 -15.88275659 -16.15920008 -16.43172238 -16.70620527
 -16.98460935 -17.26889521 -17.55514165 -17.83942751 -18.12175277
 -18.39231448 -18.64719145 -18.88638369 -19.10400941 -19.3039898
 -19.48632487 -19.65101461 -19.80394079 -19.94706401 -20.08234487]",,-4.318767565791859e-15,4.92981,
039,2,2,csm,51a.png,1,1,116,NaN,116,1,0,841,neu_feedback_onset,1,"[-1.44506688 -1.29966937 -1.16246328 -1.03140074 -0.90238605 -0.77337137
 -0.64230883 -0.50919844 -0.37199235 -0.22864269 -0.07710163  0.08672654
  0.26284182  0.45533993  0.66422085  0.88743673  1.12908329  1.38506481
  1.64923774  1.92364993  2.20215782  2.48066572  2.76122146  3.0376815
  3.31414155  3.59264944  3.86910948  4.14966523  4.43226883  4.71282457
  4.99133247  5.25755325  5.51148691  5.74084636  5.94153587  6.10945975
  6.23847443  6.32857993  6.37977623  6.3982069   6.38796764  6.35724986
  6.31424496  6.26919221  6.22413947  6.18523028  6.15656035  6.13403397
  6.11969901  6.10741189  6.08898122  6.064407    6.02549781  5.9702058
  5.89443527  5.80023407  5.6876022   5.55858751  5.41728572  5.26984036
  5.1182993   4.9729018   4.83774355  4.72306383  4.63705404  4.58995344
  4.58995344  4.64934115  4.77016443  4.96061468  5.2165962   5.53196544
  5.89853097  6.30195785  6.72381539  7.14976864  7.56138693  7.94228743
  8.28632659  8.58326516  8.82900742  9.02560122  9.17304658  9.27748704
  9.34097046  9.37168824  9.37168824  9.34711401  9.30410912  9.24267355
  9.16485517  9.07679753  8.97850062  8.86791661  8.75118903  8.62627005
  8.49520751  8.36004927  8.22284318  8.08563708  7.95047884  7.82146415
  7.70064088  7.59005686  7.4897121   7.40165446  7.32383608  7.25830481
  7.2030128   7.1559122   7.11905086  7.09038093  7.07195026  7.06785456
  7.07809382  7.1088116   7.16205576  7.23987414  7.3484103   7.4856164
  7.65149242  7.84194267  8.05287145  8.27813518  8.51159033  8.73890192
  8.9580221   9.15871161  9.3348269   9.48227226  9.59899983  9.68091392
  9.72801452  9.74234948  9.72596666  9.68091392  9.61128694  9.51913359
  9.41264528  9.29386986  9.16895088  9.04403189  8.92116076  8.80648104
  8.70408843  8.61603079  8.54640382  8.49520751  8.46448973  8.45220262
  8.45629832  8.47677684  8.50544677  8.54026026  8.5771216   8.61398294
  8.64674857  8.6754185   8.70204058  8.72661481  8.74914118  8.77371541
  8.79624178  8.82081601  8.84129453  8.86177305  8.87610802  8.88429942
  8.88634728  8.88429942  8.87815587  8.86791661  8.8597252   8.85358164
  8.85358164  8.8597252   8.87406016  8.89658654  8.92525647  8.96211781
  9.00307485  9.0481276   9.0952282   9.1423288   9.1894294   9.23243429
  9.27339134  9.31025267  9.34097046  9.36759253  9.39011891  9.41059743
  9.43107595  9.44950662  9.47408085  9.50070293  9.53346856  9.56828205
  9.60514339  9.64200472  9.67067465  9.68910532  9.69115318  9.67272251
  9.63176546  9.56418634  9.47408085  9.36554468  9.2406257   9.11161101
  8.98669203  8.87201231  8.77781111  8.70613629  8.66517924  8.65084428
  8.66313139  8.69589703  8.74299763  8.79624178  8.84539023  8.88839513
  8.91296935  8.92116076  8.90887365  8.87610802  8.82491171  8.76142829
  8.68770562  8.61193509  8.53616456  8.47063329  8.41329343  8.37233638
  8.34571431  8.33957075  8.34776216  8.37028853  8.40510202  8.44810691
  8.49315966  8.53411671  8.56483449  8.57916945  8.5730259   8.53821241
  8.47472899  8.38052779  8.25356096  8.09792419  7.91566535  7.71088014
  7.48766425  7.24806555  6.99822758  6.74019821  6.47397743  6.2057088
  5.93334446  5.66098012]","[ 8.80598428e-01  6.60922261e-01  4.60183695e-01  2.80276489e-01
  1.23094404e-01 -1.51500805e-02 -1.30669444e-01 -2.23463687e-01
 -2.93532809e-01 -3.40876811e-01 -3.65495692e-01 -3.65495692e-01
 -3.40876811e-01 -2.97320330e-01 -2.34826248e-01 -1.57182085e-01
 -6.62816021e-02  3.40876811e-02  1.40138244e-01  2.51870088e-01
  3.63601932e-01  4.73440015e-01  5.79490579e-01  6.76072342e-01
  7.61291544e-01  8.29466907e-01  8.73023388e-01  8.88173468e-01
  8.67342108e-01  8.06741786e-01  7.00691222e-01  5.47296658e-01
  3.44664331e-01  9.65817631e-02 -1.95057286e-01 -5.24571537e-01
 -8.88173468e-01 -1.27450052e+00 -1.68355269e+00 -2.10396743e+00
 -2.53574472e+00 -2.97320330e+00 -3.41444939e+00 -3.85948300e+00
 -4.30262286e+00 -4.74765647e+00 -5.19269009e+00 -5.63772370e+00
 -6.08275731e+00 -6.52779093e+00 -6.97093078e+00 -7.41407064e+00
 -7.85531673e+00 -8.29466907e+00 -8.73023388e+00 -9.16201117e+00
 -9.58810719e+00 -1.00066282e+01 -1.04175741e+01 -1.08171575e+01
 -1.12053783e+01 -1.15841303e+01 -1.19553073e+01 -1.23208030e+01
 -1.26844049e+01 -1.30480068e+01 -1.34191838e+01 -1.37998296e+01
 -1.41937317e+01 -1.46008901e+01 -1.50250923e+01 -1.54625509e+01
 -1.59151595e+01 -1.63772370e+01 -1.68487833e+01 -1.73297983e+01
 -1.78146009e+01 -1.83012972e+01 -1.87917811e+01 -1.92822649e+01
 -1.97746426e+01 -2.02632326e+01 -2.07480352e+01 -2.12290503e+01
 -2.17024903e+01 -2.21626740e+01 -2.26114951e+01 -2.30394849e+01
 -2.34447496e+01 -2.38253953e+01 -2.41757409e+01 -2.44957864e+01
 -2.47855317e+01 -2.50468706e+01 -2.52816968e+01 -2.54975855e+01
 -2.56964303e+01 -2.58839125e+01 -2.60657135e+01 -2.62456207e+01
 -2.64236341e+01 -2.66035413e+01 -2.67853423e+01 -2.69652495e+01
 -2.71470505e+01 -2.73250639e+01 -2.75011836e+01 -2.76735158e+01
 -2.78420604e+01 -2.80030300e+01 -2.81602121e+01 -2.83117129e+01
 -2.84575324e+01 -2.85957769e+01 -2.87226588e+01 -2.88381782e+01
 -2.89347600e+01 -2.90105104e+01 -2.90559606e+01 -2.90673232e+01
 -2.90370230e+01 -2.89650601e+01 -2.88457532e+01 -2.86828899e+01
 -2.84745763e+01 -2.82283875e+01 -2.79500047e+01 -2.76451094e+01
 -2.73212764e+01 -2.69841871e+01 -2.66395228e+01 -2.62910709e+01
 -2.59426191e+01 -2.55941672e+01 -2.52457154e+01 -2.48972635e+01
 -2.45469179e+01 -2.41946785e+01 -2.38386516e+01 -2.34807310e+01]",8.628778671210167,-0.6786762617176569,4.883165,-0.07726500000000058
039,2,2,csp,22b.png,1,1,180,NaN,179,1,1,655,neg_feedback_onset,2,"[nan nan nan nan nan nan nan nan nan nan nan nan nan nan nan nan nan nan
 nan nan nan nan nan nan nan nan nan nan nan nan nan nan nan nan nan nan
 nan nan nan nan nan nan nan nan nan nan nan nan nan nan nan nan nan nan
 nan nan nan nan nan nan nan nan nan nan nan nan nan nan nan nan nan nan
 nan nan nan nan nan nan nan nan nan nan nan nan nan nan nan nan nan nan
 nan nan nan nan nan nan nan nan nan nan nan nan nan nan nan nan nan nan
 nan nan nan nan nan nan nan nan nan nan nan nan nan nan nan nan nan nan
 nan nan nan nan nan nan nan nan nan nan nan nan nan nan nan nan nan nan
 nan nan nan nan nan nan nan nan nan nan nan nan nan nan nan nan nan nan
 nan nan nan nan nan nan nan nan nan nan nan nan nan nan nan nan nan nan
 nan nan nan nan nan nan nan nan nan nan nan nan nan nan nan nan nan nan
 nan nan nan nan nan nan nan nan nan nan nan nan nan nan nan nan nan nan
 nan nan nan nan nan nan nan nan nan nan nan nan nan nan nan nan nan nan
 nan nan nan nan nan nan nan nan nan nan nan nan nan nan nan nan nan nan
 nan nan nan nan nan nan nan nan]","[ -2.22735362  -2.00341597  -1.77947832  -1.55370511  -1.32793191
  -1.10032315  -0.87087884  -0.63959897  -0.40464799  -0.16786146
   0.07443174   0.32223159   0.57370256   0.83068019   1.08949338
   1.34830656   1.60344864   1.8512485    2.08436392   2.29728824
   2.4845148    2.64053694   2.75984798   2.84244793   2.88650124
   2.89017235   2.85713237   2.7873813    2.68459024   2.54875921
   2.38539486   2.19633275   1.97973731   1.74111523   1.48046649
   1.2014622    0.90410237   0.59389366   0.27267162  -0.05222153
  -0.37527912  -0.69099449  -0.99018988  -1.26552306  -1.50414514
  -1.69871392  -1.83821606  -1.91714491  -1.93182934  -1.88226937
  -1.77030054  -1.60510064  -1.40135409  -1.17190978  -0.93328769
  -0.70384338  -0.49642572  -0.32204804  -0.19539478  -0.11646593
  -0.09260372  -0.12013704  -0.19539478  -0.31470582  -0.4688924
  -0.64877674  -0.84518107  -1.04892762  -1.25083862  -1.4454074
  -1.62896285  -1.79599831  -1.95018489  -2.08785147  -2.21450474
  -2.33014467  -2.43660683  -2.53756233  -2.63484672  -2.72846
  -2.82023772  -2.90834434  -2.9946154   -3.07905091  -3.15981531
  -3.2369086   -3.31216633  -3.38375296  -3.45350403  -3.5232551
  -3.59667728  -3.67560612  -3.76554829  -3.87201046  -3.99682816
  -4.14367252  -4.3180502   -4.5199612   -4.75124106  -5.0082187
  -5.29089409  -5.59559614  -5.92048929  -6.26190242  -6.61249333
  -6.97226202  -7.33570181  -7.6991416   -8.06074584  -8.41867897
  -8.77110544  -9.11986079  -9.46127393  -9.7971804  -10.12574466
 -10.44513115 -10.7535043  -11.04719302 -11.32069065 -11.57032606
 -11.78875705 -11.97414805 -12.12466352 -12.23663234 -12.31372563
 -12.3596145  -12.37613449 -12.37062782 -12.34493006 -12.30638342
 -12.25682344 -12.19992125 -12.14118351 -12.08061021 -12.02187247
 -11.96497028 -11.91541031 -11.87502811 -11.84749479 -11.84015257]",,1.1037648140720977,4.4222150000000005,0.6913599999999986
039,2,2,csp,48b.png,1,0,92,NaN,92,1,1,306,pos_feedback_onset,3,"[ 1.14580957  0.98366124  0.80761449  0.62693492  0.44393895  0.26557579
  0.09416185 -0.06335367 -0.20233795 -0.32279099 -0.41776358 -0.48493932
 -0.5243182  -0.53358381 -0.51041977 -0.45945886 -0.38070111 -0.2787793
 -0.16064266 -0.0286076   0.10574387  0.23546253  0.35128277  0.45088817
  0.52732952  0.57597402  0.59913807  0.59682166  0.57134121  0.53196233
  0.48563424  0.43698974  0.39761086  0.37213041  0.3674976   0.38371243
  0.42772412  0.49489986  0.58292323  0.68947785  0.80761449  0.93270034
  1.062419    1.18982125  1.31722351  1.44462577  1.57202802  1.70406309
  1.84536377  2.00287929  2.17892605  2.37582044  2.59587888  2.83910137
  3.10317151  3.38577287  3.68458908  3.9949873   4.31465114  4.6389478
  4.96324445  5.2852247   5.60257214  5.90833755  6.20252094  6.47585669
  6.7260284   6.94608684  7.1267664   7.26806709  7.35840687  7.40010215
  7.38388732  7.31207878  7.18236012  6.99704774  6.76309087  6.4804895
  6.16082566  5.81104856  5.44042381  5.05590064  4.66906106  4.28685429
  3.91622954  3.56645244  3.23520657  2.93175756  2.6514726   2.39666808
  2.16734402  1.9565512   1.76197321  1.58361005  1.41451251  1.25468059
  1.09948147  0.94891517  0.79834887  0.65009897  0.50184907  0.35359917
  0.20534927  0.05709937 -0.08651771 -0.2301348  -0.36911908 -0.49883774
 -0.62160719 -0.73047821 -0.8231344  -0.89262654 -0.93895463 -0.95980227
 -0.95285306 -0.91810699 -0.86251328 -0.79070473 -0.71194697 -0.63318921
 -0.56601348 -0.52200179 -0.50578696 -0.5266346  -0.58454472 -0.68646652
 -0.8254508  -1.00149756 -1.20534117 -1.43234882 -1.67325491 -1.9187938
 -2.15969989 -2.38902395 -2.59981677 -2.78512915 -2.94727747 -3.08394535
 -3.19744918 -3.29473817 -3.38044514 -3.46383571 -3.55185909 -3.64914808
 -3.76033551 -3.88773776 -4.03135485 -4.18423756 -4.33943667 -4.48537017
 -4.61508883 -4.71469423 -4.77955356 -4.79576839 -4.76333873 -4.67531535
 -4.53864747 -4.35565151 -4.12864385 -3.87152293 -3.58892156 -3.29242177
 -2.98897276 -2.68552374 -2.39134035 -2.11105539 -1.84466885 -1.59681355
 -1.36285668 -1.14743105 -0.94590384 -0.75827507 -0.5775955  -0.40849796
 -0.24866604 -0.09578333  0.05015016  0.18450163  0.31190389  0.42772412
  0.53427874  0.62925133  0.7172747   0.79603246  0.86784101  0.93733315
  1.00219248  1.06705181  1.13191114  1.19677047  1.2616298   1.32648913
  1.38903206  1.44694217  1.49790307  1.54191476  1.57666083  1.60214128
  1.6114069   1.6114069   1.59982488  1.57666083  1.54423117  1.50485229
  1.4608406   1.41451251  1.36818441  1.32185632  1.27552823  1.23151654
  1.18518845  1.13422754  1.08095024  1.01840731  0.94659877  0.8655246
  0.77286842  0.67094661  0.55744278  0.43698974  0.30727108  0.17291961
  0.03625173 -0.10504895 -0.24634964 -0.38533392 -0.52200179 -0.65635326
 -0.78375552 -0.90189216 -1.01076317 -1.10573577 -1.18449352 -1.24703645
 -1.29104814 -1.31189578 -1.31421218 -1.29104814 -1.24703645 -1.17754431
 -1.08720453 -0.9760171  -0.84398204 -0.69341574 -0.53126741 -0.35522065
 -0.17222469  0.01077128  0.19376725  0.369814    0.53427874  0.68484504
  0.81919651  0.93733315  1.03693855  1.12032911  1.18982125  1.24541497
  1.29637587  1.34038756]","[-9.49840796e-01 -8.97957929e-01 -8.76820464e-01 -8.74898876e-01
 -8.74898876e-01 -8.65290938e-01 -8.34545535e-01 -7.67289966e-01
 -6.59681055e-01 -5.09797215e-01 -3.17638446e-01 -8.89695102e-02
  1.68523241e-01  4.41388693e-01  7.21940496e-01  9.94805948e-01
  1.24845552e+00  1.47328128e+00  1.66159688e+00  1.80763754e+00
  1.90563851e+00  1.95944297e+00  1.96905091e+00  1.94214868e+00
  1.88642264e+00  1.80955913e+00  1.72116610e+00  1.62892989e+00
  1.53861527e+00  1.45598699e+00  1.38104507e+00  1.31763268e+00
  1.26382823e+00  1.21771012e+00  1.17735678e+00  1.14084661e+00
  1.10625803e+00  1.07359104e+00  1.03900247e+00  1.00441389e+00
  9.69825308e-01  9.33315142e-01  8.96804976e-01  8.58373222e-01
  8.19941468e-01  7.81509715e-01  7.43077961e-01  7.04646207e-01
  6.66214453e-01  6.27782699e-01  5.89350945e-01  5.50919191e-01
  5.12487438e-01  4.74055684e-01  4.33702342e-01  3.95270588e-01
  3.56838835e-01  3.18407081e-01  2.79975327e-01  2.41543573e-01
  2.03111819e-01  1.64680065e-01  1.24326724e-01  8.58949699e-02
  4.74632160e-02  9.03146216e-03 -2.94002917e-02 -6.78320455e-02
 -1.06263799e-01 -1.44695553e-01 -1.81205719e-01 -2.17715886e-01
 -2.52304464e-01 -2.83049867e-01 -3.09952095e-01 -3.33011147e-01
 -3.46462261e-01 -3.52227024e-01 -3.48383849e-01 -3.34932735e-01
 -3.13795270e-01 -2.90736218e-01 -2.67677166e-01 -2.56147639e-01
 -2.65755578e-01 -3.09952095e-01 -4.00266716e-01 -5.46307381e-01
 -7.55760440e-01 -1.03439065e+00 -1.38604120e+00 -1.80110414e+00
 -2.27765789e+00 -2.80225133e+00 -3.36143335e+00 -3.93983125e+00
 -4.52207232e+00 -5.09470545e+00 -5.64620112e+00 -6.16502979e+00
 -6.64350513e+00 -7.07778395e+00 -7.46786625e+00 -7.80990886e+00
 -8.10967654e+00 -8.37101247e+00 -8.59583823e+00 -8.78991858e+00
 -8.95901830e+00 -9.10698055e+00 -9.23957010e+00 -9.36063013e+00
 -9.47400380e+00 -9.57969112e+00 -9.68345686e+00 -9.78337942e+00
 -9.88138039e+00 -9.97745978e+00 -1.00716176e+01 -1.01638538e+01
 -1.02541684e+01 -1.03387183e+01 -1.04194249e+01 -1.04905237e+01
 -1.05500929e+01 -1.05962110e+01 -1.06269564e+01 -1.06384859e+01
 -1.06307996e+01 -1.06038974e+01 -1.05597008e+01 -1.05039748e+01
 -1.04405624e+01 -1.03733068e+01 -1.03118160e+01 -1.02618548e+01
 -1.02234230e+01 -1.02022855e+01 -1.01965208e+01 -1.02061287e+01]",5.065108344037016,0.8322396296716121,4.3170350000000015,0.385605
039,2,2,csm,59a.png,1,1,212,NaN,34,1,0,NaN,neu_feedback_onset,4,"[nan nan nan nan nan nan nan nan nan nan nan nan nan nan nan nan nan nan
 nan nan nan nan nan nan nan nan nan nan nan nan nan nan nan nan nan nan
 nan nan nan nan nan nan nan nan nan nan nan nan nan nan nan nan nan nan
 nan nan nan nan nan nan nan nan nan nan nan nan nan nan nan nan nan nan
 nan nan nan nan nan nan nan nan nan nan nan nan nan nan nan nan nan nan
 nan nan nan nan nan nan nan nan nan nan nan nan nan nan nan nan nan nan
 nan nan nan nan nan nan nan nan nan nan nan nan nan nan nan nan nan nan
 nan nan nan nan nan nan nan nan nan nan nan nan nan nan nan nan nan nan
 nan nan nan nan nan nan nan nan nan nan nan nan nan nan nan nan nan nan
 nan nan nan nan nan nan nan nan nan nan nan nan nan nan nan nan nan nan
 nan nan nan nan nan nan nan nan nan nan nan nan nan nan nan nan nan nan
 nan nan nan nan nan nan nan nan nan nan nan nan nan nan nan nan nan nan
 nan nan nan nan nan nan nan nan nan nan nan nan nan nan nan nan nan nan
 nan nan nan nan nan nan nan nan nan nan nan nan nan nan nan nan nan nan
 nan nan nan nan nan nan nan nan]","[nan nan nan nan nan nan nan nan nan nan nan nan nan nan nan nan nan nan
 nan nan nan nan nan nan nan nan nan nan nan nan nan nan nan nan nan nan
 nan nan nan nan nan nan nan nan nan nan nan nan nan nan nan nan nan nan
 nan nan nan nan nan nan nan nan nan nan nan nan nan nan nan nan nan nan
 nan nan nan nan nan nan nan nan nan nan nan nan nan nan nan nan nan nan
 nan nan nan nan nan nan nan nan nan nan nan nan nan nan nan nan nan nan
 nan nan nan nan nan nan nan nan nan nan nan nan nan nan nan nan nan nan
 nan nan nan nan nan nan nan nan nan nan nan nan nan nan]",,,4.633135,
039,2,2,csp,26b.png,1,1,80,22,81,1,1,587,neg_feedback_onset,5,"[-0.1391847   0.0420791   0.21039548  0.35540652  0.46934376  0.54443876
  0.58069152  0.57551256  0.53149135  0.45121738  0.3424591   0.21039548
  0.06020548 -0.10293194 -0.27383781 -0.44733316 -0.61823902 -0.78396592
 -0.93674541 -1.07139851 -1.17756731 -1.25007283 -1.27855714 -1.26302024
 -1.19569369 -1.07657748 -0.90308213 -0.68038661 -0.41366988 -0.10552142
  0.23629031  0.60140738  0.98724032  1.38343119  1.78221155  2.18358138
  2.57459329  2.95783675  3.32295382  3.66735504  3.98845091  4.28624143
  4.55813713  4.80413799  5.02424403  5.22363421  5.39971904  5.56026698
  5.71304646  5.86064698  6.01083699  6.16879544  6.3397013   6.5209651
  6.71517631  6.91456649  7.11136718  7.29522046  7.46353685  7.6059584
  7.72248513  7.81570651  7.88821203  7.94777013  7.99697031  8.043581
  8.09537065  8.15233927  8.22225531  8.30511876  8.40351911  8.52263532
  8.66246739  8.83337325  9.0379424   9.28394326  9.57655482  9.91577707
 10.30678898 10.74700106 11.22864486 11.74654142 12.28515385 12.82894524
 13.35978922 13.8595594  14.31530838 14.71149925 15.03777408 15.28895391
 15.46503875 15.57120754 15.61781823 15.61522875 15.58156547 15.52459685
 15.46244926 15.40030167 15.34074357 15.28636443 15.23198529 15.17242719
 15.10251115 15.01187925 14.89794201 14.75810994 14.59238304 14.40594027
 14.2065501  14.00457044 13.81035923 13.64722181 13.5281056  13.47890543
 13.52292663 13.67570612 13.95795975 14.38004545 14.94196322 15.64112358
 16.45681066 17.36312965 18.32641726 19.30783124 20.26852937 21.17484835
 21.99571441 22.71041166 23.30858219 23.78504703 24.14498514 24.40134394
 24.57483929 24.68618705 24.76128205 24.82342964 24.89075619 24.98138809
 25.10827275 25.27141017 25.46562138 25.68313794 25.91101242 26.13111846
 26.32532967 26.48846709 26.60499382 26.67490985 26.6982152  26.68785727
 26.64901503 26.59722537 26.54284623 26.49623554 26.46516175 26.45480381
 26.46516175 26.48587761 26.51954088 26.55320416 26.58168847 26.59722537
 26.59722537 26.58168847 26.55061468 26.50659347 26.45480381 26.40819312
 26.36935088 26.34604554 26.34863502 26.37711933 26.43408795 26.5169514
 26.61794123 26.73187848 26.84322624 26.94162658 27.0141321  27.05038486
 27.04261641 26.98823727 26.88465796 26.74223641 26.56874106 26.37711933
 26.18031864 25.99646536 25.83332794 25.70644328 25.62357983 25.58732707
 25.59509552 25.64688518 25.73233811 25.84109639 25.96280208 26.08450777
 26.2010345  26.29943485 26.37711933 26.43408795 26.47551968 26.50659347
 26.53507778 26.57650951 26.63347813 26.72152054 26.84063675 26.99859521
 27.18762745 27.40255452 27.63042901 27.86089298 28.07064109 28.25190489
 28.38396851 28.45906351 28.46942144 28.41504231 28.29851558 28.1301992
 27.92045109 27.68480815 27.43362832 27.18503797 26.94680555 26.72411003
 26.52471985 26.34604554 26.18290812 26.02753915 25.8695807  25.70126431
 25.5070531  25.27917862 25.01505137 24.70172395 24.34437532 23.94300548
 23.50020392 23.01856012 22.50584252 21.96981958 21.41049129 20.84080507
 20.25817144 19.66776935 19.07218831 18.47660726 17.87584725 17.27508723
 16.67432722 16.07356721 15.47280719 14.87204718 14.27128717 13.67570612
 13.08271455 12.49231247]","[ -5.25499996  -4.93073068  -4.56538728  -4.15896977  -3.71796355
  -3.23588321  -2.71489055  -2.1485002   -1.53455035  -0.87304101
  -0.16181037   0.59049437   1.37522604   2.18157567   2.99008709
   3.78778953   4.55955043   5.28591363   5.95823195   6.56785821
   7.10830702   7.57525479   7.97734871   8.31675056   8.59994574
   8.83990501   9.04311376   9.21821918   9.37170664   9.50789974
   9.62247489   9.71327029   9.77380055   9.79109492   9.75650619
   9.65922541   9.49492897   9.25929329   8.95664195   8.59994574
   8.20001362   7.78062534   7.35691348   6.94833417   6.57650539
   6.24791252   5.97336452   5.7550232    5.58856497   5.46966623
   5.3918416    5.34428211   5.32482595   5.32050236   5.32914954
   5.3464439    5.36806185   5.3918416    5.41994494   5.44804828
   5.47615162   5.50425495   5.53452009   5.56262342   5.59288856
   5.6209919    5.65125703   5.67936037   5.7096255    5.74205243
   5.77447936   5.81122988   5.85014219   5.89770169   5.95390836
   6.02308581   6.10739583   6.211162     6.33438433   6.47706281
   6.63487386   6.7991703    6.95914315   7.09533625   7.19045524
   7.22720576   7.18396986   7.04345317   6.79700851   6.44031229
   5.97552632   5.40697417   4.75195021   4.02558701   3.24734072
   2.4388293    1.61734711   0.8045121    0.01329504  -0.74333329
  -1.45240213  -2.10742609  -2.70840517  -3.25101577  -3.7395815
  -4.18058773  -4.57835805  -4.94370145  -5.2852651   -5.61169618
  -5.93164187  -6.25158757  -6.58018045  -6.9195823   -7.27411672
  -7.6437837   -8.02209787  -8.40257383  -8.77656441  -9.13326062
  -9.45536812  -9.73207791  -9.94825743 -10.09309771 -10.15578977
 -10.13417182 -10.02824385  -9.83800587  -9.56778147  -9.23054141
  -8.83277109  -8.38744127  -7.90103734  -7.38653007  -6.84824305
  -6.29698527  -5.73491851  -5.16636636  -4.59565241  -4.02710027]",26.905244350072174,7.336862824363875,3.861775,0.2309449999999993
039,2,2,csm,62a.png,1,1,72,NaN,73,1,1,646,neu_feedback_onset,6,"[nan nan nan nan nan nan nan nan nan nan nan nan nan nan nan nan nan nan
 nan nan nan nan nan nan nan nan nan nan nan nan nan nan nan nan nan nan
 nan nan nan nan nan nan nan nan nan nan nan nan nan nan nan nan nan nan
 nan nan nan nan nan nan nan nan nan nan nan nan nan nan nan nan nan nan
 nan nan nan nan nan nan nan nan nan nan nan nan nan nan nan nan nan nan
 nan nan nan nan nan nan nan nan nan nan nan nan nan nan nan nan nan nan
 nan nan nan nan nan nan nan nan nan nan nan nan nan nan nan nan nan nan
 nan nan nan nan nan nan nan nan nan nan nan nan nan nan nan nan nan nan
 nan nan nan nan nan nan nan nan nan nan nan nan nan nan nan nan nan nan
 nan nan nan nan nan nan nan nan nan nan nan nan nan nan nan nan nan nan
 nan nan nan nan nan nan nan nan nan nan nan nan nan nan nan nan nan nan
 nan nan nan nan nan nan nan nan nan nan nan nan nan nan nan nan nan nan
 nan nan nan nan nan nan nan nan nan nan nan nan nan nan nan nan nan nan
 nan nan nan nan nan nan nan nan nan nan nan nan nan nan nan nan nan nan
 nan nan nan nan nan nan nan nan]","[-2.08962424e+00 -2.10079154e+00 -2.06728965e+00 -1.98018475e+00
 -1.84394375e+00 -1.65409974e+00 -1.41958654e+00 -1.14487108e+00
 -8.34420283e-01 -4.97167974e-01 -1.37581075e-01  2.33173120e-01
  6.12861150e-01  9.97016099e-01  1.38117105e+00  1.76309254e+00
  2.14278057e+00  2.51576822e+00  2.88205550e+00  3.24164240e+00
  3.58782854e+00  3.92061393e+00  4.23106473e+00  4.51471403e+00
  4.76262798e+00  4.96810621e+00  5.12891525e+00  5.23835474e+00
  5.29419122e+00  5.30312506e+00  5.26292279e+00  5.18251827e+00
  5.06861186e+00  4.92567048e+00  4.76262798e+00  4.58171780e+00
  4.39187378e+00  4.19309593e+00  3.98985116e+00  3.78213948e+00
  3.57442779e+00  3.36448264e+00  3.15453750e+00  2.94459235e+00
  2.73464720e+00  2.52470206e+00  2.31475691e+00  2.10481176e+00
  1.89486662e+00  1.68492147e+00  1.47497633e+00  1.26503118e+00
  1.05508603e+00  8.45140887e-01  6.32962281e-01  4.23017135e-01
  2.13071989e-01  3.12684260e-03 -2.09051763e-01 -4.18996909e-01
 -6.33408973e-01 -8.47821037e-01 -1.06893348e+00 -1.29451284e+00
 -1.52902603e+00 -1.77693998e+00 -2.04048814e+00 -2.33083782e+00
 -2.65022245e+00 -3.00310897e+00 -3.39396430e+00 -3.82502189e+00
 -4.29404828e+00 -4.79657655e+00 -5.32143942e+00 -5.85746958e+00
 -6.38679936e+00 -6.89379456e+00 -7.36505441e+00 -7.78494470e+00
 -8.14229814e+00 -8.43711473e+00 -8.66269409e+00 -8.82573659e+00
 -8.93517609e+00 -8.99547948e+00 -9.01781407e+00 -9.00888023e+00
 -8.97984527e+00 -8.93517609e+00 -8.87487269e+00 -8.80786892e+00
 -8.72969786e+00 -8.64259296e+00 -8.54655422e+00 -8.43711473e+00
 -8.31650794e+00 -8.18250040e+00 -8.03509211e+00 -7.86981614e+00
 -7.69113942e+00 -7.49459503e+00 -7.28241642e+00 -7.05907052e+00
 -6.82455733e+00 -6.58334376e+00 -6.34213018e+00 -6.10761699e+00
 -5.88650455e+00 -5.68325978e+00 -5.50681652e+00 -5.36164168e+00
 -5.25220219e+00 -5.18073150e+00 -5.14499616e+00 -5.14276270e+00
 -5.17179767e+00 -5.22540068e+00 -5.29687137e+00 -5.38397627e+00
 -5.48001501e+00 -5.58052066e+00 -5.68772670e+00 -5.79716619e+00
 -5.90883914e+00 -6.02051209e+00 -6.13665196e+00 -6.25279182e+00
 -6.36669823e+00 -6.47613772e+00 -6.57887684e+00 -6.67268212e+00
 -6.75532010e+00 -6.82679079e+00 -6.88486072e+00 -6.93176336e+00
 -6.96749870e+00 -6.99430021e+00 -7.01216788e+00 -7.02780210e+00]",,3.320930191005414,4.805965,
039,2,2,csp,39b.png,1,0,284,51,285,1,1,989,neg_feedback_onset,7,"[nan nan nan nan nan nan nan nan nan nan nan nan nan nan nan nan nan nan
 nan nan nan nan nan nan nan nan nan nan nan nan nan nan nan nan nan nan
 nan nan nan nan nan nan nan nan nan nan nan nan nan nan nan nan nan nan
 nan nan nan nan nan nan nan nan nan nan nan nan nan nan nan nan nan nan
 nan nan nan nan nan nan nan nan nan nan nan nan nan nan nan nan nan nan
 nan nan nan nan nan nan nan nan nan nan nan nan nan nan nan nan nan nan
 nan nan nan nan nan nan nan nan nan nan nan nan nan nan nan nan nan nan
 nan nan nan nan nan nan nan nan nan nan nan nan nan nan nan nan nan nan
 nan nan nan nan nan nan nan nan nan nan nan nan nan nan nan nan nan nan
 nan nan nan nan nan nan nan nan nan nan nan nan nan nan nan nan nan nan
 nan nan nan nan nan nan nan nan nan nan nan nan nan nan nan nan nan nan
 nan nan nan nan nan nan nan nan nan nan nan nan nan nan nan nan nan nan
 nan nan nan nan nan nan nan nan nan nan nan nan nan nan nan nan nan nan
 nan nan nan nan nan nan nan nan nan nan nan nan nan nan nan nan nan nan
 nan nan nan nan nan nan nan nan]","[ -2.95724149  -2.59674045  -2.25683948  -1.92929854  -1.61205763
  -1.29893673  -0.98787584  -0.67681494  -0.36575405  -0.05675316
   0.25018772   0.54888858   0.83934941   1.11745021   1.38319097
   1.6386317    1.88377241   2.12067309   2.35757377   2.59859446
   2.84579517   3.1012359    3.37109668   3.65537749   3.94995834
   4.25277921   4.56178009   4.86666097   5.16536182   5.44758263
   5.70714338   5.93786404   6.13562461   6.29836508   6.42402544
   6.51260569   6.57028586   6.60118595   6.60736596   6.59706593
   6.57440587   6.54144577   6.50436567   6.46316555   6.42402544
   6.38282532   6.34368521   6.3066051    6.26952499   6.23038488
   6.19124477   6.14592464   6.09030448   6.02232428   5.93374403
   5.82456372   5.68654332   5.51968284   5.32398228   5.09532162
   4.83988089   4.55560007   4.2507192    3.92523827   3.58533729
