sub,run,cat_cond,trial_type,picture,old,response_old,target_pos,response_pos,dot_resp_loc,cat_corr,TN_corr,TN_rt,feedback_type,trial,SP_timeseries,FB_timeseries,SP_peak_response,FB_peak_response,preStim_bl,anticipation
008,1,1,csp,64a.png,1,1,104,94,104,1,1,349,pos_feedback_onset,1,"[ 5.88202967  5.33050966  4.73188473  4.0940057   3.420798    2.72207513
  2.00961333  1.28930071  0.5748762  -0.12384667 -0.79312896 -1.42511987
 -2.01196857 -2.54386154 -3.02079878 -3.43492947 -3.79017902 -4.08458472
 -4.32207199 -4.50460352 -4.63610474 -4.72050104 -4.75779243 -4.75190431
 -4.7047994  -4.61451499 -4.48497648 -4.31422117 -4.11009988 -3.87261262
 -3.60764748 -3.3230553  -3.02472419 -2.72050496 -2.41432303 -2.11599192
 -1.82551163 -1.54680756 -1.28380513 -1.03454164 -0.80294249 -0.58900768
 -0.39666262 -0.22590731 -0.07870446  0.03905782  0.12934224  0.1960742
  0.24121641  0.27261968  0.30402296  0.34327705  0.4060836   0.50421883
  0.64553357  0.83787863  1.08517942  1.38547324  1.73090926  2.11363668
  2.52580466  2.95171158  3.3795812   3.7996      4.19606635  4.56505483
  4.89675192  5.18526951  5.4325703   5.63472888  5.79370796  5.91343295
  5.99782925  6.05278498  6.08418825  6.09988989  6.10577801  6.10577801
  6.10577801  6.11166612  6.12540505  6.15484562  6.19802513  6.25690627
  6.33541445  6.43354969  6.54738656  6.67692507  6.8162771   6.96151725
  7.10479469  7.24218402  7.36779712  7.47967129  7.57191841  7.64846389
  7.70930773  7.75641265  7.79370404  7.82314461  7.85062247  7.87613763
  7.90165279  7.92716795  7.95268312  7.97819828  7.99978803  8.01548967
  8.02530319  8.02530319  8.01745237  7.99782532  7.97034746  7.93698148
  7.89969009  7.86632411  7.84277165  7.83295813  7.84080895  7.87221222
  7.92324255  7.99389991  8.07633351  8.16269252  8.24512611  8.31185807
  8.35307487  8.35700028  8.31774619  8.22746177  8.08418433  7.88791386
  7.64061307  7.35013278  7.0243238   6.67692507  6.32560093  5.98212761
  5.66220675  5.38153998  5.14994082  4.9732974   4.85357242  4.79272857
  4.78684046  4.83198267  4.92226708  5.055731    5.22648631  5.4325703
  5.67202027  5.9350227   6.21765217  6.51009517  6.79468735  7.05376437
  7.26966188  7.42079015  7.4855594   7.45023072  7.30302786  7.04198814
  6.67496237  6.21765217  5.69164732  5.12638837  4.55916671  4.02334833
  3.56015003  3.20490048  2.98900297  2.93993535  3.08125009  3.42472341
  3.97428072  4.7201085   5.64846781  6.7299181   7.92716795  9.19507518
 10.48260946 11.74266586 12.92617679 13.99781355 14.92421016 15.68770228
 16.28632721 16.72401036 17.01449065 17.17346973 17.22450005 17.18132055
 17.06355827 16.87906403 16.63765135 16.34520835 16.01154855 15.64256007
 15.25590725 14.86925443 14.50222865 14.18230779 13.92519347 13.75247546
 13.67592998 13.69751973 13.81331931 14.00958978 14.26670409 14.5650352
 14.87906795 15.1931007  15.4875064  15.75247154 15.98210798 16.17445304
 16.33343212 16.46100793 16.56503128 16.65139028 16.72401036 16.79074231
 16.85354886 16.91439271 16.97523655 17.0360804  17.09888695 17.16561891
 17.24216439 17.3304861  17.43843486 17.56993607 17.73284056 17.92714833
 18.15285937 18.40997368 18.68671504 18.97326992 19.25197399 19.50516289
 19.717135   19.86826326 19.94677145 19.94284604 19.85844974 19.69161984
 19.45216987 19.14598794 18.78288757 18.374645   17.92322292 17.43254675
 16.90261648 16.32950671 15.71321744 15.05374867 14.35110039 13.61508613
 12.85944483 12.10184082]","[-2.62230751 -2.42852106 -2.22396869 -1.99609018 -1.7430912  -1.46138311
 -1.15096593 -0.81722259 -0.46553607 -0.10308363  0.26116313  0.61643829
  0.95556459  1.26598178  1.54410122  1.78095133  1.97294346  2.1182833
  2.21876517  2.27797769  2.30309816  2.30130384  2.28156633  2.24926859
  2.21517653  2.18287879  2.155964    2.13622649  2.12366626  2.11648898
  2.11469467  2.11648898  2.12007762  2.12546058  2.13263786  2.14340377
  2.15775832  2.17390719  2.19185038  2.21338221  2.23670836  2.26182882
  2.28874361  2.31565839  2.3443675   2.3730766   2.39999139  2.42870049
  2.4574096   2.4861187   2.5148278   2.54353691  2.57224601  2.60095512
  2.62966422  2.65837332  2.68708243  2.71579153  2.74450064  2.77320974
  2.80191884  2.83242227  2.86113137  2.8916348   2.92393254  2.95981892
  3.00108825  3.05132919  3.11413035  3.19666903  3.30612249  3.45505096
  3.65063173  3.90721935  4.23557973  4.64109583  5.13094492  5.70153836
  6.3474932   7.05266057  7.79371432  8.54373967  9.27223318  9.94330849
 10.52466785 10.98580783 11.29801934 11.44335918 11.4074728  11.18497724
 10.77946115 10.19451315  9.44987076  8.56347717  7.56045285  6.46771258
  5.31575977  4.13330355  2.95084732  1.79171724  0.67923946 -0.3650542
 -1.32680919 -2.19884823 -2.97399404 -3.64686366 -4.21745711 -4.68936301
 -5.06617    -5.35505536 -5.55960773 -5.68879869 -5.75339418 -5.75698282
 -5.71212484 -5.62240889 -5.49680656 -5.34070081 -5.15768027 -4.95492222
 -4.73780962 -4.50813679 -4.27487532 -4.0469968  -3.82808988 -3.63071479
 -3.45846017 -3.32029761 -3.21981574 -3.16060321 -3.14086571 -3.1588089
 -3.20904983 -3.28261691 -3.37592149 -3.48178632 -3.59123978 -3.70069324
 -3.81014669 -3.91601152]",17.56125885399326,5.308627354931579,5.09501,0.0623099999999992
008,1,1,csm,57b.png,1,1,8,NaN,8,1,0,175,neu_feedback_onset,2,"[ 2.11896755e+00  1.96751039e+00  1.81605323e+00  1.65845591e+00
  1.49062501e+00  1.30437363e+00  1.09560836e+00  8.62282459e-01
  5.98255787e-01  3.09668493e-01  6.14015518e-04 -3.22767491e-01
 -6.50242434e-01 -9.73623940e-01 -1.28267842e+00 -1.56512556e+00
 -1.81891864e+00 -2.03587079e+00 -2.21598201e+00 -2.35720557e+00
 -2.46158821e+00 -2.53117664e+00 -2.56597085e+00 -2.56597085e+00
 -2.52912992e+00 -2.45135462e+00 -2.32650480e+00 -2.15048702e+00
 -1.91716112e+00 -1.62243367e+00 -1.26425795e+00 -8.46727400e-01
 -3.75982169e-01  1.37744148e-01  6.78077804e-01  1.22659833e+00
  1.75874512e+00  2.24995753e+00  2.67567496e+00  3.01338349e+00
  3.24261595e+00  3.35109203e+00  3.33062484e+00  3.18121440e+00
  2.91104757e+00  2.53445139e+00  2.07393975e+00  1.54997984e+00
  9.95319155e-01  4.32471597e-01 -1.09908778e-01 -6.11354784e-01
 -1.05344596e+00 -1.42594871e+00 -1.72272287e+00 -1.94376846e+00
 -2.09522562e+00 -2.18323451e+00 -2.22212216e+00 -2.22007544e+00
 -2.19346810e+00 -2.15048702e+00 -2.10341249e+00 -2.05838469e+00
 -2.02359048e+00 -1.99902986e+00 -1.98674955e+00 -1.98265611e+00
 -1.98674955e+00 -1.99288970e+00 -1.99902986e+00 -1.99698314e+00
 -1.98265611e+00 -1.95400205e+00 -1.90692753e+00 -1.84143254e+00
 -1.75547037e+00 -1.65518117e+00 -1.54465837e+00 -1.42594871e+00
 -1.31133248e+00 -1.20285640e+00 -1.11484751e+00 -1.04730580e+00
 -1.01251159e+00 -1.01046487e+00 -1.04321237e+00 -1.11075407e+00
 -1.21104327e+00 -1.33793981e+00 -1.49144369e+00 -1.66132132e+00
 -1.84347926e+00 -2.03382407e+00 -2.22621560e+00 -2.41451369e+00
 -2.59257819e+00 -2.75426894e+00 -2.89344579e+00 -2.99987515e+00
 -3.06946358e+00 -3.09402420e+00 -3.06741686e+00 -2.99168828e+00
 -2.86069830e+00 -2.68468052e+00 -2.46363493e+00 -2.21188857e+00
 -1.93967502e+00 -1.65927460e+00 -1.38501434e+00 -1.12712782e+00
 -8.99942078e-01 -7.13690704e-01 -5.76560572e-01 -4.96738554e-01
 -4.76271370e-01 -5.15159020e-01 -6.13401503e-01 -7.60765227e-01
 -9.49063319e-01 -1.16601547e+00 -1.39934137e+00 -1.63266726e+00
 -1.85371285e+00 -2.05019782e+00 -2.21188857e+00 -2.33469167e+00
 -2.41246697e+00 -2.44726118e+00 -2.44316775e+00 -2.40428010e+00
 -2.33878511e+00 -2.25077622e+00 -2.14844030e+00 -2.03587079e+00
 -1.91920784e+00 -1.80254489e+00 -1.68997538e+00 -1.58968618e+00
 -1.50372400e+00 -1.44027573e+00 -1.40138808e+00 -1.39524793e+00
 -1.42390199e+00 -1.48530354e+00 -1.57945258e+00 -1.70020897e+00
 -1.83733910e+00 -1.98060939e+00 -2.11773952e+00 -2.23235575e+00
 -2.30808433e+00 -2.33673839e+00 -2.30399090e+00 -2.20370169e+00
 -2.03382407e+00 -1.79640473e+00 -1.49758385e+00 -1.14759500e+00
 -7.62811945e-01 -3.63701859e-01  3.33615098e-02  4.07910976e-01
  7.43572793e-01  1.02397321e+00  1.24501880e+00  1.40056940e+00
  1.49676516e+00  1.54179297e+00  1.55202656e+00  1.54383968e+00
  1.53360609e+00  1.53974625e+00  1.57658718e+00  1.65231576e+00
  1.77511886e+00  1.93885633e+00  2.14352817e+00  2.37685407e+00
  2.63064715e+00  2.89262711e+00  3.15665378e+00  3.41454030e+00
  3.66628666e+00  3.91393958e+00  4.15749907e+00  4.40515200e+00
  4.66099180e+00  4.93115863e+00  5.21974592e+00  5.53289383e+00
  5.86855565e+00  6.22673137e+00  6.60128084e+00  6.98811061e+00
  7.38108054e+00  7.76995704e+00  8.15269338e+00  8.51700925e+00
  8.86085794e+00  9.17400586e+00  9.45235956e+00  9.68568546e+00
  9.87193683e+00  1.00008801e+01  1.00704685e+01  1.00786554e+01
  1.00254407e+01  9.91901135e+00  9.76755419e+00  9.58744297e+00
  9.40119160e+00  9.23131397e+00  9.09827728e+00  9.02868885e+00
  9.03892244e+00  9.13921165e+00  9.33364989e+00  9.61200359e+00
  9.95789900e+00  1.03447288e+01  1.07376987e+01  1.10999679e+01
  1.13946953e+01  1.15891336e+01  1.16607687e+01  1.15891336e+01
  1.13701347e+01  1.10099123e+01  1.05227933e+01  9.93333838e+00
  9.27020162e+00  8.55999034e+00  7.83954546e+00  7.13342762e+00
  6.47029086e+00  5.86650893e+00  5.33436215e+00  4.88203739e+00
  4.50953464e+00  4.21480719e+00  3.98966817e+00  3.82388398e+00
  3.71131446e+00  3.63763260e+00  3.59669823e+00  3.58237121e+00
  3.58851136e+00  3.61511870e+00  3.65809979e+00  3.72154806e+00
  3.80955695e+00  3.92826661e+00  4.08177049e+00  4.28030218e+00
  4.52795510e+00  4.82882271e+00  5.18290499e+00  5.59020195e+00]","[ -4.0821616   -3.55407244  -3.01950366  -2.4914145   -1.9811443
  -1.49841249  -1.0513186   -0.63986263  -0.26404458   0.08099527
   0.40335644   0.71113847   1.01406078   1.3202229    1.63610445
   1.96656515   2.311605     2.67284391   3.04380224   3.4212402
   3.79867816   4.16963649   4.52763559   4.86781572   5.18693708
   5.48175987   5.75228407   5.99688978   6.21881682   6.41806518
   6.59625478   6.75500551   6.89107756   7.00447094   7.09194583
   7.14864252   7.16970129   7.15350224   7.09518564   6.99799132
   6.86191926   6.6918292    6.49582064   6.27875332   6.04872675
   5.81060066   5.57085466   5.33110866   5.09460248   4.8613361
   4.63130953   4.40452278   4.18097583   3.95904879   3.73712175
   3.51681462   3.29812739   3.07782026   2.85913303   2.6404458
   2.42175857   2.20307134   1.98438411   1.76893669   1.55510918
   1.34614139   1.14203331   0.94926456   0.76945506   0.61232424
   0.48273181   0.3887773    0.34018013   0.34180004   0.40335644
   0.52322944   0.70303894   0.93630532   1.21006933   1.50975183
   1.81591395   2.10749692   2.36182207   2.56107043   2.68580315
   2.72306097   2.6696041    2.51895289   2.27758699   1.951986
   1.55510918   1.09829586   0.59774509   0.06641612  -0.48273181
  -1.04159917  -1.60046653  -2.15609408  -2.70362211  -3.2398108
  -3.76142033  -4.26683082  -4.75118253  -5.20799585  -5.62755135
  -6.00012959  -6.31277133  -6.55413724  -6.71450787  -6.7841638
  -6.76310503  -6.64971166  -6.45532301  -6.19451824  -5.88673621
  -5.5530357   -5.2209551   -4.91479298  -4.65398821  -4.45635975
  -4.33648675  -4.30084883  -4.35430571  -4.49847729  -4.73012376
  -5.04438541  -5.43478261  -5.89483574  -6.41320547  -6.98179226
  -7.59087669  -8.22587961  -8.87546167  -9.52666364 -10.16490637
 -10.77723061 -11.35067712 -11.87390656 -12.33881941 -12.73731614]",8.594631048308703,5.431178319186168,4.88587,0.666529999999999
008,1,1,csm,54b.png,1,1,280,261,281,1,1,657,neu_feedback_onset,3,"[  1.85264343   1.71624307   1.554868     1.36659709   1.15527259
   0.92665791   0.68459531   0.43292705   0.17741652  -0.07617287
  -0.32207774  -0.55453469  -0.76585918  -0.9483667   -1.09629385
  -1.20387723  -1.26343231  -1.27303797  -1.22885194  -1.13471648
  -0.9906316   -0.80620295  -0.5852728   -0.33552566  -0.07040948
   0.2004701    0.46558629   0.71533342   0.93242131   1.10916543
   1.234039     1.29743635   1.29359408   1.21674881   1.06690053
   0.84597038   0.55972174   0.21583916  -0.17607173  -0.60448411
  -1.05402895  -1.51317944  -1.96656654  -2.40458459  -2.81570679
  -3.19416975  -3.53228894  -3.8319855   -4.09325942  -4.31611071
  -4.50630275  -4.66767782  -4.80792044  -4.92895174  -5.03653512
  -5.13451284  -5.22672717  -5.3131781   -5.3977079   -5.48031656
  -5.5610041   -5.64169163  -5.72237917  -5.8030667   -5.88183311
  -5.96252064  -6.04320817  -6.12197458  -6.20266211  -6.28142852
  -6.36211605  -6.44280358  -6.52349112  -6.60417865  -6.68486619
  -6.76555372  -6.84432013  -6.92500766  -7.00185293  -7.07485594
  -7.14209555  -7.1997295   -7.2419944   -7.26696912  -7.27081138
  -7.2477578   -7.19780837  -7.1209631   -7.02298538  -6.90771747
  -6.78668617  -6.6733394   -6.57728281  -6.51388546  -6.49467414
  -6.52925451  -6.62338997  -6.78092278  -6.9999318   -7.27465364
  -7.59548265  -7.95281316  -8.33127612  -8.723187    -9.11317675
  -9.49356085  -9.85665475 -10.2043796  -10.53289314 -10.84603762
 -11.14765531 -11.4435096  -11.73744276 -12.03137592 -12.32530909
 -12.61924225 -12.90549088 -13.18213386 -13.43956552 -13.67010133
 -13.8679779  -14.02935297 -14.15230541 -14.23491407 -14.2848635
 -14.30407482 -14.29831142 -14.27717897 -14.24451973 -14.2060971
 -14.16767446 -14.12925182 -14.09275032 -14.05624882 -14.02166845
 -13.98516694 -13.94866544 -13.90832167 -13.86605677 -13.82379187
 -13.77768471 -13.73157755 -13.68354925 -13.62975756 -13.56828135
 -13.49527834 -13.40690628 -13.30124403 -13.1782916  -13.03420671
 -12.87283164 -12.70185091 -12.52318566 -12.3445204  -12.17353968
 -12.017928   -11.87960651 -11.76241748 -11.66443975 -11.58567335
 -11.522276   -11.47040545 -11.42429828 -11.38203338 -11.34168962
 -11.30134585 -11.26100208 -11.22450058 -11.1956836  -11.17647228
 -11.16878776 -11.17455115 -11.19376247 -11.22642171 -11.26868661
 -11.3167149  -11.36666433 -11.41277149 -11.45311526 -11.48193224
 -11.50114355 -11.50498582 -11.49922242 -11.48193224 -11.45887865
 -11.43198281 -11.4070081  -11.38779678 -11.37626999 -11.37819112
 -11.39356017 -11.42237715 -11.46272092 -11.51267034 -11.56646203
 -11.62025372 -11.67020315 -11.71054692 -11.73744276 -11.74896955
 -11.74512729 -11.72399484 -11.6913356  -11.64714957 -11.59720014
 -11.54532958 -11.49345903 -11.44735186 -11.4070081  -11.37242772
 -11.34168962 -11.31287264 -11.28597679 -11.25523869 -11.22257945
 -11.18415681 -11.14189191 -11.09386362 -11.04583532 -10.9958859
 -10.9478576  -10.90367157 -10.8633278  -10.82874743 -10.80185159
 -10.77879801 -10.76150782 -10.7480599  -10.73653311 -10.72500632
 -10.71155839 -10.69426821 -10.67121463 -10.64047652 -10.59821162
 -10.5424988  -10.46949579 -10.3792026  -10.26777695 -10.13713999
  -9.98729171  -9.82207438  -9.64533026  -9.46282274  -9.28415748
  -9.11894015  -8.9767764   -8.86535076  -8.79619001  -8.77697869
  -8.8134802   -8.90377339  -9.04977941  -9.24765598  -9.48779745
  -9.76444043 -10.06221585 -10.3734392  -10.68466255 -10.98628024]","[-3.0272209  -2.91192173 -2.78426908 -2.64426294 -2.48572658 -2.30042434
 -2.08629731 -1.83099201 -1.5303906  -1.17419852 -0.75623902 -0.26621755
  0.29586591  0.93618809  1.65063116  2.43301839  3.27511412  4.15838812
  5.068428    5.98052679  6.86997754  7.71619109  8.49446049  9.18625552
  9.77716376 10.25689067 10.6213184  10.87250588 11.01662985 11.06398486
 11.0248655  10.91574307 10.75102997 10.54102077 10.30218677 10.04276364
  9.77510485  9.50538715  9.23978727  8.98036414  8.73329449  8.49446049
  8.26386215  8.04561729  7.83149026  7.62559889  7.42176642  7.22205179
  7.02439607  6.82879926  6.63320246  6.43760565  6.24406775  6.04847095
  5.85493305  5.65933625  5.46579835  5.27226046  5.07872257  4.88724359
  4.69782352  4.51046237  4.32721905  4.14809355  3.97720371  3.81660843
  3.66836664  3.53247834  3.41512025  3.31423348  3.23393584  3.17422734
  3.13099015  3.1083421   3.10216536  3.11245993  3.13304907  3.1680506
  3.21128779  3.26481955  3.32658696  3.40070785  3.48924115  3.58806901
  3.70542709  3.83925649  3.9916161   4.16250595  4.35192601  4.56399413
  4.80076921  5.07254583  5.38961855  5.77051759  6.2358321   6.80821012
  7.51029972  8.36269001  9.36949884 10.5307262  11.82990078 13.23613888
 14.70826222 16.19479795 17.64427323 19.00315631 20.22821    21.28649167
 22.15535328 22.82655916 23.29805041 23.5801216  23.68924403 23.64188901
 23.45864569 23.16216211 22.77508632 22.32212529 21.82798599 21.32766995
 20.84382521 20.40939441 20.04290776 19.76083658 19.56729868 19.45405843
 19.40052667 19.37787862 19.35111274 19.28316859 19.14110354 18.90021063
 18.55019529 18.09105752 17.53515081 16.90100537 16.21332817 15.50094401
 14.78238311 14.08029352]",4.274358644806853e-15,17.592645971838174,5.205265,0.13992499999999986
008,1,1,csm,9b.png,1,0,352,NaN,352,1,1,157,neu_feedback_onset,4,"[ 0.61884747  0.13729872 -0.3366064  -0.79331335 -1.22135669 -1.59971642
 -1.91310529 -2.13859241 -2.25515778 -2.24369233 -2.08317608 -1.76214358
 -1.26912938 -0.60604439  0.21946775  1.1921198   2.27560449  3.43170368
  4.60691194  5.74008024  6.7662377   7.62805709  8.2701221   8.65230365
  8.75358176  8.57204552  8.12489311  7.44843177  6.59234509  5.61587124
  4.58015924  3.54062542  2.55077521  1.64309403  0.84242368  0.1564078
 -0.42068634 -0.90032419 -1.30161481 -1.64557821 -1.95132345 -2.23031598
 -2.49402125 -2.74435016 -2.97939182 -3.19914621 -3.39788061 -3.56986231
 -3.71318039 -3.82974576 -3.91764752 -3.98070748 -4.02274745 -4.04758925
 -4.05905469 -4.06287651 -4.05905469 -4.05141106 -4.03994562 -4.02848017
 -4.01510381 -4.00172746 -3.98835111 -3.97306384 -3.95968749 -3.94440023
 -3.93102387 -3.91573661 -3.90236026 -3.887073   -3.87178573 -3.85649847
 -3.8393003  -3.82019122 -3.80108215 -3.77815125 -3.75139855 -3.72082402
 -3.68642768 -3.64629862 -3.60234774 -3.55266414 -3.49915872 -3.43992058
 -3.37494972 -3.30042432 -3.21061165 -3.099779   -2.95837183 -2.77492469
 -2.53797213 -2.23795961 -1.86915441 -1.42582382 -0.90987872 -0.32896277
  0.30736951  0.98191995  1.67366855  2.36159534  3.02085851  3.63043809
  4.16740316  4.61073376  4.94514262  5.15725338  5.23368969  5.17445155
  4.97571714  4.6451301   4.18842315  3.62279445  2.96353128  2.22400998
  1.42333964  0.57871841 -0.29456643 -1.18504944 -2.07553245 -2.95263911
 -3.80108215 -4.60557431 -5.34127379 -5.98907152 -6.5279475  -6.93688176
 -7.19485431 -7.2903997  -7.22160702 -6.99229809 -6.61776017 -6.12092415
 -5.53045366 -4.88074502 -4.2081055  -3.54119869 -2.91251004 -2.33732681
 -1.83284717 -1.39907111 -1.03408773 -0.72452067 -0.45508268 -0.20284286
  0.04939697  0.32074587  0.62266929  0.95516724  1.31250699  1.67749037
  2.02145376  2.31382265  2.51828978  2.60236972  2.53548795  2.30044629
  1.89533385  1.32779425  0.62075838 -0.19328832 -1.07230588 -1.97425434
 -2.85709372 -3.68069496 -4.42212717 -5.06037035 -5.5896918  -6.01200241
 -6.33303491 -6.56807657 -6.72859282 -6.82796002 -6.87955453 -6.89101998
 -6.8719109  -6.82604911 -6.75534553 -6.66553286 -6.55661112 -6.43240212
 -6.29290585 -6.14003323 -5.97378426 -5.79989165 -5.61644451 -5.42535373
 -5.22853023 -5.02788492 -4.82341779 -4.62086157 -4.41830535 -4.21574913
 -4.01892563 -3.82210213 -3.62718954 -3.43036604 -3.23163164 -3.02716451
 -2.81696466 -2.59721027 -2.36599043 -2.12521605 -1.87106532 -1.60736005
 -1.33218934 -1.04937499 -0.76082792 -0.46845903 -0.17609015  0.11436783
  0.39909308  0.67617471  0.94179088  1.19594161  1.43480508  1.6602922
  1.87240296  2.07495918  2.27178268  2.46669527  2.66351876  2.86798589
  3.08391847  3.31131649  3.55017996  3.79477615  4.03746144  4.27250309
  4.49034657  4.68143735  4.83813178  4.95278625  5.02348983  5.05406436
  5.04642073  5.00629166  4.94705352  4.87252812  4.7941809   4.71774459
  4.64704101  4.58398105  4.52665382  4.4731484   4.41964299  4.36040484
  4.29543398  4.21899767  4.13491773  4.04128325  3.94764877  3.85974701
  3.79095434  3.74700346  3.74509255  3.79286524  3.89796517  4.06421414
  4.29352307  4.58398105]","[-4.31446554 -3.75368504 -3.19447978 -2.64315064 -2.10599854 -1.58932438
 -1.09785383 -0.63631258 -0.20312541  0.20013248  0.57661152  0.92631171
  1.25553397  1.56427828  1.85727034  2.13451013  2.39914812  2.64803384
  2.88116731  3.09539806  3.28757564  3.45454961  3.5931695   3.69870965
  3.76959483  3.80582503  3.80740025  3.77589573  3.71288669  3.62467403
  3.51283297  3.38366443  3.24031886  3.08752193  2.92842409  2.76775103
  2.60865319  2.45428103  2.31093546  2.18019169  2.06677541  1.97856275
  1.92027938  1.89350054  1.90295189  1.95020868  2.03369566  2.15183762
  2.29675842  2.46058194  2.63228158  2.79768032  2.93945067  3.04184037
  3.0859467   3.0560174   2.93630022  2.71576856  2.38497108  1.945483
  1.39887954  0.75776252  0.03315851 -0.75287932 -1.58302347 -2.43207034
 -3.27796676 -4.09865956 -4.87209558 -5.58094733 -6.20788731 -6.74188896
 -7.17192569 -7.49799749 -7.71852915 -7.84139678 -7.87447653 -7.82879498
 -7.71380347 -7.54367905 -7.32629785 -7.06638554 -6.77181826 -6.442596
 -6.07871877 -5.6817618  -5.24857462 -4.78388292 -4.29083715 -3.77731344
 -3.25748882 -2.74554034 -2.26352115 -1.83033397 -1.46330629 -1.18291604
 -0.99861459 -0.92300374 -0.95608348 -1.09785383 -1.34043865 -1.67596181
 -2.09024628 -2.57069024 -3.10154144 -3.66862283 -4.26248308 -4.87052035
 -5.48170808 -6.08974536 -6.6836056  -7.2569879  -7.79886568 -8.29821235
 -8.74085089 -9.11260425 -9.40087063 -9.59304821 -9.67968565 -9.65605726
 -9.52058781 -9.2843039  -8.95823209 -8.56285034 -8.11863658 -7.6492192
 -7.17822659 -6.7261367  -6.31185224 -5.94639978 -5.63608024 -5.38719451
 -5.19816738 -5.06742362 -4.99338799 -4.97133482 -5.0059898  -5.09735291
 -5.25014984 -5.4706815 ]",1.9105733392061772,2.3579559551029017,5.233115000000001,-0.06267499999999959
008,1,1,csm,47b.png,1,1,128,127,128,1,1,223,neu_feedback_onset,5,"[  3.61035312   4.01328227   4.28849727   4.40002231   4.31907672
   4.03486776   3.54559665   2.87105008   2.03820992   1.09384472
   0.08652184  -0.92979499  -1.90833722  -2.80233627  -3.5830115
  -4.23057621  -4.74143281  -5.12277647  -5.39619268  -5.58686451
  -5.72357261  -5.84049402  -5.95921422  -6.10311748  -6.28299657
  -6.50964422  -6.78126164  -7.09065366  -7.43422272  -7.79757847
  -8.17172697  -8.54767425  -8.91462759  -9.26719059  -9.60356448
  -9.91835288 -10.21155579 -10.484972   -10.73860151 -10.9760419
 -11.19909197 -11.40775171 -11.60381991 -11.78729658 -11.95458413
 -12.10568256 -12.2351955  -12.34312295 -12.42406854 -12.47803227
 -12.50141655 -12.49422138 -12.45824557 -12.39169031 -12.30175076
 -12.18842694 -12.05531642 -11.90781557 -11.74772318 -11.57683805
 -11.39516017 -11.20628713 -11.01021893 -10.80335798 -10.58570429
 -10.35545906 -10.1126223   -9.8553952   -9.58197899  -9.29417246
  -8.99197559  -8.67718719  -8.35160605  -8.02062853  -7.69144981
  -7.37126504  -7.06726938  -6.79025559  -6.55461399  -6.36933853
  -6.24881954  -6.20205098  -6.2380268   -6.35854579  -6.56180915
  -6.84421932  -7.19498353  -7.59971147  -8.03861644  -8.49730811
  -8.9524022   -9.39310595  -9.80323027 -10.17737877 -10.50655749
 -10.79256524 -11.03720079 -11.24586053 -11.42394083 -11.57683805
 -11.70994857 -11.82686998 -11.93299864 -12.02833455 -12.11467651
 -12.19022573 -12.25678099 -12.30894593 -12.34492174 -12.36470844
 -12.36111086 -12.334129   -12.28016527 -12.19742089 -12.08409707
 -11.93839501 -11.76211351 -11.55525256 -11.32500733 -11.0749754
 -10.81774831 -10.56052122 -10.31768445 -10.10362834  -9.92914563
  -9.80502906  -9.73487622  -9.72228468  -9.76365687  -9.85359641
  -9.97771298 -10.12341504 -10.27811105 -10.4256119  -10.55692364
 -10.6630523  -10.73860151 -10.78177249 -10.79796161 -10.78896766
 -10.76198579 -10.7206136  -10.67564383 -10.62707648 -10.5839055
 -10.54792968 -10.51914903 -10.49936233 -10.48856958 -10.484972
 -10.48677079 -10.49036837 -10.49396596 -10.49396596 -10.48677079
 -10.47058167 -10.44180102 -10.40222762 -10.34646511 -10.27990984
 -10.19716547 -10.09823197  -9.97951177  -9.83380971  -9.65213184
  -9.4236854   -9.13947644  -8.78871223  -8.3623988   -7.85873736
  -7.27772791  -6.631962    -5.93403114  -5.20731964  -4.47521176
  -3.76648817  -3.10992951  -2.52712127  -2.03785016  -1.65290891
  -1.37949271  -1.21400395  -1.15284506  -1.1834245   -1.30034591
  -1.49281653  -1.75543999  -2.08641751  -2.48395029  -2.94983712
  -3.48048042  -4.07588019  -4.72884127  -5.42857091  -6.16067879
  -6.9053782   -7.64108366  -8.34800847  -9.00636592  -9.5999669
 -10.12161625 -10.5641188  -10.92747455 -11.21887867 -11.44732511
 -11.62000903 -11.75311955 -11.85205305 -11.92940106 -11.99055995
 -12.04272488 -12.08589586 -12.12367047 -12.1560487  -12.18482936
 -12.20821364 -12.22800034 -12.24239066 -12.25318341 -12.25857978
 -12.26397616 -12.26397616 -12.26397616 -12.26037857 -12.2549822
 -12.24778704 -12.2351955  -12.21900638 -12.19202452 -12.1560487
 -12.10388377 -12.03373093 -11.9401938  -11.81967481 -11.67037517
 -11.4886973  -11.27464119 -11.03000563 -10.75838821 -10.46878288
 -10.16838481  -9.86798674  -9.5801802   -9.31935553  -9.09990305
  -8.93621308  -8.83907837  -8.81929167  -8.88404814  -9.03694537
  -9.27798334  -9.60176569 -10.00109726 -10.46698409 -10.98323707
 -11.53726465 -12.11107893 -12.69028959 -13.26230508 -13.81273508]","[ -4.6188673   -4.26662121  -3.8707483   -3.42640117  -2.92873237
  -2.38420516  -1.80089855  -1.19173902  -0.57611626   0.02981165
   0.61150245   1.15602967   1.65369846   2.10127722   2.49876593
   2.84778041   3.15639969   3.4294712    3.67668979   3.90290288
   4.1145737    4.31493386   4.5104466    4.69949611   4.8836982
   5.06305286   5.23594429   5.39914088   5.55102681   5.68675466
   5.80309282   5.89519386   5.95821036   5.9872949    5.97921586
   5.92912582   5.83540897   5.6948337    5.51063161   5.28280272
   5.01619443   4.71565419   4.39087683   4.04994139   3.6993111
   3.35191243   3.00936118   2.6797364    2.36626969   2.06896106
   1.78781051   1.52120223   1.26752041   1.02191762   0.78439388
   0.55010176   0.32227286   0.09605977  -0.12853751  -0.34990317
  -0.56642141  -0.77809223  -0.9800682   -1.17234933  -1.34524076
  -1.49712669  -1.61831227  -1.7071817   -1.75888755  -1.7701982
  -1.74757689  -1.69587105  -1.62962293  -1.56660642  -1.52297961
  -1.519748    -1.57468546  -1.70071847  -1.90592606  -2.18869242
  -2.54578593  -2.96589595  -3.43609601  -3.94507546  -4.47506041
  -5.01635601  -5.55765162  -6.08602076  -6.59500021  -7.0716635
  -7.50469998  -7.87956738  -8.18172344  -8.39501006  -8.50326918
  -8.49357434  -8.35461487  -8.08477497  -7.68890207  -7.176691
  -6.5723789   -5.90020286  -5.19409487  -4.4944501   -3.83681634
  -3.25835716  -2.79138871  -2.46176393  -2.28564088  -2.267867
  -2.40521066  -2.68636121  -3.08869734  -3.58475033  -4.14866724
  -4.74974773  -5.36537049  -5.97291421  -6.56268405  -7.12660096
  -7.66789657  -8.19141828  -8.70686096  -9.22553526  -9.75713601
 -10.30651066 -10.8768908  -11.46827644 -12.07582016 -12.68821131
 -13.29737084 -13.89037229 -14.4542892  -14.98427415 -15.46901648
 -15.90528458 -16.29469425 -16.6372455  -16.93940155 -17.20277822]",-0.7618817761135567,4.221822938168687,5.559289999999999,
008,1,1,csp,19a.png,1,1,100,89,102,1,0,137,neg_feedback_onset,6,"[-0.50588361 -0.44378743 -0.38770055 -0.32760746 -0.26551128 -0.19540268
 -0.11728167 -0.03114825  0.05698827  0.1431217   0.2192396   0.27933269
  0.31739164  0.32941026  0.31338543  0.26931717  0.20521788  0.12709687
  0.04496966 -0.03114825 -0.09124133 -0.12529408 -0.13130339 -0.10526305
 -0.04717307  0.03495414  0.13711239  0.24928614  0.36546611  0.47964297
  0.58380431  0.67795014  0.75807426  0.82417665  0.87826043  0.92232869
  0.96038764  0.99043418  1.01847762  1.04451796  1.06855519  1.09259243
  1.11863276  1.1446731   1.17271654  1.20075998  1.22880342  1.25684686
  1.2848903   1.31293373  1.34298028  1.37102372  1.40107026  1.4291137
  1.45916024  1.48920678  1.51925332  1.54929987  1.58134951  1.61540226
  1.65346121  1.69752947  1.75161325  1.81771564  1.90184596  2.01001351
  2.1462245   2.31849134  2.52881714  2.77920499  3.06765179  3.38814824
  3.73067882  4.07921871  4.41774308  4.72421781  4.97660877  5.15688802
  5.24702765  5.23701213  5.11682596  4.88847224  4.55595718  4.12729318
  3.61650196  3.03960835  2.41263717  1.75361635  1.0765676   0.39751575
 -0.27352369 -0.9245321  -1.54349087 -2.12839689 -2.67123775 -3.17001035
 -3.62070848 -4.02733835 -4.39190306 -4.71640571 -5.00685562 -5.26525588
 -5.49961891 -5.71194781 -5.90424568 -6.07851562 -6.23275454 -6.36896553
 -6.48314239 -6.56927581 -6.62536269 -6.64939992 -6.6333751  -6.57728822
 -6.48314239 -6.3469314  -6.17466456 -5.97034807 -5.74199435 -5.4956127
 -5.24322175 -4.9908308  -4.75045846 -4.52410784 -4.31778825 -4.13149969
 -3.95923285 -3.79898463 -3.6387364  -3.47247887 -3.28819341 -3.08187382
 -2.851517   -2.59511984 -2.32269786 -2.03825726 -1.75581976 -1.48940709
 -1.25103786 -1.05273068 -0.90249797 -0.80434593 -0.75827457 -0.76027767
 -0.80434593 -0.88046384 -0.97861588 -1.09279274 -1.21498201 -1.34117748
 -1.46536986 -1.59156533 -1.71575771 -1.84195319 -1.96814866 -2.09835034
 -2.22855203 -2.36075681 -2.49095849 -2.62116018 -2.74735565 -2.86954493
 -2.9917342  -3.11192036 -3.23210653 -3.3542958  -3.47648508 -3.60067745
 -3.72286672 -3.84505599 -3.96323906 -4.07140661 -4.16755554 -4.24567655
 -4.29976033 -4.32379756 -4.30977584 -4.24968276 -4.1335028  -3.95322354
 -3.70283569 -3.37632994 -2.97370627 -2.49897091 -1.96013625 -1.36922092
 -0.74224974 -0.09324444  0.55976708  1.20276308  1.81971874  2.40262166
  2.94145632  3.43622271  3.88692084  4.29956002  4.68415576  5.05472978
  5.4273069   5.81791195  6.24056664  6.69927718  7.20005288  7.73087513
  8.27571909  8.81054754  9.30531393  9.72596552 10.04245576 10.23275053
 10.280825   10.18868227  9.96633786  9.64584141  9.26324877  8.86863752
  8.50807901  8.22564152  8.06138709  8.03935296  8.16955464  8.45399524
  8.87865303  9.41748769 10.04245576 10.71549831 11.40656878 12.07760822
 12.70257629 13.25543267 13.72015252 14.08471723 14.34311749 14.4933502
 14.53942156 14.48333469 14.33510508 14.09272964 13.76422078 13.34757539
 12.84479659 12.25588436 11.58484492 10.84169378 10.03844956  9.19514328
  8.33781528  7.4985152   6.70528649  5.99017879  5.37522623  4.87244742
  4.48785168  4.2154297   4.03515045  3.928986    3.87289912  3.84084948
  3.81080293  3.77274398]","[-0.9941011  -0.56035851 -0.2078273   0.05980111  0.23514385  0.3255838
  0.33850379  0.28497811  0.18161817  0.04688111 -0.09893022 -0.235513
 -0.34071865 -0.39793575 -0.38501576 -0.28350154 -0.08231881  0.23145243
  0.66519502  1.21706325  1.88151998  2.64564522  3.48544471  4.37692416
  5.28316931  6.17464876  7.01813967  7.78411062  8.44856736  9.00043559
  9.43048675  9.7461037   9.95282357 10.0691035  10.11340062 10.10601776
 10.06172065  9.99712069  9.92144645  9.83654364  9.7461037   9.6482809
  9.53938383  9.41572105  9.27544685  9.11856123  8.94321848  8.75311003
  8.55192729  8.33967028  8.12003042  7.89669913  7.6678307   7.43896227
  7.21009384  6.97937969  6.74866555  6.51610569  6.28539155  6.05467741
  5.82396326  5.59324912  5.36253498  5.13182083  4.90110669  4.67039255
  4.4396784   4.20896426  3.9764044   3.74569026  3.51497612  3.28426197
  3.05539354  2.8246794   2.59581097  2.36878825  2.14545696  1.92766281
  1.71725151  1.5197602   1.34072603  1.18568613  1.06202334  0.98081197
  0.9438977   0.95866341  1.02510908  1.1395433   1.29273749  1.47361738
  1.66188012  1.84091429  1.98672563  2.08454843  2.11592555  2.07347415
  1.94981137  1.74678292  1.46992595  1.13216044  0.7464064   0.32742951
 -0.10631308 -0.54005567 -0.95903255 -1.35032374 -1.7102378  -2.02954618
 -2.30824886 -2.54634586 -2.74199145 -2.89887707 -3.01884842 -3.10190551
 -3.14804834 -3.16281405 -3.14620263 -3.1000598  -3.0299227  -2.94317418
 -2.84535139 -2.74383716 -2.64970579 -2.57034013 -2.51312302 -2.4817459
 -2.4817459  -2.50943159 -2.56295728 -2.63494009 -2.71430575 -2.78813428
 -2.84535139 -2.86934566 -2.84904281 -2.77152286 -2.62940295 -2.41714594
 -2.13659754 -1.79144918]",10.288336633445185,6.978779835953034,4.992255000000001,0.33688500000000055
008,1,1,csm,62b.png,1,1,4,123,3,1,1,249,neu_feedback_onset,7,"[ 1.10052108e+00  9.87764912e-01  8.66656435e-01  7.37195650e-01
  6.01470633e-01  4.63657539e-01  3.25844445e-01  1.90119428e-01
  6.27467194e-02 -5.83617573e-02 -1.66941771e-01 -2.67169476e-01
 -3.54868717e-01 -4.34215650e-01 -5.07298352e-01 -5.76204899e-01
 -6.45111446e-01 -7.09841839e-01 -7.76660308e-01 -8.39302624e-01
 -8.95680708e-01 -9.43706483e-01 -9.77115718e-01 -9.91732258e-01
 -9.81291872e-01 -9.41618406e-01 -8.70623782e-01 -7.66219923e-01
 -6.32582983e-01 -4.67624885e-01 -2.77609862e-01 -6.46259888e-02
  1.60886347e-01  3.96839069e-01  6.32791791e-01  8.62480281e-01
  1.07546415e+00  1.26547918e+00  1.42417304e+00  1.54736960e+00
  1.63089268e+00  1.67474231e+00  1.68100654e+00  1.64968538e+00
  1.58704306e+00  1.49934382e+00  1.39076381e+00  1.26547918e+00
  1.12975416e+00  9.87764912e-01  8.43687586e-01  6.99610260e-01
  5.59709089e-01  4.28160227e-01  3.04963673e-01  1.94295582e-01
  9.82440315e-02  1.88970985e-02 -4.37452170e-02 -8.96829150e-02
 -1.16827918e-01 -1.27268304e-01 -1.25180227e-01 -1.08475610e-01
 -8.13306063e-02 -4.37452170e-02  1.04403859e-04  5.02182563e-02
  1.06596340e-01  1.69238656e-01  2.38145203e-01  3.11227904e-01
  3.92662914e-01  4.82450233e-01  5.76413707e-01  6.78729489e-01
  7.85221425e-01  8.93801438e-01  1.00238145e+00  1.10678531e+00
  1.20492494e+00  1.29471226e+00  1.37197111e+00  1.43670151e+00
  1.48472728e+00  1.51604844e+00  1.53066498e+00  1.52648883e+00
  1.50351998e+00  1.45758228e+00  1.38867573e+00  1.29680033e+00
  1.17777994e+00  1.02952646e+00  8.54127972e-01  6.49496408e-01
  4.19807918e-01  1.65062501e-01 -1.08475610e-01 -3.94542184e-01
 -6.86872990e-01 -9.75027641e-01 -1.25274191e+00 -1.50957540e+00
 -1.73717581e+00 -1.92510276e+00 -2.07126816e+00 -2.16731971e+00
 -2.21325741e+00 -2.20908126e+00 -2.15479125e+00 -2.05456354e+00
 -1.91048622e+00 -1.73299966e+00 -1.52210386e+00 -1.28406306e+00
 -1.02722957e+00 -7.57867614e-01 -4.78065271e-01 -1.96174851e-01
  8.36274912e-02  3.50901371e-01  6.03558710e-01  8.33247200e-01
  1.03787876e+00  1.20910109e+00  1.35109034e+00  1.45967036e+00
  1.53901729e+00  1.59539537e+00  1.63506884e+00  1.66639000e+00
  1.69979923e+00  1.73947270e+00  1.79793886e+00  1.87728579e+00
  1.97960157e+00  2.10906236e+00  2.26149199e+00  2.43271432e+00
  2.61855319e+00  2.81692052e+00  3.02364017e+00  3.23662404e+00
  3.45587214e+00  3.68347256e+00  3.92151335e+00  4.16790646e+00
  4.42682803e+00  4.69410191e+00  4.96346387e+00  5.23282583e+00
  5.48965932e+00  5.72561204e+00  5.92815553e+00  6.09102555e+00
  6.20586979e+00  6.26851211e+00  6.27686442e+00  6.23301480e+00
  6.13696325e+00  5.99706208e+00  5.81748744e+00  5.60032741e+00
  5.34975815e+00  5.07413196e+00  4.77344885e+00  4.46023727e+00
  4.13867338e+00  3.82337373e+00  3.52895484e+00  3.27003327e+00
  3.06331363e+00  2.92132438e+00  2.85659399e+00  2.87329861e+00
  2.97143824e+00  3.14266057e+00  3.37861329e+00  3.66050371e+00
  3.96745105e+00  4.28483878e+00  4.58969805e+00  4.87158847e+00
  5.12215774e+00  5.33514161e+00  5.51262817e+00  5.66088165e+00
  5.79451859e+00  5.92189130e+00  6.05761631e+00  6.21213403e+00
  6.39379674e+00  6.60678061e+00  6.84899757e+00  7.11627145e+00
  7.39607379e+00  7.67796421e+00  7.94315001e+00  8.17701466e+00
  8.36285352e+00  8.49022623e+00  8.55078047e+00  8.54034009e+00
  8.46516931e+00  8.33153237e+00  8.15404581e+00  7.94732616e+00
  7.72807806e+00  7.51509419e+00  7.32090301e+00  7.15803299e+00
  7.03274836e+00  6.94713719e+00  6.89702334e+00  6.88031872e+00
  6.88449488e+00  6.90746373e+00  6.93878489e+00  6.97637027e+00
  7.01604374e+00  7.05780528e+00  7.11000721e+00  7.17264953e+00
  7.25199646e+00  7.35431224e+00  7.47542072e+00  7.61740997e+00
  7.77610384e+00  7.94106193e+00  8.10393195e+00  8.25427351e+00
  8.38164622e+00  8.47560969e+00  8.52989970e+00  8.54034009e+00
  8.50484277e+00  8.42549584e+00  8.30229929e+00  8.14569350e+00
  7.95776655e+00  7.75104691e+00  7.52971073e+00  7.30419839e+00
  7.08286221e+00  6.87196642e+00  6.67777524e+00  6.50237675e+00
  6.34785904e+00  6.21422210e+00  6.10146593e+00  6.00332631e+00
  5.91980322e+00  5.84880860e+00  5.78407820e+00  5.72561204e+00
  5.67132203e+00  5.61912011e+00  5.56900625e+00  5.51889240e+00]","[-1.87352343 -1.47977217 -1.11166053 -0.7636943  -0.43587349 -0.12819808
  0.1538377   0.40290827  0.611688    0.7655257   0.85892717  0.88456678
  0.84244455  0.73622328  0.57872278  0.38459425  0.17215171 -0.03296522
 -0.21427394 -0.35162903 -0.43221068 -0.44686189 -0.39741406 -0.28569859
 -0.12636668  0.06959325  0.28569859  0.50729813  0.72340348  0.92119481
  1.09700932  1.25084702  1.38453931  1.50174899  1.60980166  1.71602293
  1.825907    1.94494808  2.07314616  2.21233266  2.35884475  2.50535685
  2.64454334  2.76907862  2.86614289  2.92841053  2.94855594  2.91925352
  2.83684047  2.70131678  2.51634526  2.28742011  2.01820413  1.71785433
  1.39369632  1.04939289  0.69593246  0.33331502 -0.03113382 -0.39375126
 -0.7527059  -1.10250353 -1.43948135 -1.75631376 -2.05116935 -2.31855393
 -2.55114188 -2.74710181 -2.90460231 -3.02547479 -3.10971925 -3.16466128
 -3.1921323  -3.20128931 -3.19945791 -3.1903009  -3.17931249 -3.17198689
 -3.16832408 -3.16832408 -3.17381829 -3.18114389 -3.1921323  -3.20312071
 -3.21044631 -3.21410911 -3.20861491 -3.1903009  -3.15550428 -3.09873084
 -3.01814919 -2.91009651 -2.77640423 -2.62073512 -2.45041481 -2.2800945
 -2.122594   -1.99805871 -1.92480267 -1.91930846 -1.99439591 -2.15739062
 -2.40829258 -2.7397762  -3.14085307 -3.59320916 -4.07669908 -4.56751461
 -5.04917312 -5.49969782 -5.90810029 -6.26522352 -6.56557332 -6.81098108
 -7.00327821 -7.15162171 -7.26150578 -7.34025603 -7.39702947 -7.43732029
 -7.46479131 -7.48493673 -7.49775653 -7.50508214 -7.50691354 -7.50141934
 -7.49043093 -7.46845411 -7.43182609 -7.38054686 -7.30912221 -7.21388935
 -7.09118547 -6.94284197 -6.76519605 -6.55641631 -6.32382836 -6.06560079
 -5.78905921 -5.49969782]",6.983521938904937,1.2174697360950837,4.7890950000000005,0.27229499999999884
008,1,1,csm,20b.png,1,0,212,NaN,212,1,0,167,neu_feedback_onset,8,"[-2.42076980e-02  1.81857831e-01  3.91924632e-01  5.97990161e-01
  7.92051872e-01  9.58104677e-01  1.08614539e+00  1.16216957e+00
  1.17217275e+00  1.10615176e+00  9.56104041e-01  7.22029605e-01
  4.07929722e-01  2.38075708e-02 -4.14331757e-01 -8.86481901e-01
 -1.37263650e+00 -1.85078855e+00 -2.30093170e+00 -2.70906148e+00
 -3.06717536e+00 -3.36527016e+00 -3.60534650e+00 -3.78740439e+00
 -3.92144702e+00 -4.01547692e+00 -4.07549601e+00 -4.11350810e+00
 -4.13951637e+00 -4.16352400e+00 -4.18953227e+00 -4.22954500e+00
 -4.28356217e+00 -4.36158698e+00 -4.46161879e+00 -4.58565824e+00
 -4.72970405e+00 -4.88775431e+00 -5.05780838e+00 -5.23186373e+00
 -5.40191781e+00 -5.55996807e+00 -5.70601451e+00 -5.83205459e+00
 -5.94208958e+00 -6.03211821e+00 -6.10814239e+00 -6.17016211e+00
 -6.22017802e+00 -6.26419201e+00 -6.30020346e+00 -6.33421428e+00
 -6.36422382e+00 -6.39423337e+00 -6.42224227e+00 -6.45025118e+00
 -6.47826009e+00 -6.50426836e+00 -6.53227726e+00 -6.56028617e+00
 -6.58629444e+00 -6.61430335e+00 -6.64031162e+00 -6.66832053e+00
 -6.69632943e+00 -6.72233770e+00 -6.75034661e+00 -6.77635488e+00
 -6.80436379e+00 -6.83237269e+00 -6.85838097e+00 -6.88638987e+00
 -6.91239814e+00 -6.94040705e+00 -6.96841596e+00 -6.99442423e+00
 -7.02243313e+00 -7.04844140e+00 -7.07645031e+00 -7.10445922e+00
 -7.13046749e+00 -7.15847640e+00 -7.18448467e+00 -7.21249357e+00
 -7.24050248e+00 -7.26651075e+00 -7.29451966e+00 -7.32252856e+00
 -7.34853683e+00 -7.37654574e+00 -7.40255401e+00 -7.43056292e+00
 -7.45857183e+00 -7.48458010e+00 -7.51258900e+00 -7.53859727e+00
 -7.56660618e+00 -7.59461509e+00 -7.62062336e+00 -7.64863227e+00
 -7.67464054e+00 -7.70264944e+00 -7.73065835e+00 -7.75666662e+00
 -7.78467553e+00 -7.81068380e+00 -7.83869270e+00 -7.86670161e+00
 -7.89270988e+00 -7.92071879e+00 -7.94672706e+00 -7.97473597e+00
 -8.00274487e+00 -8.02875314e+00 -8.05676205e+00 -8.08277032e+00
 -8.10877859e+00 -8.13478686e+00 -8.15879450e+00 -8.18080149e+00
 -8.19880722e+00 -8.21081104e+00 -8.21481231e+00 -8.20680977e+00
 -8.18480277e+00 -8.14278941e+00 -8.07876905e+00 -7.98874042e+00
 -7.87070288e+00 -7.72465644e+00 -7.55060109e+00 -7.35653938e+00
 -7.14447194e+00 -6.92040069e+00 -6.69432880e+00 -6.47225818e+00
 -6.26019074e+00 -6.06412839e+00 -5.88807241e+00 -5.73602406e+00
 -5.60798334e+00 -5.50795153e+00 -5.43592863e+00 -5.39191463e+00
 -5.37390890e+00 -5.38591272e+00 -5.42192417e+00 -5.48594453e+00
 -5.57197189e+00 -5.68200688e+00 -5.81004760e+00 -5.95209277e+00
 -6.10214048e+00 -6.25618947e+00 -6.40423655e+00 -6.53827917e+00
 -6.65231544e+00 -6.73834279e+00 -6.79436061e+00 -6.81236633e+00
 -6.79636124e+00 -6.74834597e+00 -6.66832053e+00 -6.56228681e+00
 -6.43424609e+00 -6.29020028e+00 -6.13014939e+00 -5.95209277e+00
 -5.75603042e+00 -5.53996171e+00 -5.29588409e+00 -5.02179693e+00
 -4.71369896e+00 -4.37159017e+00 -3.99747120e+00 -3.59734396e+00
 -3.17520972e+00 -2.74107166e+00 -2.30693360e+00 -1.88079809e+00
 -1.47266831e+00 -1.09254743e+00 -7.44436731e-01 -4.38339392e-01
 -1.78256686e-01  3.38107518e-02  1.95862284e-01  3.05897275e-01
  3.63915725e-01  3.75919542e-01  3.47910636e-01  2.85890913e-01
  2.05865465e-01  1.15836836e-01  2.98094794e-02 -3.82121515e-02
 -8.42267841e-02 -9.82312375e-02 -8.62274203e-02 -5.62178773e-02
 -2.02064256e-02  3.80120878e-03 -1.02032446e-02 -8.02255117e-02
 -2.28272591e-01 -4.68348935e-01 -8.06456453e-01 -1.24659642e+00
 -1.77476438e+00 -2.37895651e+00 -3.03916645e+00 -3.72538467e+00
 -4.41760480e+00 -5.08581729e+00 -5.71201642e+00 -6.27819647e+00
 -6.77235361e+00 -7.19248721e+00 -7.53659664e+00 -7.81068380e+00
 -8.02275123e+00 -8.18280213e+00 -8.30484094e+00 -8.39887084e+00
 -8.47289438e+00 -8.54091601e+00 -8.60493637e+00 -8.67095736e+00
 -8.74097963e+00 -8.81300253e+00 -8.88502544e+00 -8.95104643e+00
 -9.00506361e+00 -9.04307570e+00 -9.05708015e+00 -9.04907761e+00
 -9.01106552e+00 -8.95104643e+00 -8.87102098e+00 -8.78099236e+00
 -8.68496182e+00 -8.59693382e+00 -8.52491092e+00 -8.47889629e+00
 -8.46489184e+00 -8.48289756e+00 -8.53891538e+00 -8.62894400e+00
 -8.75098281e+00 -8.89702926e+00 -9.06108142e+00 -9.23713741e+00
 -9.41919530e+00 -9.60125320e+00 -9.78131046e+00 -9.95536581e+00
 -1.01194180e+01 -1.02734670e+01 -1.04175128e+01 -1.05515554e+01]","[ 0.11569255 -0.23333398 -0.58590393 -0.92784364 -1.24852284 -1.53022446
 -1.76054654 -1.92177199 -1.99795545 -1.96960812 -1.81901291 -1.53199617
 -1.09615592 -0.50263364  0.24502726  1.13973995  2.16378735  3.28882212
  4.47941009  5.69303028  6.88361825  8.00510961  9.00966821  9.8600882
 10.52625052 10.9922098  11.25087921 11.312889   11.19772796 10.93374342
 10.55636956 10.10281223  9.61027733  9.10711217  8.61812068  8.16279165
  7.74998361  7.3850117   7.06256079  6.78263088  6.53636343  6.3166716
  6.11824027  5.93398261  5.76035519  5.59381461  5.43081745  5.2713637
  5.11190995  4.95422792  4.79831759  4.64063555  4.48472522  4.32704318
  4.17113285  4.01522252  3.85754048  3.70163015  3.54571982  3.38803778
  3.23212745  3.07444541  2.91853508  2.76262475  2.60494271  2.44903238
  2.29312205  2.13544001  1.97952968  1.82184764  1.66593731  1.51002698
  1.35234494  1.19643461  1.03875258  0.88107054  0.7233885   0.56570646
  0.40802442  0.25034238  0.09266034 -0.06324999 -0.21384519 -0.35735356
 -0.49023169 -0.60893614 -0.7063801  -0.78256356 -0.82862797 -0.84634505
 -0.83217139 -0.7914221  -0.72941231 -0.65322885 -0.5788171  -0.51680731
 -0.48314485 -0.49200339 -0.5575566  -0.68866302 -0.89063776 -1.16170913
 -1.49833371 -1.88633783 -2.31509123 -2.76510514 -3.21866247 -3.65804612
 -4.06908245 -4.43936948 -4.76182039 -5.03289176 -5.25258359 -5.42621101
 -5.55908913 -5.65830479 -5.73094483 -5.78232437 -5.82130196 -5.84964929
 -5.87090979 -5.88862687 -5.90280054 -5.91697421 -5.92937616 -5.94177812
 -5.95418008 -5.96658204 -5.978984   -5.99138595 -6.00378791 -6.01618987
 -6.02859183 -6.04276549 -6.05693916 -6.07288454 -6.08882991 -6.10654699
 -6.12603578 -6.14552458]",-1.0696830163420505,5.824269568961078,4.99841,1.1145700000000005
008,1,1,csp,35a.png,1,1,316,100,316,1,1,295,pos_feedback_onset,9,"[-1.70556325e+00 -1.62437012e+00 -1.50055059e+00 -1.33410467e+00
 -1.12909201e+00 -8.91602093e-01 -6.25694582e-01 -3.43548444e-01
 -5.53128219e-02  2.24803487e-01  4.84621513e-01  7.13992114e-01
  8.96676664e-01  1.02861550e+00  1.10371915e+00  1.11995778e+00
  1.08139104e+00  9.92078595e-01  8.62169582e-01  7.01813144e-01
  5.25218080e-01  3.40503702e-01  1.59848981e-01 -1.06565987e-02
 -1.64923552e-01 -2.98892221e-01 -4.12562608e-01 -5.05934711e-01
 -5.74948874e-01 -6.19605097e-01 -6.39903380e-01 -6.31784067e-01
 -5.97276985e-01 -5.34352307e-01 -4.43010032e-01 -3.31369474e-01
 -1.99430633e-01 -5.93724786e-02  8.06856760e-02  2.12624517e-01
  3.26294904e-01  4.15607350e-01  4.78532028e-01  5.08979453e-01
  5.13039110e-01  4.90710998e-01  4.50114432e-01  3.95309067e-01
  3.32384389e-01  2.63370225e-01  1.94356062e-01  1.29401556e-01
  7.05365344e-02  1.77609979e-02 -2.08057404e-02 -4.71935086e-02
 -5.32829936e-02 -3.70443670e-02  5.58202790e-03  7.86558477e-02
  1.80147264e-01  3.10056277e-01  4.68382887e-01  6.44977951e-01
  8.31722157e-01  1.02049619e+00  1.19506143e+00  1.34932838e+00
  1.47111808e+00  1.55231121e+00  1.59087795e+00  1.58478847e+00
  1.53810241e+00  1.45487945e+00  1.34323890e+00  1.20927023e+00
  1.05703310e+00  8.96676664e-01  7.30230741e-01  5.59725161e-01
  3.93279238e-01  2.28863144e-01  6.85067060e-02 -8.17005902e-02
 -2.19728916e-01 -3.43548444e-01 -4.47069689e-01 -5.26232994e-01
 -5.76978702e-01 -5.97276985e-01 -5.81038359e-01 -5.28262822e-01
 -4.38950376e-01 -3.15130848e-01 -1.60863895e-01  2.18206545e-02
  2.24803487e-01  4.46054775e-01  6.79485033e-01  9.19004775e-01
  1.16055435e+00  1.39804426e+00  1.62741486e+00  1.84460649e+00
  2.04352967e+00  2.22215456e+00  2.37642151e+00  2.50430070e+00
  2.60376229e+00  2.67277645e+00  2.71134319e+00  2.71743267e+00
  2.69104490e+00  2.63420971e+00  2.54489727e+00  2.42513739e+00
  2.27290027e+00  2.09021572e+00  1.87911357e+00  1.63756400e+00
  1.37165649e+00  1.08139104e+00  7.72857136e-01  4.50114432e-01
  1.21282243e-01 -2.07549946e-01 -5.30292650e-01 -8.38826556e-01
 -1.12300252e+00 -1.38282055e+00 -1.60610166e+00 -1.79487570e+00
 -1.94102334e+00 -2.04657441e+00 -2.10949909e+00 -2.12776754e+00
 -2.10137978e+00 -2.03236561e+00 -1.91869523e+00 -1.76645810e+00
 -1.57768407e+00 -1.35846261e+00 -1.11894287e+00 -8.67244153e-01
 -6.19605097e-01 -3.88204668e-01 -1.91311320e-01 -4.11040236e-02
  5.02382511e-02  7.45961910e-02  2.79101395e-02 -8.57602468e-02
 -2.62355311e-01 -4.89696084e-01 -7.57633423e-01 -1.05195853e+00
 -1.36049244e+00 -1.66902634e+00 -1.97147076e+00 -2.26173621e+00
 -2.53576304e+00 -2.79355124e+00 -3.03916046e+00 -3.27462055e+00
 -3.50602098e+00 -3.73336175e+00 -3.96070252e+00 -4.18804330e+00
 -4.41741390e+00 -4.64272484e+00 -4.86397613e+00 -5.07101862e+00
 -5.26182248e+00 -5.42826840e+00 -5.56832656e+00 -5.67590746e+00
 -5.74695145e+00 -5.77739888e+00 -5.76927956e+00 -5.71853385e+00
 -5.62922141e+00 -5.49931240e+00 -5.33489630e+00 -5.13597313e+00
 -4.90863235e+00 -4.65490381e+00 -4.38290682e+00 -4.09467119e+00
 -3.79628643e+00 -3.49181218e+00 -3.18733793e+00 -2.88286368e+00
 -2.58650875e+00 -2.29624330e+00 -2.01815681e+00 -1.75224930e+00
 -1.50258042e+00 -1.26509050e+00 -1.04586905e+00 -8.44916041e-01
 -6.60201663e-01 -4.95785569e-01 -3.45578273e-01 -2.13639431e-01
 -9.38795601e-02  1.57311695e-02  1.21282243e-01  2.22773659e-01
  3.26294904e-01  4.31845977e-01  5.39426878e-01  6.47007779e-01
  7.50529024e-01  8.43901127e-01  9.16974947e-01  9.61631170e-01
  9.69750483e-01  9.33213573e-01  8.54050269e-01  7.28200912e-01
  5.63784818e-01  3.68921298e-01  1.61878809e-01 -4.11040236e-02
 -2.23788573e-01 -3.65876556e-01 -4.55189002e-01 -4.81576771e-01
 -4.45039861e-01 -3.49637929e-01 -2.07549946e-01 -3.90741953e-02
  1.35491041e-01  2.93817650e-01  4.15607350e-01  4.82591685e-01
  4.86651341e-01  4.21696835e-01  2.87728165e-01  9.28646460e-02
 -1.56804238e-01 -4.49099517e-01 -7.71842221e-01 -1.11285338e+00
 -1.46401368e+00 -1.81314415e+00 -2.14806583e+00 -2.45862956e+00
 -2.73265639e+00 -2.96405681e+00 -3.13862205e+00 -3.24823278e+00
 -3.28882935e+00 -3.25635209e+00 -3.15486068e+00 -2.98638493e+00
 -2.76513364e+00 -2.50125596e+00 -2.20896068e+00 -1.90448643e+00]","[-2.89475161 -2.50179891 -2.10374292 -1.70738802 -1.3178375  -0.94189573
 -0.58806819 -0.26145814  0.0379344   0.30670724  0.5448604   0.75579605
  0.94291639  1.10452032  1.24230893  1.35628223  1.44473911  1.5042774
  1.53659819  1.54000037  1.51958725  1.48386427  1.43963583  1.40051067
  1.38179863  1.39710848  1.45324458  1.5604135   1.71861524  1.92274652
  2.15919858  2.41436268  2.66612458  2.89237008  3.07438714  3.1968659
  3.24959982  3.22918669  3.13732762  2.98082697  2.7749946   2.53003707
  2.25956313  1.97888262  1.69650102  1.4209238   1.15385204  0.89868795
  0.6571326   0.42408273  0.20123942 -0.01479952 -0.22573517 -0.43326864
 -0.63739991 -0.84153119 -1.04566247 -1.24809265 -1.45052283 -1.65295301
 -1.8553832  -2.05611229 -2.25854247 -2.46097265 -2.66340283 -2.86583302
 -3.0682632  -3.26899229 -3.47142247 -3.67215156 -3.87288065 -4.07360974
 -4.27093664 -4.46656245 -4.65538388 -4.83910203 -5.01091252 -5.16911426
 -5.30860396 -5.42768054 -5.51953962 -5.58588228 -5.62500744 -5.64031729
 -5.64031729 -5.63351291 -5.62840963 -5.64031729 -5.67774136 -5.7491873
 -5.8631606  -6.01796015 -6.21188486 -6.43983146 -6.69159336 -6.95696402
 -7.22233468 -7.48090097 -7.72245631 -7.94019634 -8.13241996 -8.29742607
 -8.43521469 -8.54918798 -8.64274815 -8.71929738 -8.78223786 -8.83327068
 -8.87239584 -8.89961334 -8.90981991 -8.89791225 -8.85878709 -8.78393895
 -8.66146019 -8.48454641 -8.24299107 -7.93339196 -7.55234691 -7.1049592
 -6.59973429 -6.05368312 -5.48551774 -4.92075454 -4.38661103 -3.90690253
 -3.50544435 -3.20264962 -3.010426   -2.94068115 -2.99171397 -3.15842118
 -3.43059622 -3.79463033 -4.23351257 -4.72682982 -5.25757114 -5.81042669
 -6.3700866  -6.92804543]",1.0753523020790545,1.6036638162002166,4.926525,0.4682100000000009
008,1,1,csp,47a.png,1,1,172,233,173,1,1,436,pos_feedback_onset,10,"[  3.7607798    3.15984864   2.57608695   2.01521787   1.47914912
   0.97169614   0.50048981   0.07316098  -0.30456717  -0.62697151
  -0.88832887  -1.09054697  -1.23553354  -1.33473487  -1.39768956
  -1.43965936  -1.47399828  -1.51596808  -1.57319962  -1.65523149
  -1.76778685  -1.90514254  -2.06348313  -2.23327003  -2.40305693
  -2.5594898   -2.68921462  -2.77887737  -2.81893944  -2.8036777
  -2.7292767   -2.59764416  -2.41450324  -2.18939252  -1.93375831
  -1.66477008  -1.39387413  -1.13823992  -0.91122148  -0.72426512
  -0.58309399  -0.49343125  -0.45909233  -0.47816951  -0.54875507
  -0.66512587  -0.82537418  -1.01996141  -1.24316441  -1.48926002
  -1.75061739  -2.02342105  -2.30194788  -2.5804747   -2.85900152
  -3.13371291  -3.40460886  -3.66978165  -3.92732358  -4.18105007
  -4.42523796  -4.65988727  -4.88309027  -5.09103153  -5.28371105
  -5.45731338  -5.60993082  -5.73965564  -5.84648784  -5.93233515
  -5.99910528  -6.04489051  -6.075414    -6.09067574  -6.0963989
  -6.09449118  -6.08495259  -6.06969084  -6.05061367  -6.02962877
  -6.00673615  -5.97812038  -5.94378146  -5.90371938  -5.85602643
  -5.79307174  -5.71676302  -5.62137712  -5.50500633  -5.36574292
  -5.20358689  -5.01663053  -4.81059699  -4.59120943  -4.36609871
  -4.14098799  -3.93113901  -3.74418265  -3.59538065  -3.4942716
  -3.45039409  -3.47137898  -3.56294945  -3.72510547  -3.95784706
  -4.25354335  -4.60456345  -4.99755335  -5.42106674  -5.86174959
  -6.30243244  -6.73166898  -7.1380129   -7.51192562  -7.84768398
  -8.14338027  -8.39519904  -8.60695573  -8.77674263  -8.91028289
  -9.01139194  -9.08388522  -9.13157817  -9.1563785   -9.16210166
  -9.15256307  -9.12967045  -9.09723925  -9.05717717  -9.01329966
  -8.96751442  -8.92363691  -8.88166712  -8.84542048  -8.81108155
  -8.78246578  -8.75385001  -8.72523424  -8.69471076  -8.66227955
  -8.62603291  -8.58978627  -8.55544735  -8.52683158  -8.5077544
  -8.50393896  -8.5192007   -8.55353963  -8.60695573  -8.67944901
  -8.76529632  -8.85495907  -8.94652953  -9.0285614   -9.09723925
  -9.14683991  -9.17545568  -9.18499427  -9.1773634   -9.1563785
  -9.12967045  -9.10105468  -9.07434663  -9.05717717  -9.04573086
  -9.04573086  -9.05145401  -9.0609926   -9.07243891  -9.08006978
  -9.07816207  -9.06671576  -9.04000771  -8.99994563  -8.94271409
  -8.87022081  -8.78628122  -8.6889876   -8.58406311  -8.47532319
  -8.36467555  -8.25402791  -8.14910342  -8.0518098   -7.96214706
  -7.88583834  -7.81906821  -7.76374439  -7.71795916  -7.67598937
  -7.63401957  -7.58823434  -7.5310028   -7.45850952  -7.36312362
  -7.24293739  -7.09795082  -6.92625621  -6.73548441  -6.53135859
  -6.32341733  -6.12310695  -5.94568918  -5.80261033  -5.70531671
  -5.66334692  -5.6824241   -5.76445597  -5.90944254  -6.10975292
  -6.36157169  -6.65154482  -6.96631829  -7.29635349  -7.6263887
  -7.94116216  -8.22922757  -8.47913863  -8.67944901  -8.82252786
  -8.90455973  -8.91791376  -8.86258994  -8.73858827  -8.54972419
  -8.29981314  -8.00030142  -7.66072762  -7.29826121  -6.93007164
  -6.5752361   -6.26046264  -6.00292072  -5.82168751  -5.7358402
  -5.75491738  -5.88273448  -6.11547608  -6.44360356  -6.84994749
  -7.30970752  -7.80189875  -8.29981314  -8.7843735   -9.23650266
  -9.6447543  -10.00340528 -10.3143633  -10.57762838 -10.79892367
 -10.98778774 -11.14994377 -11.2911149  -11.41702428 -11.52957964
 -11.6306887  -11.71844372 -11.78902929 -11.83862995 -11.85961485]","[-2.13455651 -1.87144973 -1.60012086 -1.33084752 -1.0636297  -0.80463397
 -0.56208241 -0.33597502 -0.12836733  0.05868514  0.22723792  0.38551309
  0.53556618  0.68561926  0.83978339  1.00833617  1.1912776   1.39682977
  1.62499268  1.87782185  2.15531727  2.45542344  2.77608483  3.11935695
  3.48318429  3.8634558   4.26428254  4.68566448  5.12554613  5.58803851
  6.07108611  6.5726334   7.08651382  7.61067186  8.13482989  8.64665479
  9.13381343  9.58602821  9.98685494 10.32601602 10.59323384 10.78028631
 10.88717344 10.91389522 10.86661822 10.75150901 10.58295623 10.3712375
 10.13074146  9.87380125  9.61274999  9.35580978  9.1112027   8.88303979
  8.67132105  8.47604649  8.2972161   8.13071885  7.9744992   7.82444611
  7.6805596   7.54078412  7.40306417  7.26945526  7.13995739  7.01868161
  6.90973896  6.819296    6.75146379  6.71240888  6.71240888  6.75146379
  6.8377957   6.97346013  7.15640156  7.38661999  7.65794886  7.96422159
  8.30338267  8.66515449  9.045426    9.43803065  9.83474633 10.23351754
 10.62817771 11.01461579 11.38872074 11.74227047 12.07115394 12.37126011
 12.63847793 12.8728074  13.07013748 13.2325237  13.36818813 13.47713078
 13.56962926 13.65390565 13.73612651 13.82245842 13.91906794 14.02595507
 14.14106429 14.26234007 14.3795048  14.48844745 14.57683489 14.63233397
 14.64877815 14.61794532 14.53161341 14.38772689 14.18423024 13.92112347
 13.60457312 13.23869026 12.82347488 12.36303802 11.8594352  11.31266643
 10.72273171 10.0875755   9.40719782  8.68365418  7.92516668  7.13995739
  6.34241497  5.55103912  4.78638505  4.06695245  3.41329655  2.84186152
  2.36703601  1.99909763  1.74010189  1.59621537  1.56332703  1.63938133
  1.81615619  2.08748506]",-1.3589129821411917e-14,12.49155951403355,5.241865000000001,-0.05015500000000106
008,1,1,csp,41a.png,1,1,344,286,345,1,1,312,pos_feedback_onset,11,"[-0.08286917 -0.02672193  0.03774342  0.1042883   0.16251506  0.20410561
  0.22698041  0.22905994  0.20826467  0.16875365  0.11260641  0.04814106
 -0.01840382 -0.08286917 -0.1390164  -0.18476601 -0.22011797 -0.24091325
 -0.25131088 -0.25546994 -0.25131088 -0.2450723  -0.23467466 -0.22011797
 -0.19724317 -0.16397073 -0.1161416  -0.0475172   0.04190248  0.15419695
  0.28936623  0.44117173  0.59921581  0.75310084  0.8945087   1.01096223
  1.09622285  1.14197245  1.15237009  1.12949529  1.0775071   1.0088827
  0.92986066  0.84667957  0.77181658  0.70319218  0.64912447  0.60545439
  0.57634101  0.55554574  0.54098904  0.53475046  0.53267093  0.53475046
  0.53682999  0.54098904  0.54722763  0.55138668  0.55762526  0.56178432
  0.5680229   0.57426148  0.58050006  0.58673865  0.59297723  0.59921581
  0.60753392  0.62001108  0.63456778  0.65328352  0.6823969   0.72398745
  0.78221422  0.85915673  0.96521263  1.10246143  1.27298268  1.47885589
  1.71800153  1.98626056  2.26907628  2.55605106  2.82846915  3.06761479
  3.25685178  3.3795439   3.42321397  3.38370295  3.25893131  3.0530581
  2.78064002  2.45207469  2.08607788  1.69720626  1.30001653  0.90906539
  0.53059141  0.1729127  -0.16397073 -0.47797936 -0.7691132  -1.03945175
 -1.28899504 -1.5219021  -1.73609342 -1.93156899 -2.11040835 -2.27261148
 -2.42233745 -2.55958626 -2.69059648 -2.81952718 -2.9505374  -3.08778621
 -3.2312736  -3.38515862 -3.54944128 -3.72204205 -3.90296094 -4.08595934
 -4.26895775 -4.44571758 -4.61000024 -4.75764668 -4.88241832 -4.97807658
 -5.0404624  -5.06749626 -5.0550191  -5.00303091 -4.90945218 -4.77636243
 -4.60792071 -4.40828608 -4.18577666 -3.94871054 -3.70540584 -3.46626019
 -3.24583029 -3.05243424 -2.89231064 -2.7758571  -2.70307365 -2.67811932
 -2.69475554 -2.74674372 -2.82784529 -2.92350355 -3.02124133 -3.10650195
 -3.16472872 -3.17928541 -3.14185392 -3.04203661 -2.87567442 -2.64484688
 -2.35579258 -2.01890914 -1.65499185 -1.28067693 -0.91883917 -0.5944329
 -0.32409434 -0.12445971 -0.00800618  0.02318673 -0.02880145 -0.15565262
 -0.34696914 -0.58403526 -0.85229429 -1.13095096 -1.4075281  -1.66746902
 -1.90037608 -2.09793118 -2.25597526 -2.37242879 -2.44313272 -2.47224611
 -2.45353036 -2.39322407 -2.2892477  -2.14576031 -1.96484143 -1.75272964
 -1.51566352 -1.25988165 -0.99578168 -0.72752265 -0.46758173 -0.21803844
  0.01486862  0.23529852  0.44117173  0.64080636  0.84044098  1.04839372
  1.26882362  1.5100488   1.77414877  2.06112355  2.3688936   2.69122034
  3.02186519  3.35043051  3.67275726  3.97844778  4.26750208  4.53368158
  4.77698629  5.00157524  5.20952798  5.40292402  5.58592243  5.76060273
  5.93112397  6.09540664  6.25760977  6.41565385  6.56953888  6.71926485
  6.86275223  7.00000104  7.13309079  7.25786243  7.37847502  7.49284903
  7.60098445  7.70080176  7.79022144  7.86508442  7.92539072  7.96490174
  7.97945843  7.97114032  7.93370883  7.87340253  7.78814191  7.6883246
  7.57603012  7.46165611  7.35352069  7.25994196  7.1871585   7.13517032
  7.10813646  7.10397741  7.11437504  7.13309079  7.15388606  7.16636323
  7.16012465  7.13517032  7.08526166  7.0124782   6.92305853  6.82324121
  6.7234239   6.63400422]","[  1.48020518   1.82200056   2.09774853   2.27772774   2.3388216
   2.26451825   2.04821296   1.69651047   1.22757381   0.66947313
   0.05688334  -0.57056712  -1.16829625  -1.69997796  -2.13093735
  -2.43475547  -2.59987401  -2.61803705  -2.4991517   -2.25807863
  -1.91628325  -1.50183571  -1.04610853  -0.57552068  -0.11649113
   0.31281708   0.69754328   1.02778037   1.30352834   1.52148481
   1.68825454   1.80713989   1.88639679   1.93428117   1.95574658
   1.95739776   1.94418828   1.9194205    1.88969916   1.8517219
   1.80879108   1.75760433   1.69816165   1.62881186   1.54790378
   1.45378621   1.34811034   1.23087618   1.1037349    0.96668651
   0.82468456   0.67772906   0.52747118   0.37391094   0.21869951
   0.06348808  -0.09337454  -0.25023715  -0.40709977  -0.56396238
  -0.720825    -0.87768761  -1.03455023  -1.19141285  -1.34827546
  -1.50513808  -1.66200069  -1.81886331  -1.97572592  -2.13258854
  -2.28945115  -2.44631377  -2.60482757  -2.76169019  -2.9185528
  -3.07541542  -3.23227803  -3.38914065  -3.54600326  -3.70286588
  -3.8597285   -4.01659111  -4.17345373  -4.33031634  -4.48717896
  -4.64404157  -4.80090419  -4.9577668   -5.11628061  -5.27314322
  -5.43000584  -5.58686845  -5.74373107  -5.90059368  -6.0574563
  -6.21431891  -6.37118153  -6.52804415  -6.68490676  -6.84342056
  -7.00028318  -7.15879698  -7.31896197  -7.48077814  -7.64424549
  -7.80936404  -7.97943614  -8.15446179  -8.33278982  -8.51772259
  -8.70760891  -8.90079761  -9.09728867  -9.29543092  -9.49192199
  -9.68841305  -9.88160175 -10.06983689 -10.25476966 -10.43805124
 -10.61637926 -10.7930561  -10.96808176 -11.14145623 -11.3148307
 -11.4849028  -11.65332371 -11.81844226 -11.97530487 -12.12226037
 -12.25435521 -12.36498463 -12.45084627 -12.50203302 -12.51524251
 -12.48056761 -12.39965953 -12.26756469 -12.09088785 -11.87458256]",7.189757911821813,-0.20998950671659813,4.808784999999999,0.8371549999999992
008,1,1,csp,30a.png,1,1,276,275,274,1,1,216,pos_feedback_onset,12,"[ 1.98550293e+00  1.74665153e+00  1.50982428e+00  1.28109370e+00
  1.05843560e+00  8.41850005e-01  6.31336900e-01  4.22847959e-01
  2.16383182e-01  7.89424145e-03 -2.00594700e-01 -4.09083641e-01
 -6.15548417e-01 -8.09868207e-01 -9.90018845e-01 -1.14790367e+00
 -1.27542604e+00 -1.37056177e+00 -1.42926254e+00 -1.45355251e+00
 -1.44545585e+00 -1.41306922e+00 -1.36044094e+00 -1.29769185e+00
 -1.23291858e+00 -1.17421781e+00 -1.12968619e+00 -1.09932373e+00
 -1.08920290e+00 -1.10134789e+00 -1.13575869e+00 -1.18838696e+00
 -1.25720856e+00 -1.34019930e+00 -1.43128670e+00 -1.52844660e+00
 -1.62763065e+00 -1.72479055e+00 -1.81587795e+00 -1.90291702e+00
 -1.97983527e+00 -2.04663270e+00 -2.10533347e+00 -2.15188925e+00
 -2.19034838e+00 -2.21868668e+00 -2.23690416e+00 -2.24904915e+00
 -2.25107331e+00 -2.24904915e+00 -2.24095249e+00 -2.22678334e+00
 -2.21059002e+00 -2.19034838e+00 -2.17010673e+00 -2.14581676e+00
 -2.12152679e+00 -2.09723681e+00 -2.07294684e+00 -2.04865687e+00
 -2.02436689e+00 -2.00007692e+00 -1.97983527e+00 -1.95756946e+00
 -1.94137615e+00 -1.92720700e+00 -1.91708617e+00 -1.91303785e+00
 -1.91506201e+00 -1.92518283e+00 -1.94542448e+00 -1.97376278e+00
 -2.01019774e+00 -2.05675352e+00 -2.11343013e+00 -2.17617923e+00
 -2.24500082e+00 -2.32191907e+00 -2.40086148e+00 -2.48385223e+00
 -2.56886714e+00 -2.65388204e+00 -2.73889695e+00 -2.82188770e+00
 -2.90285427e+00 -2.97774836e+00 -3.04454579e+00 -3.10122239e+00
 -3.14575401e+00 -3.17409231e+00 -3.18421314e+00 -3.17611648e+00
 -3.14575401e+00 -3.09717406e+00 -3.03037664e+00 -2.94941006e+00
 -2.86439515e+00 -2.77735608e+00 -2.70043783e+00 -2.64376122e+00
 -2.61339875e+00 -2.61744708e+00 -2.66197870e+00 -2.74901777e+00
 -2.87856430e+00 -3.05061828e+00 -3.25910722e+00 -3.49998279e+00
 -3.76312418e+00 -4.04245887e+00 -4.33191439e+00 -4.62541824e+00
 -4.91487376e+00 -5.19825679e+00 -5.47151899e+00 -5.73263621e+00
 -5.97958428e+00 -6.21033903e+00 -6.42490046e+00 -6.61922025e+00
 -6.79127423e+00 -6.94106240e+00 -7.06453644e+00 -7.16169633e+00
 -7.23051792e+00 -7.27100121e+00 -7.27909787e+00 -7.25683206e+00
 -7.20420378e+00 -7.12121304e+00 -7.00785983e+00 -6.86414415e+00
 -6.69411434e+00 -6.49574622e+00 -6.27713645e+00 -6.03828505e+00
 -5.78526449e+00 -5.52212311e+00 -5.25493339e+00 -4.98774368e+00
 -4.72460230e+00 -4.47158174e+00 -4.22868201e+00 -3.99387893e+00
 -3.76717251e+00 -3.54451441e+00 -3.31578383e+00 -3.07490825e+00
 -2.81176687e+00 -2.51421470e+00 -2.17213090e+00 -1.77134633e+00
 -1.30578850e+00 -7.63312424e-01 -1.37845601e-01  5.72636130e-01
  1.36610860e+00  2.23447516e+00  3.16559082e+00  4.13718977e+00
  5.12295787e+00  6.08848433e+00  6.99935834e+00  7.81509662e+00
  8.49724005e+00  9.01340199e+00  9.33726831e+00  9.45466985e+00
  9.36155828e+00  9.07007860e+00  8.60249660e+00  7.99524726e+00
  7.28678970e+00  6.52570385e+00  5.75449719e+00  5.01567715e+00
  4.34567871e+00  3.76474351e+00  3.29311319e+00  2.93483607e+00
  2.69193634e+00  2.55631732e+00  2.51583403e+00  2.55834148e+00
  2.66562220e+00  2.81743453e+00  2.98948851e+00  3.15749417e+00
  3.29513735e+00  3.37812809e+00  3.37610393e+00  3.27084738e+00
  3.04414095e+00  2.68383968e+00  2.18791938e+00  1.56852505e+00
  8.41850005e-01  3.21842152e-02 -8.30109851e-01 -1.70454890e+00
 -2.56279464e+00 -3.36638794e+00 -4.09103882e+00 -4.71245732e+00
 -5.22052260e+00 -5.60713801e+00 -5.87432772e+00 -6.03018839e+00
 -6.09091332e+00 -6.07472001e+00 -6.00387425e+00 -5.89659353e+00
 -5.77919199e+00 -5.66988711e+00 -5.58082388e+00 -5.52212311e+00
 -5.49985730e+00 -5.51200228e+00 -5.55248557e+00 -5.61523467e+00
 -5.69012876e+00 -5.76502284e+00 -5.83182027e+00 -5.88444855e+00
 -5.92088351e+00 -5.93707682e+00 -5.93505266e+00 -5.92088351e+00
 -5.89659353e+00 -5.86825523e+00 -5.83586860e+00 -5.80348197e+00
 -5.77109534e+00 -5.73870870e+00 -5.70227374e+00 -5.66381462e+00
 -5.61725884e+00 -5.56463056e+00 -5.50390563e+00 -5.43710820e+00
 -5.36626244e+00 -5.29744085e+00 -5.23266759e+00 -5.18003931e+00
 -5.14562851e+00 -5.13145936e+00 -5.14158018e+00 -5.17801514e+00
 -5.24481257e+00 -5.33792414e+00 -5.45532568e+00 -5.59499303e+00
 -5.75287786e+00 -5.92493184e+00 -6.10508247e+00 -6.28928144e+00
 -6.47348041e+00 -6.65160688e+00 -6.82366086e+00 -6.98559402e+00]","[-4.68770908 -4.00764023 -3.35506743 -2.73732295 -2.15623986 -1.61548431
 -1.11688935 -0.65862193 -0.23518284  0.155261    0.52004187  0.86465897
  1.19461151  1.51906484  1.84351817  2.17530379  2.51808782  2.87736947
  3.25498183  3.64725874  4.05236713  4.46480781  4.87541542  5.28052382
  5.66730152  6.03391546  6.37120028  6.67915598  6.95961564  7.21807847
  7.45637752  7.68367816  7.90914573  8.1346133   8.36191394  8.59104765
  8.81284909  9.01998596  9.19962679  9.33344087  9.4104298   9.41592901
  9.33710701  9.17029767  8.91000178  8.56355161  8.13827944  7.6451837
  7.09892894  6.51784585  5.91293286  5.29885451  4.68660924  4.07986318
  3.48228247  2.89753324  2.32378243  1.75919697  1.20377686  0.65202288
  0.10576812 -0.4368205  -0.97390992 -1.5073332  -2.03159112 -2.5466837
 -3.04711172 -3.52370984 -3.97464498 -4.38891873 -4.7591988  -5.07815293
 -5.34211496 -5.54558569 -5.6903982  -5.78021861 -5.82054614 -5.81871308
 -5.78755089 -5.73439187 -5.66840136 -5.59874471 -5.53092114 -5.4667637
 -5.40810547 -5.35494645 -5.3091197  -5.26512603 -5.22296543 -5.18080483
 -5.13681116 -5.08915134 -5.03599232 -4.97916716 -4.91500972 -4.84352001
 -4.76836415 -4.69137522 -4.61072016 -4.53006509 -4.4512431  -4.37792031
 -4.3119298  -4.25510464 -4.2092779  -4.17994878 -4.17261651 -4.1909472
 -4.24044008 -4.33209357 -4.46774072 -4.65471383 -4.89484596 -5.18630404
 -5.52542193 -5.90303428 -6.30997575 -6.73158177 -7.1531878  -7.5582962
 -7.93407548 -8.26586109 -8.54265461 -8.7552907  -8.89643706 -8.96426064
 -8.95692836 -8.87810637 -8.72962772 -8.51882471 -8.25852881 -7.95790539
 -7.62978592 -7.29066803 -6.95704934 -6.6454275  -6.37230012 -6.15233176
 -5.99652083 -5.91586577]",3.7999639698723326,6.366571774759714,4.94031,0.3046199999999999
008,1,1,csm,66b.png,1,1,252,247,NaN,0,1,299,neu_feedback_onset,13,"[ 1.15116416  1.20773757  1.1951657   1.11763917  0.98144392  0.79915182
  0.58543004  0.35494577  0.12027088 -0.10183214 -0.30088674 -0.47479759
 -0.61518347 -0.72623498 -0.80585681 -0.86033491 -0.8938599  -0.91062239
 -0.9127177  -0.91062239 -0.90224115 -0.8938599  -0.88966928 -0.88757396
 -0.89176459 -0.89595521 -0.90224115 -0.90643177 -0.90224115 -0.88338334
 -0.84357242 -0.78071308 -0.68851937 -0.56489599 -0.40774762 -0.2212649
 -0.00963843  0.21875052  0.45552073  0.686005    0.90182208  1.0862095
  1.22869068  1.32088439  1.35440937  1.32926564  1.24335786  1.10297199
  0.91229864  0.686005    0.43666292  0.17265367 -0.08926027 -0.33860234
 -0.57118192 -0.77861776 -0.96090987 -1.11596292 -1.24796755 -1.35901906
 -1.45540339 -1.53712054 -1.61045644 -1.67750641 -1.74036576 -1.79903448
 -1.85351258 -1.90589537 -1.95408753 -1.99808908 -2.03370937 -2.05885311
 -2.07352029 -2.07142498 -2.05256718 -2.01275626 -1.94989691 -1.86398914
 -1.76131887 -1.64188612 -1.51407211 -1.38835342 -1.27101597 -1.17672696
 -1.1117723  -1.08243794 -1.09920043 -1.15996446 -1.26263473 -1.40511591
 -1.57902677 -1.77598605 -1.9834219  -2.19714367 -2.40457951 -2.60363411
 -2.79011683 -2.96193238 -3.12536668 -3.28251504 -3.4375681  -3.59681177
 -3.76234138 -3.93625224 -4.11854435 -4.30502707 -4.49570042 -4.68427846
 -4.86866587 -5.04467204 -5.21020165 -5.36315939 -5.50564058 -5.63345458
 -5.75288734 -5.85974823 -5.95403725 -6.03365908 -6.10070905 -6.14680591
 -6.17194965 -6.17404496 -6.15309184 -6.10699499 -6.04204033 -5.96241849
 -5.86812947 -5.76964983 -5.66907488 -5.57059524 -5.48049684 -5.39458907
 -5.31706254 -5.24163133 -5.17039073 -5.09705483 -5.0195283  -4.93571584
 -4.84352213 -4.74294718 -4.63608629 -4.52503478 -4.41398327 -4.30502707
 -4.20235681 -4.10597248 -4.02425533 -3.95301473 -3.89434601 -3.84615385
 -3.80634293 -3.76862732 -3.72672109 -3.66595705 -3.57795397 -3.44385403
 -3.24689475 -2.97031363 -2.59525286 -2.10914059 -1.50150024 -0.77652245
  0.05531622  0.97515799  1.94738254  2.93217896  3.88135508  4.74252812
  5.46960122  6.02066815  6.36429924  6.48582731  6.38106174  6.06676501
  5.57227149  4.93110616  4.1935565   3.40571936  2.61578692  1.86147476
  1.1784032   0.58962066  0.1056037  -0.26736175 -0.53556163 -0.70737717
 -0.79538026 -0.81214275 -0.77023652 -0.68013812 -0.5481335  -0.37631795
 -0.16888211  0.08045996  0.36751764  0.69438624  1.05268451  1.43822183
  1.8321404   2.22186835  2.58226193  2.89236804  3.13123355  3.28209598
  3.33028815  3.27371474  3.11237575  2.85465243  2.5214979   2.12757933
  1.70223109  1.26431098  0.83896274  0.44294886  0.09303183 -0.20240709
 -0.44336792 -0.62775533 -0.76185527 -0.85614429 -0.91900364 -0.95881456
 -0.98605361 -1.00700672 -1.02795984 -1.04681764 -1.06358013 -1.07824731
 -1.08243794 -1.076152   -1.05310358 -1.01748328 -0.96510049 -0.90643177
 -0.8393818  -0.77861776 -0.72623498 -0.69061468 -0.67804281 -0.69270999
 -0.73461622 -0.80585681 -0.90643177 -1.03424577 -1.1851082  -1.35901906
 -1.55388303 -1.76760481 -1.99808908 -2.24533584 -2.50724978 -2.77964028
 -3.05831671 -3.34118377 -3.6198602  -3.8922507  -4.14997402 -4.39093484
 -4.60884724 -4.80371122]","[-2.53670243 -2.02078305 -1.51079378 -1.01464144 -0.54023282 -0.10338155
  0.28800557  0.6200916   0.87903964  1.05694287  1.14589449  1.14787119
  1.06682638  0.91066688  0.70113641  0.45404858  0.19707725 -0.05001058
 -0.26349445 -0.42756077 -0.5263959  -0.55209303 -0.50662887 -0.39000342
 -0.20814678  0.02905753  0.3156794   0.64183533  1.0055486   1.40484253
  1.8456472   2.32993933  2.86760244  3.46654332  4.13071539  4.86407205
  5.66068319  6.512642    7.40215816  8.30551124  9.19700411 10.04698622
 10.83173715 11.52358305 12.10868701 12.57518882 12.91913507 13.14447917
 13.26308132 13.28284835 13.22354727 13.09901501 12.92308848 12.7115813
 12.47240029 12.21542895 11.9465974  11.67183574 11.39114398 11.10847551
 10.82383034 10.53720846 10.25256329  9.96594141  9.68129624  9.39467437
  9.10805249  8.82143062  8.53678545  8.25016357  7.9635417   7.67691982
  7.39227465  7.10565278  6.8190309   6.53438573  6.24776386  5.96114198
  5.67649681  5.39185164  5.10720646  4.824538    4.54384623  4.26710787
  3.99629961  3.73142147  3.48038024  3.24119923  3.01980854  2.82016158
  2.64028164  2.48016873  2.33784615  2.20936048  2.08285151  1.94843574
  1.79622964  1.61041959  1.3830988   1.10636044  0.7742744   0.3907941
 -0.04012706 -0.50465217 -0.99289771 -1.48509665 -1.96938878 -2.42996049
 -2.85495154 -3.23645514 -3.57051788 -3.85911645 -4.10818098 -4.32561826
 -4.52328852 -4.71107527 -4.90281542 -5.10839249 -5.33373658 -5.5808244
 -5.85360936 -6.14813805 -6.46243376 -6.78463628 -7.11474561 -7.43892483
 -7.75124384 -8.04577253 -8.31460408 -8.54983168 -8.74750194 -8.89970804
 -9.00249658 -9.05586755 -9.05586755 -9.00842668 -8.91552166 -8.78505929
 -8.62889979 -8.45494996]",0.9819153661766343,9.439199593589944,4.77256,
008,1,1,csp,13a.png,1,1,236,248,235,1,1,187,pos_feedback_onset,14,"[-0.45975985 -0.28992197 -0.15056781 -0.04169738  0.03886675  0.09547937
  0.13249532  0.15644682  0.16951127  0.1760435   0.1782209   0.1760435
  0.16733386  0.14773718  0.11507605  0.06499565 -0.00685884 -0.10048741
 -0.21589008 -0.35306683 -0.50330803 -0.66443627 -0.82556452 -0.97798313
 -1.11080506 -1.21749809 -1.29152999 -1.32419112 -1.31548148 -1.26322368
 -1.1695951  -1.03895058 -0.87564492 -0.68838777 -0.48588876 -0.27468011
 -0.06347146  0.13685014  0.32192988  0.48741294  0.62894451  0.74434717
  0.83579834  0.90329801  0.951201    0.98603954  1.01434586  1.03611994
  1.06224885  1.09490998  1.13628075  1.18853856  1.25168341  1.3235379
  1.40627943  1.4977306   1.59353658  1.69369738  1.798213    1.90490603
  2.01377647  2.1226469   2.23369475  2.34909741  2.46450007  2.58208014
  2.70183762  2.82594992  2.95006222  3.07417452  3.19828681  3.31368948
  3.41602769  3.50094663  3.56191407  3.5923978   3.58368816  3.53578517
  3.44651141  3.31368948  3.1438516   2.94352999  2.71707949  2.47538712
  2.22933993  1.98547015  1.75248742  1.53474654  1.33660235  1.16023224
  0.999104    0.85539502  0.72257309  0.59846079  0.48305813  0.37418769
  0.2762043   0.19346277  0.1281405   0.08676974  0.07152788  0.08023751
  0.11289864  0.16515645  0.2261239   0.28926875  0.34805879  0.39378437
  0.42426809  0.43950995  0.44386477  0.43733254  0.43080032  0.43080032
  0.44168736  0.46563886  0.50483221  0.55491262  0.60934783  0.66378305
  0.71386345  0.75305681  0.77918571  0.79225017  0.79660498  0.79878239
  0.80531462  0.82273389  0.85974984  0.92289469  1.01434586  1.13628075
  1.28434454  1.45853724  1.65014921  1.85700304  2.07038909  2.28377515
  2.48845157  2.68224095  2.85861105  3.01102966  3.13731937  3.23530276
  3.30280243  3.33546356  3.33764097  3.30497984  3.24183499  3.14820641
  3.02409412  2.87385291  2.70183762  2.51022566  2.30337183  2.08563095
  1.86353526  1.63926216  1.41934388  1.20813523  1.01434586  0.84015316
  0.69426677  0.57886411  0.50265481  0.46781627  0.47870331  0.53749335
  0.6507186   0.81620166  1.03611994  1.31047344  1.63490735  2.00506683
  2.41441967  2.85425624  3.30715725  3.76005827  4.1911852   4.58094136
  4.90537526  5.14706763  5.28642179  5.31255069  5.22327693  5.02295533
  4.72465034  4.35013603  3.92771874  3.48788218  3.06328747  2.68006354
  2.36216186  2.12482431  1.96805088  1.89184158  1.87877712  1.91143825
  1.9724057   2.03772796  2.09216318  2.12917913  2.14224358  2.13788876
  2.12046949  2.10740504  2.10740504  2.14006617  2.21192066  2.33167814
  2.50369343  2.72796653  3.00232003  3.3180443   3.6686071   4.0431214
  4.43505497  4.82481114  5.20585766  5.55859788  5.86778992  6.12254674
  6.30762648  6.41867433  6.44915805  6.40343247  6.29020721  6.12036933
  5.91133809  5.67617795  5.43230817  5.1884384   4.95327825  4.72465034
  4.50473205  4.28263636  4.05183104  3.80578385  3.53360776  3.23748017
  2.91522368  2.56901569  2.20538843  1.83087413  1.45635983  1.08402294
  0.72257309  0.37418769  0.04322156 -0.26814789 -0.55774325 -0.82556452
 -1.06507948 -1.27846554 -1.46136787 -1.60725425 -1.71612469 -1.78362436
 -1.80757586 -1.78362436]","[-2.00776472e+00 -1.61479881e+00 -1.25458005e+00 -9.32566322e-01
 -6.45119036e-01 -3.94057482e-01 -1.79381661e-01  7.27714649e-04
  1.46270644e-01  2.64524275e-01  3.55488606e-01  4.26440784e-01
  4.84657956e-01  5.37417268e-01  5.90176580e-01  6.53851612e-01
  7.30261650e-01  8.24864554e-01  9.39479611e-01  1.07410682e+00
  1.22510761e+00  1.38884341e+00  1.55439849e+00  1.71995357e+00
  1.87459293e+00  2.01467800e+00  2.13657021e+00  2.23845026e+00
  2.32031816e+00  2.38763176e+00  2.44221036e+00  2.48951181e+00
  2.53681326e+00  2.58411472e+00  2.63687403e+00  2.69145263e+00
  2.74785051e+00  2.80060982e+00  2.84245342e+00  2.86792343e+00
  2.86428486e+00  2.82789912e+00  2.74603123e+00  2.61504259e+00
  2.42765607e+00  2.18569095e+00  1.88550865e+00  1.53256705e+00
  1.13232399e+00  6.90237344e-01  2.17222823e-01 -2.81261712e-01
 -7.96119825e-01 -1.32007437e+00 -1.84766749e+00 -2.37344133e+00
 -2.89193801e+00 -3.39951898e+00 -3.88708780e+00 -4.35282517e+00
 -4.78763467e+00 -5.18423916e+00 -5.53354219e+00 -5.83190519e+00
 -6.07023174e+00 -6.24488326e+00 -6.35767903e+00 -6.40679977e+00
 -6.39952262e+00 -6.34312473e+00 -6.24488326e+00 -6.11571391e+00
 -5.96653240e+00 -5.80825447e+00 -5.64815724e+00 -5.49715646e+00
 -5.36252925e+00 -5.24791419e+00 -5.15876914e+00 -5.10055197e+00
 -5.07690125e+00 -5.09145554e+00 -5.14785342e+00 -5.24609490e+00
 -5.39345712e+00 -5.58812079e+00 -5.83554377e+00 -6.13390677e+00
 -6.48320980e+00 -6.88163357e+00 -7.32372022e+00 -7.80765046e+00
 -8.32068929e+00 -8.85737884e+00 -9.40680340e+00 -9.95622796e+00
 -1.04929175e+01 -1.10077756e+01 -1.14917059e+01 -1.19337925e+01
 -1.23285777e+01 -1.26687843e+01 -1.29544123e+01 -1.31818231e+01
 -1.33473782e+01 -1.34547161e+01 -1.35001983e+01 -1.34874633e+01
 -1.34183304e+01 -1.32946189e+01 -1.31217867e+01 -1.29034723e+01
 -1.26487722e+01 -1.23595056e+01 -1.20465883e+01 -1.17118396e+01
 -1.13643558e+01 -1.10023178e+01 -1.06348219e+01 -1.02582295e+01
 -9.87617935e+00 -9.48867130e+00 -9.09206682e+00 -8.68636590e+00
 -8.26974927e+00 -7.83857834e+00 -7.39285311e+00 -6.93075431e+00
 -6.45228193e+00 -5.95925526e+00 -5.45713215e+00 -4.94955118e+00
 -4.44560879e+00 -3.95076283e+00 -3.47774831e+00 -3.03566166e+00
 -2.63723789e+00 -2.29703129e+00 -2.02413829e+00 -1.83311320e+00]",4.177739697318424,1.2725455094548264,4.5926149999999994,0.513634999999999
008,2,1,csp,48a.png,1,0,148,NaN,146,1,0,NaN,neg_feedback_onset,1,"[ 1.82925283  1.95321267  2.03773075  2.06778162  2.03021803  1.91940544
  1.73534386  1.47803328  1.15498643  0.77935054  0.35863836 -0.09400288
 -0.56542591 -1.04811802 -1.52893195 -1.9984768  -2.44736167 -2.8643175
 -3.2380752  -3.55924388 -3.81467628 -3.9949815  -4.09076865 -4.09828137
 -4.01188512 -3.8315799  -3.56300024 -3.21365887 -2.79294669 -2.31588912
 -1.7975116  -1.25847411 -0.71568026 -0.18603367  0.31168387  0.76244693
  1.15310825  1.47991146  1.73534386  1.91940544  2.03585257  2.09031977
  2.09031977  2.04336528  1.96260357  1.85179098  1.72031843  1.57569861
  1.41980972  1.25640811  1.09112833  0.92209218  0.75117785  0.58214171
  0.41310556  0.24782577  0.08818052 -0.06395201 -0.20293728 -0.32501895
 -0.42456245 -0.49781145 -0.5391314  -0.54476594 -0.51283689 -0.43770971
 -0.31938441 -0.15973916  0.04310422  0.28351118  0.55396902  0.846965
  1.15123007  1.45173877  1.73346568  1.97950718  2.17295966  2.29879768
  2.34199581  2.29128497  2.14103061  1.88559821  1.52874413  1.07798107
  0.54457812 -0.05643929 -0.70628937 -1.38431213 -2.06609126 -2.73472312
 -3.36954776 -3.9592961  -4.49269905 -4.96412208 -5.37544337 -5.7285411
 -6.03092798 -6.29011674 -6.51549827 -6.71458528 -6.89113415 -7.04890122
 -7.19164285 -7.31935905 -7.43204982 -7.52783697 -7.60484232 -7.66682224
 -7.70814219 -7.7344367  -7.74194942 -7.7344367  -7.70814219 -7.66870042
 -7.61235504 -7.54098422 -7.46022251 -7.36819172 -7.27240457 -7.17473924
 -7.08083027 -6.99255584 -6.9136723  -6.84605784 -6.79346882 -6.75214887
 -6.722098   -6.70519439 -6.69580349 -6.69204713 -6.69580349 -6.70331621
 -6.7127071  -6.722098   -6.72961072 -6.73336708 -6.7314889  -6.71834164
 -6.69580349 -6.6582399  -6.60565088 -6.5399146  -6.45915288 -6.37087845
 -6.27321312 -6.17554779 -6.07788247 -5.98585167 -5.89757724 -5.81305917
 -5.72666292 -5.62711941 -5.49752503 -5.32097616 -5.07305648 -4.72934965
 -4.26356116 -3.65315285 -2.8830993  -1.94776595 -0.85278736  0.37742015
  1.71092753  3.10078029  4.49063305  5.81662771  7.02054071  8.04602666
  8.84800927  9.39643766  9.67440821  9.68004275  9.43024489  8.95130914
  8.27516455  7.4412529   6.49089412  5.46728634  4.4042368   3.33555272
  2.29504132  1.30524078  0.39620195 -0.41329338 -1.10070704 -1.64537907
 -2.02852767 -2.23888376 -2.26893463 -2.1168021  -1.79375524 -1.31857585
 -0.71943662 -0.03577932  0.68731975  1.39914975  2.04712164  2.58428095
  2.97118591  3.17778565  3.18529836  2.99560224  2.61996636  2.08092887
  1.41417518  0.65726888 -0.14847008 -0.95984359 -1.7430444  -2.46614347
 -3.10848083 -3.65503103 -4.10015955 -4.44762274 -4.70493332 -4.88711672
 -5.0073202  -5.08808192 -5.14254912 -5.18762543 -5.23457991 -5.29092529
 -5.36229611 -5.45244872 -5.55762677 -5.67970843 -5.81305917 -5.95767898
 -6.10981152 -6.26570041 -6.42722383 -6.59062544 -6.75402705 -6.91930684
 -7.08458663 -7.25174459 -7.41702438 -7.58230417 -7.74570578 -7.90722921
 -8.06687446 -8.22088517 -8.36738316 -8.5007339  -8.62093738 -8.71860271
 -8.78809535 -8.82378076 -8.8200244  -8.76931355 -8.66789187 -8.51951569
 -8.32042868 -8.08002171 -7.80392934 -7.50342063 -7.18976467 -6.87798689
 -6.57747819 -6.30138581]","[nan nan nan nan nan nan nan nan nan nan nan nan nan nan nan nan nan nan
 nan nan nan nan nan nan nan nan nan nan nan nan nan nan nan nan nan nan
 nan nan nan nan nan nan nan nan nan nan nan nan nan nan nan nan nan nan
 nan nan nan nan nan nan nan nan nan nan nan nan nan nan nan nan nan nan
 nan nan nan nan nan nan nan nan nan nan nan nan nan nan nan nan nan nan
 nan nan nan nan nan nan nan nan nan nan nan nan nan nan nan nan nan nan
 nan nan nan nan nan nan nan nan nan nan nan nan nan nan nan nan nan nan
 nan nan nan nan nan nan nan nan nan nan nan nan nan nan]",1.8124900808650004,,5.324305000000001,-0.12870999999999988
008,2,1,csm,6b.png,1,1,20,59,20,1,1,116,neu_feedback_onset,2,"[nan nan nan nan nan nan nan nan nan nan nan nan nan nan nan nan nan nan
 nan nan nan nan nan nan nan nan nan nan nan nan nan nan nan nan nan nan
 nan nan nan nan nan nan nan nan nan nan nan nan nan nan nan nan nan nan
 nan nan nan nan nan nan nan nan nan nan nan nan nan nan nan nan nan nan
 nan nan nan nan nan nan nan nan nan nan nan nan nan nan nan nan nan nan
 nan nan nan nan nan nan nan nan nan nan nan nan nan nan nan nan nan nan
 nan nan nan nan nan nan nan nan nan nan nan nan nan nan nan nan nan nan
 nan nan nan nan nan nan nan nan nan nan nan nan nan nan nan nan nan nan
 nan nan nan nan nan nan nan nan nan nan nan nan nan nan nan nan nan nan
 nan nan nan nan nan nan nan nan nan nan nan nan nan nan nan nan nan nan
 nan nan nan nan nan nan nan nan nan nan nan nan nan nan nan nan nan nan
 nan nan nan nan nan nan nan nan nan nan nan nan nan nan nan nan nan nan
 nan nan nan nan nan nan nan nan nan nan nan nan nan nan nan nan nan nan
 nan nan nan nan nan nan nan nan nan nan nan nan nan nan nan nan nan nan
 nan nan nan nan nan nan nan nan]","[-3.77527718 -3.55081306 -3.29971761 -3.02389306 -2.7176327  -2.37903429
 -2.00619559 -1.59150765 -1.1368727  -0.63848627 -0.10395732  0.46481192
  1.05450578  1.65371084  2.24530694  2.81407618  3.34480066  3.82226247
  4.23695041  4.58696225  4.87610247  5.11198001  5.30791055  5.48481871
  5.66362911  5.86146189  6.09733943  6.38267517  6.72317582  7.11693915
  7.55445395  8.01669785  8.48084399  8.9240655   9.31782882  9.63930709
  9.86947792  9.99502565 10.01595027  9.93415402  9.76485482  9.52897727
  9.24744601  8.94689236  8.64633871  8.36290521  8.11180976  7.89875907
  7.72375315  7.58488976  7.47836442  7.39847041  7.33950102  7.29384731
  7.25960702  7.23107344  7.20824658  7.1892242   7.17210406  7.16069063
  7.15308167  7.15117944  7.15878839  7.17971301  7.21205106  7.26150925
  7.32808759  7.41178608  7.50880023  7.61342333  7.71994868  7.81506059
  7.89115012  7.93299936  7.93109713  7.8702255   7.7408733   7.53352933
  7.24248687  6.86394146  6.39599084  5.84243951  5.21470088  4.52228615
  3.78611994  3.02332239  2.25481813  1.50153178  0.776779    0.09767994
 -0.53005869 -1.10073017 -1.61433451 -2.07657841 -2.49126635 -2.86600729
 -3.20841018 -3.52418173 -3.81902866 -4.09865769 -4.36497104 -4.61606649
 -4.8500418  -5.06309249 -5.25141408 -5.40549538 -5.52343415 -5.59762144
 -5.62235054 -5.59952368 -5.52914086 -5.41690881 -5.27614317 -5.1182574
 -4.95656714 -4.80819256 -4.68644931 -4.60275083 -4.5666083  -4.57611949
 -4.6312844  -4.72449408 -4.84813956 -4.98700296 -5.12967083 -5.26092527
 -5.37125509 -5.45305133 -5.49870505 -5.50821624 -5.48348715 -5.42832224
 -5.35033047 -5.26282751 -5.17532455 -5.09923501 -5.04597234 -5.02314548
 -5.03455891 -5.08211487]",,7.5853177641472005,4.87059,-0.13892499999999952
008,2,1,csp,26a.png,1,0,16,NaN,17,1,0,202,neg_feedback_onset,3,"[ 1.86495670e-01  4.75180748e-02 -7.30654268e-02 -1.73211047e-01
 -2.48831209e-01 -3.01969701e-01 -3.30582735e-01 -3.38757888e-01
 -3.24451371e-01 -2.95838336e-01 -2.50874997e-01 -1.91605140e-01
 -1.20072554e-01 -3.62772399e-02  6.18245919e-02  1.72189153e-01
  3.00947807e-01  4.52188131e-01  6.27953913e-01  8.36420305e-01
  1.08576246e+00  1.38211174e+00  1.73977467e+00  2.16692640e+00
  2.67787344e+00  3.28079095e+00  3.98385407e+00  4.79115040e+00
  5.69450476e+00  6.67961066e+00  7.71785504e+00  8.77449352e+00
  9.80660655e+00  1.07630994e+01  1.15969650e+01  1.22673275e+01
  1.27373988e+01  1.29887847e+01  1.30173977e+01  1.28293692e+01
  1.24533122e+01  1.19239711e+01  1.12822216e+01  1.05771147e+01
  9.84748231e+00  9.13420024e+00  8.46383772e+00  7.85274506e+00
  7.31318499e+00  6.84106992e+00  6.43231229e+00  6.07669315e+00
  5.76808114e+00  5.49421352e+00  5.25100273e+00  5.03844876e+00
  4.84837647e+00  4.68487341e+00  4.54385203e+00  4.42531232e+00
  4.32925427e+00  4.25363411e+00  4.20049562e+00  4.16983880e+00
  4.16166364e+00  4.18414531e+00  4.23932759e+00  4.33538564e+00
  4.48049460e+00  4.67669826e+00  4.93012799e+00  5.24487137e+00
  5.61275324e+00  6.02968602e+00  6.47931942e+00  6.94734691e+00
  7.40719924e+00  7.84048233e+00  8.22062693e+00  8.52719516e+00
  8.74383670e+00  8.85828884e+00  8.86646399e+00  8.77040595e+00
  8.58033365e+00  8.31055361e+00  7.97945993e+00  7.60544670e+00
  7.20690800e+00  6.80019416e+00  6.39552410e+00  6.00107299e+00
  5.61888460e+00  5.25100273e+00  4.89538359e+00  4.54793961e+00
  4.21071456e+00  3.88370845e+00  3.57100886e+00  3.27465958e+00
  3.00283576e+00  2.75962496e+00  2.55115857e+00  2.37743658e+00
  2.24050277e+00  2.13831336e+00  2.06064941e+00  2.00342335e+00
  1.95437243e+00  1.90532151e+00  1.84809544e+00  1.77451907e+00
  1.68254860e+00  1.57014025e+00  1.43729402e+00  1.28400991e+00
  1.11846307e+00  9.40653501e-01  7.58756355e-01  5.78902997e-01
  4.07224791e-01  2.49853103e-01  1.10875508e-01 -3.57662928e-03
 -8.73719439e-02 -1.44598012e-01 -1.67079682e-01 -1.62992106e-01
 -1.30291495e-01 -7.71530031e-02 -5.62041744e-03  7.81748972e-02
  1.72189153e-01  2.68247196e-01  3.70436604e-01  4.72626012e-01
  5.76859209e-01  6.83136193e-01  7.91456965e-01  9.03865314e-01
  1.02240503e+00  1.14707611e+00  1.27583476e+00  1.41072478e+00
  1.54357101e+00  1.67232966e+00  1.78882559e+00  1.88283984e+00
  1.95028485e+00  1.98298546e+00  1.97481031e+00  1.92575940e+00
  1.83787650e+00  1.72342437e+00  1.59262192e+00  1.46181948e+00
  1.34941113e+00  1.26970340e+00  1.23904657e+00  1.26152824e+00
  1.34123598e+00  1.47408221e+00  1.64780421e+00  1.85013923e+00
  2.06678078e+00  2.27933475e+00  2.47758220e+00  2.65130419e+00
  2.79436936e+00  2.90473392e+00  2.98648545e+00  3.04166773e+00
  3.07845592e+00  3.09889380e+00  3.11320032e+00  3.12546305e+00
  3.14385714e+00  3.17247017e+00  3.21130215e+00  3.26648443e+00
  3.33392944e+00  3.41568096e+00  3.50969522e+00  3.62210357e+00
  3.75290601e+00  3.91232149e+00  4.10852515e+00  4.35377973e+00
  4.65830417e+00  5.02822982e+00  5.47173185e+00  5.98063511e+00
  6.54880822e+00  7.15785709e+00  7.78938763e+00  8.41683060e+00
  9.02179189e+00  9.57974606e+00  1.00763866e+01  1.04994507e+01
  1.08448509e+01  1.11105434e+01  1.13026595e+01  1.14211992e+01
  1.14743377e+01  1.14620750e+01  1.13844110e+01  1.12331707e+01
  1.10042664e+01  1.06915668e+01  1.02909843e+01  9.80251897e+00
  9.23434586e+00  8.60077153e+00  7.92223386e+00  7.22325831e+00
  6.53450170e+00  5.88048949e+00  5.28779092e+00  4.77684388e+00
  4.35991110e+00  4.04516772e+00  3.82648239e+00  3.69772373e+00
  3.64458524e+00  3.64662903e+00  3.68750479e+00  3.74677465e+00
  3.80604450e+00  3.85713921e+00  3.88779603e+00  3.89597118e+00
  3.87757709e+00  3.84078890e+00  3.78560662e+00  3.72020540e+00
  3.64867282e+00  3.57509644e+00  3.50356386e+00  3.43816263e+00
  3.37684899e+00  3.32166671e+00  3.27261579e+00  3.22969624e+00
  3.19495184e+00  3.17042639e+00  3.16020744e+00  3.16838260e+00
  3.20517078e+00  3.27874716e+00  3.40341824e+00  3.59144675e+00
  3.85509542e+00  4.20458319e+00  4.64808523e+00  5.18560151e+00
  5.80691311e+00  6.50180109e+00  7.24165240e+00  7.99785402e+00]","[ -5.62080748  -5.16409064  -4.65867972  -4.10961204  -3.52192493
  -2.90065569  -2.25252076  -1.58591566  -0.90587771  -0.22080244
   0.4592355    1.1258406    1.77397554   2.39188656   2.97789457
   3.52360403   4.02733585   4.4857318    4.9021501    5.27323253
   5.60065821   5.88778534   6.13629304   6.34450219   6.515771
   6.64842038   6.74245032   6.79618171   6.80457724   6.76931602
   6.68703982   6.55774865   6.37976341   6.15812142   5.89618087
   5.60233732   5.28498627   4.95084417   4.60998564   4.26912712
   3.93498501   3.61091755   3.30028293   3.00308116   2.71763313
   2.44393885   2.1803192    1.92173687   1.66819185   1.41800505
   1.17117647   0.92602698   0.6808775    0.43572802   0.19225764
  -0.05289184  -0.29636222  -0.53983259  -0.78330297  -1.02677335
  -1.26856462  -1.51035589  -1.74878894  -1.98218468  -2.21054311
  -2.42882689  -2.63199872  -2.81502128  -2.97285725  -3.0987902
  -3.18442461  -3.22976048  -3.23311869  -3.19785746  -3.13237232
  -3.04841702  -2.96278261  -2.89226016  -2.85867804  -2.8754691
  -2.95270798  -3.10214842  -3.3204322   -3.60588023  -3.95009697
  -4.34468689  -4.77789625  -5.24132952  -5.72155384  -6.21185281
  -6.70550999  -7.19077163  -7.66092133  -8.10924264  -8.52062362
  -8.88834784  -9.19562425  -9.43573641  -9.59525149  -9.66913215
  -9.65737841  -9.56166937  -9.39543787  -9.17379587  -8.92192996
  -8.65998942  -8.41819815  -8.21838453  -8.07901873  -8.01689181
  -8.04039929  -8.15122029  -8.34431749  -8.61129535  -8.94207924
  -9.3215572   -9.73461729 -10.16782665 -10.61111064 -11.05271553
 -11.487604   -11.90738051 -12.30700775 -12.6814484  -13.02566514
 -13.33462065 -13.60663583 -13.83667336 -14.02641234 -14.17417367
 -14.28499467 -14.36055444 -14.40924852 -14.43611421 -14.44618885
 -14.44450974 -14.43611421 -14.42268136 -14.4042112  -14.38406193]",7.168229313031662,4.339229794057633,4.892875000000002,0.04797000000000118
008,2,1,csm,39b.png,1,0,188,NaN,186,1,0,209,neu_feedback_onset,4,"[nan nan nan nan nan nan nan nan nan nan nan nan nan nan nan nan nan nan
 nan nan nan nan nan nan nan nan nan nan nan nan nan nan nan nan nan nan
 nan nan nan nan nan nan nan nan nan nan nan nan nan nan nan nan nan nan
 nan nan nan nan nan nan nan nan nan nan nan nan nan nan nan nan nan nan
 nan nan nan nan nan nan nan nan nan nan nan nan nan nan nan nan nan nan
 nan nan nan nan nan nan nan nan nan nan nan nan nan nan nan nan nan nan
 nan nan nan nan nan nan nan nan nan nan nan nan nan nan nan nan nan nan
 nan nan nan nan nan nan nan nan nan nan nan nan nan nan nan nan nan nan
 nan nan nan nan nan nan nan nan nan nan nan nan nan nan nan nan nan nan
 nan nan nan nan nan nan nan nan nan nan nan nan nan nan nan nan nan nan
 nan nan nan nan nan nan nan nan nan nan nan nan nan nan nan nan nan nan
 nan nan nan nan nan nan nan nan nan nan nan nan nan nan nan nan nan nan
 nan nan nan nan nan nan nan nan nan nan nan nan nan nan nan nan nan nan
 nan nan nan nan nan nan nan nan nan nan nan nan nan nan nan nan nan nan
 nan nan nan nan nan nan nan nan]","[-1.65015763e+00 -1.60740479e+00 -1.54836516e+00 -1.46693119e+00
 -1.36106703e+00 -1.23077268e+00 -1.07401228e+00 -8.90785848e-01
 -6.85165072e-01 -4.55114104e-01 -2.06740493e-01  5.99557610e-02
  3.40902960e-01  6.38136954e-01  9.51657741e-01  1.28350117e+00
  1.63570310e+00  2.01233521e+00  2.41339752e+00  2.84092586e+00
  3.29288440e+00  3.77130898e+00  4.27212790e+00  4.79126946e+00
  5.32669782e+00  5.87434128e+00  6.43623567e+00  7.01034517e+00
  7.59870561e+00  8.20131699e+00  8.81817932e+00  9.44318505e+00
  1.00681908e+01  1.06850531e+01  1.12734135e+01  1.18169853e+01
  1.22954099e+01  1.26903646e+01  1.29916703e+01  1.31891477e+01
  1.32827968e+01  1.32787251e+01  1.31891477e+01  1.30283156e+01
  1.28125156e+01  1.25580344e+01  1.22811589e+01  1.19941042e+01
  1.17009419e+01  1.14098154e+01  1.11227607e+01  1.08418135e+01
  1.05649380e+01  1.02900983e+01  1.00193304e+01  9.75059829e+00
  9.48390203e+00  9.21720578e+00  8.95050952e+00  8.68584912e+00
  8.41915286e+00  8.15449246e+00  7.88983205e+00  7.62313580e+00
  7.35847539e+00  7.09177914e+00  6.82711873e+00  6.56245833e+00
  6.29576207e+00  6.03110167e+00  5.76440541e+00  5.49974501e+00
  5.23508460e+00  4.96838835e+00  4.70372795e+00  4.43906754e+00
  4.17237129e+00  3.90771088e+00  3.64101463e+00  3.37635422e+00
  3.11169382e+00  2.84499756e+00  2.58033716e+00  2.31567675e+00
  2.04898050e+00  1.78432009e+00  1.51965969e+00  1.25703513e+00
  9.94410576e-01  7.35857719e-01  4.81376560e-01  2.35038798e-01
 -3.15556637e-03 -2.25063137e-01 -4.28648064e-01 -6.05766950e-01
 -7.52348098e-01 -8.64319807e-01 -9.33538683e-01 -9.60004723e-01
 -9.41682080e-01 -8.82642451e-01 -7.86957535e-01 -6.62770730e-01
 -5.14153733e-01 -3.57393339e-01 -1.98597096e-01 -4.79442503e-02
  8.23501030e-02  1.82106717e-01  2.47253894e-01  2.71684085e-01
  2.49289743e-01  1.78035019e-01  5.79199117e-02 -1.04948030e-01
 -3.08532957e-01 -5.44691472e-01 -8.05280179e-01 -1.08215568e+00
 -1.36717458e+00 -1.65219347e+00 -1.93110482e+00 -2.19780108e+00
 -2.45024639e+00 -2.68844075e+00 -2.91034832e+00 -3.12004080e+00
 -3.31751818e+00 -3.50278046e+00 -3.68193520e+00 -3.85091069e+00
 -4.01377863e+00 -4.16646732e+00 -4.30694092e+00 -4.43316358e+00
 -4.54106359e+00 -4.62656926e+00 -4.68560889e+00 -4.71614663e+00]",,9.857734853026937,4.98627,0.0659799999999997
008,2,1,csm,4b.png,1,1,48,97,47,1,1,442,neu_feedback_onset,5,"[ 0.32133649  0.32133649  0.32133649  0.32133649  0.31921965  0.31921965
  0.31286912  0.30228492  0.28323335  0.25148073  0.20491022  0.13928815
  0.05249766 -0.0533444  -0.18035487 -0.32430007 -0.48094631 -0.64605992
 -0.81117353 -0.9741703  -1.12658287 -1.27052807 -1.40177222 -1.52243217
 -1.63462475 -1.74258365 -1.85054255 -1.96061829 -2.07704455 -2.20193818
 -2.33106549 -2.46654333 -2.60202116 -2.73326531 -2.8560421  -2.96188416
 -3.04867465 -3.11217988 -3.14816618 -3.1545167  -3.13546513 -3.08677779
 -3.01480519 -2.92166418 -2.80735475 -2.67822744 -2.53639908 -2.38398652
 -2.22522343 -2.06010982 -1.89287937 -1.72353208 -1.55206794 -1.38060381
 -1.20913967 -1.03767554 -0.87044509 -0.70321463 -0.53598418 -0.37510425
 -0.21422433 -0.05546124  0.10118501  0.25359757  0.40601014  0.55418902
  0.70025106  0.83996257  0.97544041  1.10245088  1.22099398  1.3247192
  1.41574337  1.48559913  1.53005279  1.54487068  1.52370227  1.46443072
  1.3607055   1.21464346  1.02412776  0.79550891  0.53302061  0.24513021
 -0.05969492 -0.36875373 -0.67357886 -0.9635861  -1.23242493 -1.47162798
 -1.68119525 -1.86112675 -2.00930563 -2.12996558 -2.22945711 -2.30989708
 -2.37975284 -2.43902439 -2.4961791  -2.55121697 -2.60837168 -2.67187692
 -2.73961584 -2.81370528 -2.8920284  -2.9745852  -3.05714201 -3.13758197
 -3.21167142 -3.27305981 -3.32174716 -3.35138293 -3.3598503  -3.34714925
 -3.31539663 -3.2624756  -3.19897037 -3.12276409 -3.04444096 -2.97035152
 -2.90472945 -2.8560421  -2.82217264 -2.81158844 -2.8200558  -2.84545789
 -2.88356103 -2.9280147  -2.97246836 -3.00845466 -3.03385676 -3.04232412
 -3.03385676 -3.00633782 -2.96611784 -2.91954733 -2.87297683 -2.83699053
 -2.8200558  -2.83275685 -2.88144419 -2.97035152 -3.10582936 -3.28999454
 -3.51861338 -3.78956905 -4.09439418 -4.42673824 -4.7739002  -5.12317899
 -5.45763989 -5.76458186 -6.02707016 -6.2345206  -6.37423212 -6.43985419
 -6.43138683 -6.35094686 -6.20488482 -6.00801859 -5.77516607 -5.51902829
 -5.2628905  -5.01733693 -4.79718545 -4.60878658 -4.4606077  -4.34629828
 -4.26585832 -4.21082045 -4.1727173  -4.14096469 -4.10709523 -4.06687525
 -4.01395422 -3.9462153  -3.86365849 -3.76840064 -3.66255858 -3.54613232
 -3.42123869 -3.28576086 -3.13969882 -2.9745852  -2.79042002 -2.58508643
 -2.3522339  -2.09609612 -1.82090677 -1.53089953 -1.23454177 -0.94241769
 -0.66087781 -0.39627267 -0.15495277  0.06308187  0.25783125  0.43141223
  0.59017532  0.7383542   0.88441624  1.03047828  1.18712453  1.35858866
  1.54698752  1.75232112  1.97882312  2.22014301  2.47204711  2.72818489
  2.98220583  3.22564257  3.45214457  3.65536132  3.83529282  3.98982223
  4.12318322  4.23749264  4.33698418  4.42165783  4.49574727  4.5592525
  4.60793985  4.64180931  4.65239351  4.64180931  4.60370617  4.53596725
  4.44282624  4.32216629  4.17822109  4.01522432  3.83740966  3.6490108
  3.45426141  3.25527834  3.05841212  2.86577957  2.68373123  2.51861762
  2.37678926  2.26671352  2.20109144  2.18627356  2.23707774  2.36197137
  2.56730496  2.86366273  3.2531615   3.73368445  4.30099788  4.94240075
  5.64307518  6.37761906  7.11639663  7.82765526  8.46905813  9.00461895
  9.3983514   9.61850289]","[-3.57139161 -3.12432086 -2.66690124 -2.20534208 -1.73757361 -1.2718749
 -0.81238552 -0.36531476  0.06105827  0.45638473  0.81031574  1.116642
  1.36708442  1.55750344  1.68789908  1.7603411   1.78310859  1.76655041
  1.72101543  1.66720136  1.61545706  1.58027093  1.57406162  1.60303843
  1.67341067  1.78103882  1.92385309  2.09564416  2.28399342  2.47855199
  2.66897101  2.83869232  2.98150659  3.08499519  3.14087903  3.14501858
  3.09534405  2.99185545  2.83869232  2.64413375  2.4185286   2.17015596
  1.91764377  1.66927113  1.43538689  1.22840969  1.05247907  0.90759503
  0.79582734  0.71303646  0.65715261  0.62196649  0.60333854  0.59505945
  0.59712923  0.60333854  0.61575717  0.62817581  0.64266421  0.65715261
  0.67164102  0.68819919  0.7026876   0.71924578  0.73373418  0.75029236
  0.76685053  0.78133894  0.79789711  0.81238552  0.82894369  0.84550187
  0.85999027  0.87654845  0.89103685  0.90759503  0.9241532   0.93864161
  0.95313001  0.96968819  0.98417659  0.99659523  1.00694409  1.01729295
  1.02143249  1.02143249  1.0131534   0.99452545  0.96554864  0.92001366
  0.8579205   0.77512962  0.67164102  0.54538493  0.39636134  0.22250049
  0.02794192 -0.18938414 -0.42533815 -0.67371079 -0.93450206 -1.19943288
 -1.4643637  -1.72722475 -1.97973693 -2.22397003 -2.4557845  -2.67931987
 -2.89250639 -3.10362314 -3.31267011 -3.5279264  -3.75146178 -3.98741579
 -4.23992797 -4.50692856 -4.7925571  -5.09060427 -5.40313984 -5.72395451
 -6.05097848 -6.37800246 -6.69674735 -7.00721316 -7.29905101 -7.56812137
 -7.8102847  -8.0172619  -8.1869832  -8.3132393  -8.39603018 -8.4312163
 -8.41879767 -8.35877428 -8.25321591 -8.10419232 -7.9137733  -7.69230769
 -7.44186528 -7.16865537]",4.822144013341334,1.8530151403823012,4.72402,-0.2509700000000006
008,2,1,csp,12a.png,1,1,216,218,213,1,1,539,pos_feedback_onset,6,"[-0.94610691 -0.64005883 -0.3406161  -0.05878765  0.19221581  0.40358715
  0.56872101  0.67660846  0.72284594  0.71183702  0.6413799   0.51807996
  0.3529461   0.15918904 -0.04998051 -0.25915007 -0.45510891 -0.62244455
 -0.75014807 -0.82500875 -0.84042125 -0.7897802  -0.6730856  -0.48813568
 -0.24373757  0.05570515  0.39478001  0.75587271  1.12136898  1.46704919
  1.7686937   2.00648646  2.16501496  2.22886672  2.19804173  2.07254
  1.86337045  1.58814735  1.26668678  0.92100657  0.57312457  0.24285686
 -0.05438408 -0.30538755 -0.50795175 -0.65987489 -0.76556056 -0.82941232
 -0.86023731 -0.86684266 -0.85143017 -0.82280697 -0.78537663 -0.74134093
 -0.69290167 -0.64226062 -0.59161957 -0.53877673 -0.48373211 -0.43088928
 -0.37804644 -0.32520361 -0.27676435 -0.23272865 -0.19529831 -0.16447332
 -0.14245547 -0.13144655 -0.12924477 -0.1380519  -0.15566618 -0.1820876
 -0.21511437 -0.25254471 -0.29437862 -0.33841432 -0.3846518  -0.43088928
 -0.47712676 -0.51896067 -0.5585928  -0.58941778 -0.61143563 -0.62024277
 -0.61143563 -0.58061064 -0.52336424 -0.43969642 -0.32520361 -0.1820876
 -0.01475196  0.17019796  0.36835859  0.56651922  0.75587271  0.92541014
