sub,run,cat_cond,trial_type,picture,old,response_old,target_pos,response_pos,dot_resp_loc,cat_corr,TN_corr,TN_rt,feedback_type,trial,SP_timeseries,FB_timeseries,SP_peak_response,FB_peak_response,preStim_bl,anticipation
056,1,2,csm,41a.png,1,0,216,NaN,218,1,1,341,neu_feedback_onset,1,"[nan nan nan nan nan nan nan nan nan nan nan nan nan nan nan nan nan nan
 nan nan nan nan nan nan nan nan nan nan nan nan nan nan nan nan nan nan
 nan nan nan nan nan nan nan nan nan nan nan nan nan nan nan nan nan nan
 nan nan nan nan nan nan nan nan nan nan nan nan nan nan nan nan nan nan
 nan nan nan nan nan nan nan nan nan nan nan nan nan nan nan nan nan nan
 nan nan nan nan nan nan nan nan nan nan nan nan nan nan nan nan nan nan
 nan nan nan nan nan nan nan nan nan nan nan nan nan nan nan nan nan nan
 nan nan nan nan nan nan nan nan nan nan nan nan nan nan nan nan nan nan
 nan nan nan nan nan nan nan nan nan nan nan nan nan nan nan nan nan nan
 nan nan nan nan nan nan nan nan nan nan nan nan nan nan nan nan nan nan
 nan nan nan nan nan nan nan nan nan nan nan nan nan nan nan nan nan nan
 nan nan nan nan nan nan nan nan nan nan nan nan nan nan nan nan nan nan
 nan nan nan nan nan nan nan nan nan nan nan nan nan nan nan nan nan nan
 nan nan nan nan nan nan nan nan nan nan nan nan nan nan nan nan nan nan
 nan nan nan nan nan nan nan nan]","[-0.87012165 -1.08813148 -1.23347137 -1.29402966 -1.26980634 -1.16282004
 -0.98316379 -0.74496786 -0.46438113 -0.1636083   0.13918313  0.42582569
  0.68017049  0.8921245   1.05563187  1.1666554   1.2312509   1.251437
  1.23730673  1.19491593  1.13233903  1.05966909  0.98699915  0.92240364
  0.8719384   0.84771509  0.85982674  0.91231059  1.01525968  1.17271122
  1.38668384  1.65112169  1.96602478  2.31726285  2.69272422  3.08029726
  3.46181447  3.82314558  4.15217894  4.4388215   4.67096159  4.84658063
  4.96567859  5.02825549  5.03834854  5.00201356  4.9253064   4.81428287
  4.67499881  4.50947283  4.31972353  4.10776953  3.87361082  3.6172474
  3.34069789  3.0459809   2.73511503  2.41415611  2.09117858  1.77223826
  1.46742822  1.18280427  0.92442225  0.69631937  0.50051424  0.33095104
  0.18359254  0.05440153 -0.06671505 -0.18783162 -0.31500402 -0.45226947
 -0.59962797 -0.75909813 -0.9226055  -1.08813148 -1.25163886 -1.40505319
 -1.54837446 -1.67554687 -1.78657039 -1.88346365 -1.96017081 -2.02274771
 -2.06715712 -2.09339905 -2.10349209 -2.09339905 -2.06715712 -2.02678493
 -1.97228247 -1.91172419 -1.8511659  -1.79464483 -1.74821681 -1.71793767
 -1.70784462 -1.71995628 -1.75427264 -1.80473788 -1.86731477 -1.93796611
 -2.00458023 -2.06513851 -2.10752931 -2.12973402 -2.12973402 -2.1055107
 -2.0631199  -2.00256162 -1.93796611 -1.8733706  -1.82290536 -1.79464483
 -1.79868205 -1.84107285 -1.92787306 -2.05908268 -2.23470172 -2.44867433
 -2.6949447  -2.96543838 -3.24804372 -3.53064905 -3.79912413 -4.04539449
 -4.25331128 -4.41883726 -4.5318794  -4.59041907 -4.59445629 -4.55004688
 -4.46122806 -4.33607427 -4.19073438 -4.03126422 -3.87179407 -3.72039835
 -3.58717012 -3.48018381]",,2.9678607078658197,4.48465,0.24857999999999958
056,1,2,csm,31a.png,1,1,68,NaN,66,1,1,129,neu_feedback_onset,2,"[ 1.0503356   0.90982993  0.78047551  0.66004208  0.5462994   0.43701722
  0.33219553  0.23183435  0.13147316  0.03334222 -0.06478872 -0.16514991
 -0.2655111  -0.36587229 -0.46623348 -0.56659467 -0.66695586 -0.76285655
 -0.85206649 -0.93681594 -1.0081839  -1.07063086 -1.11746608 -1.14868956
 -1.1643013  -1.16653155 -1.15315006 -1.12861732 -1.09516359 -1.05278887
 -1.0081839  -0.96134868 -0.9167437  -0.86990848 -0.82753376 -0.78738928
 -0.74501456 -0.70487008 -0.65803486 -0.60896939 -0.55098293 -0.48407547
 -0.40601676 -0.31680682 -0.21421538 -0.1004727   0.02665147  0.16715714
  0.31658379  0.4771617   0.64666059  0.82508048  1.00796087  1.19753201
  1.39156364  1.58782552  1.78631765  1.98704003  2.18999265  2.39071503
  2.58920716  2.78323879  2.97504017  3.16015081  3.33634045  3.5036091
  3.6597265   3.80246242  3.93404709  4.05225027  4.1593022   4.25074239
  4.33103135  4.40016905  4.45592527  4.50276049  4.53844447  4.56520745
  4.58304944  4.59197044  4.59420068  4.59420068  4.58974019  4.58974019
  4.59197044  4.60758218  4.63657541  4.68564088  4.75923908  4.85960027
  4.98672444  5.14284185  5.31903149  5.51306312  5.71601575  5.91896838
  6.11523026  6.29365015  6.45422805  6.59250347  6.70624615  6.80214684
  6.88243579  6.947113    7.00063897  7.04747419  7.08538841  7.11884214
  7.14560513  7.16567737  7.17905886  7.18128911  7.17236811  7.15229587
  7.12107239  7.07646742  7.01625071  6.9426525   6.85121231  6.74416037
  6.61926645  6.47876078  6.32041313  6.14422349  5.95465235  5.75392998
  5.53982611  5.31680124  5.08931588  4.85737002  4.62765441  4.3979388
  4.17714419  3.96750082  3.77346919  3.60174004  3.45677388  3.34526145
  3.26943299  3.23374901  3.23820951  3.27835399  3.35195219  3.44785288
  3.56159556  3.68202899  3.80469267  3.92289584  4.03886877  4.15038121
  4.26858438  4.39570856  4.54067472  4.71463411  4.92427748  5.17629558
  5.47291865  5.81860719  6.21113095  6.64379918  7.1121514   7.6028061
  8.10238179  8.59526674  9.06138871  9.4829057   9.84197573 10.12744756
 10.32816994 10.43968237 10.46644535 10.41514963 10.30140695 10.1385988
  9.94902767  9.75276579  9.56765515  9.4093075   9.28664382  9.20858512
  9.17290114  9.17959189  9.21973636  9.28887407  9.37585377  9.47175446
  9.5654249   9.65017435  9.71485156  9.75722628  9.77060778  9.75053554
  9.69923982  9.61449037  9.50074769  9.36470252  9.21081537  9.05023747
  8.88519907  8.72685141  8.579655    8.44360984  8.32317641  8.21835472
  8.12468428  8.04216508  7.96856688  7.90388967  7.8503637   7.80798897
  7.78122599  7.77007475  7.78122599  7.81244947  7.86597544  7.93734339
  8.02432309  8.12022378  8.22281522  8.32094616  8.4146166   8.4971358
  8.56850376  8.62649022  8.67332545  8.70677918  8.73131191  8.74692365
  8.75138415  8.7491539   8.73354216  8.70900942  8.66886495  8.61533898
  8.54397102  8.45253083  8.3454789   8.21835472  8.07115831  7.90388967
  7.72100928  7.5202869   7.30618303  7.07869767  6.84452156  6.60365471
  6.36055761  6.11746051  5.87659365  5.63795705  5.40378094  5.17406533
  4.94881022  4.7280156   4.50945124  4.29534737  4.08347375  3.87606062
  3.67533825  3.47907636]","[ 0.17709788  0.26971153  0.36849942  0.46728732  0.57019137  0.66692118
  0.75747675  0.82745151  0.87067121  0.87067121  0.8171611   0.6977924
  0.50227469  0.22443374 -0.13367237 -0.56381132 -1.05157654 -1.5784453
 -2.11560447 -2.64453132 -3.13847078 -3.58095822 -3.95964515 -4.27041539
 -4.51121088 -4.68820586 -4.81169072 -4.88783972 -4.92900135 -4.945466
 -4.94340791 -4.92694327 -4.90430437 -4.87754932 -4.84462002 -4.81374881
 -4.77876143 -4.74583213 -4.71084475 -4.67585737 -4.64292807 -4.60794069
 -4.57295332 -4.54002402 -4.50503664 -4.47004926 -4.43506188 -4.40213258
 -4.3671452  -4.33215783 -4.29717045 -4.26424115 -4.22925377 -4.19426639
 -4.16133709 -4.12634972 -4.09136234 -4.05637496 -4.02344566 -3.98845828
 -3.9534709  -3.91848352 -3.88143806 -3.8443926  -3.80528906 -3.76412744
 -3.71473349 -3.66122339 -3.59330671 -3.51304155 -3.41425365 -3.29282687
 -3.14464503 -2.97176621 -2.77007427 -2.54368534 -2.29671561 -2.03739739
 -1.77396301 -1.51258671 -1.26561698 -1.03511189 -0.83136186 -0.65642497
 -0.51235929 -0.40122291 -0.32301583 -0.27979613 -0.2715638  -0.30037694
 -0.36417745 -0.46090726 -0.59262445 -0.75727094 -0.94867249 -1.16682908
 -1.40350841 -1.65871047 -1.92420293 -2.19586964 -2.46959442 -2.73714497
 -2.99646319 -3.23931676 -3.45747336 -3.64270066 -3.79088249 -3.89378655
 -3.94729666 -3.95141282 -3.90613504 -3.81763755 -3.69415268 -3.54597084
 -3.38132435 -3.21461978 -3.05203138 -2.90384954 -2.77213235 -2.66305405
 -2.57249848 -2.5045818  -2.45107169 -2.41402623 -2.38932926 -2.37286461
 -2.36463229 -2.36257421 -2.36463229 -2.37080653 -2.38315502 -2.39756159
 -2.4181424  -2.44078129 -2.46753634 -2.49634948 -2.52927878 -2.56014999
 -2.59102121 -2.61983435]",8.39381953497085,-1.2088727404658546,4.483805,-0.021300000000000097
056,1,2,csm,26a.png,1,0,48,NaN,47,1,0,158,neu_feedback_onset,3,"[ 3.25003431  2.8732549   2.48898981  2.10222949  1.71546917  1.33120407
  0.95442466  0.59012139  0.24078949 -0.09357105 -0.40796976 -0.7073971
 -0.98686263 -1.24886155 -1.49339388 -1.72295485 -1.93754445 -2.13716268
 -2.32180954 -2.48898981 -2.64369394 -2.78093147 -2.89820718 -2.99801629
 -3.07786359 -3.13774905 -3.17018702 -3.1776727  -3.15521565 -3.09782541
 -3.00300675 -2.86576922 -2.68361758 -2.45405662 -2.17708632 -1.84771624
 -1.47093683 -1.04924332 -0.58762616 -0.09606627  0.42294113  0.95691989
  1.50087957  2.04733447  2.58630369  3.115292    3.62681372  4.12086884
  4.59246691  5.0391127   5.45831098  5.85006176  6.20937457  6.53624942
  6.82569586  7.0802091   7.29729393  7.48194079  7.63165446  7.7514254
  7.84624406  7.91860567  7.97599591  8.02091001  8.05833843  8.09327162
  8.13070004  8.17561414  8.23300438  8.30536599  8.40018465  8.51746036
  8.66717403  8.84683044  9.06142003  9.31094282  9.59040834  9.90231183
 10.24166282 10.60596609 10.99023118 11.38946764 11.80118024 12.2178833
 12.63458635 13.04629895 13.44553541 13.82730528 14.18412287 14.51349294
 14.80543461 15.06493831 15.28451836 15.46916522 15.61887889 15.73864983
 15.82847804 15.89834442 15.94575375 15.97569648 15.9956583  16.00064876
 15.99815353 15.98817262 15.97070602 15.94575375 15.91581101 15.88087782
 15.8434494  15.80103053 15.75861166 15.71120233 15.663793   15.61388844
 15.56398388 15.51657455 15.46666999 15.42175589 15.37684179 15.33691814
 15.30448018 15.2795279  15.26455654 15.26206131 15.27453745 15.30697541
 15.35687997 15.4317368  15.52905069 15.64882163 15.79104962 15.95822989
 16.14537198 16.34998066 16.57205594 16.80910259 17.05862538 17.32062431
 17.5975946  17.89203149 18.2064302  18.54578119 18.91257969 19.3068257
 19.72851921 20.16268886 20.59436328 20.9985902  21.3479221  21.60243534
 21.73218719 21.70473969 21.49763577 21.09340886 20.49954462 19.73350966
 18.8327324  17.84462216 16.82656919 15.84594463 14.96512919 14.23153219
 13.68757252 13.35321198 13.23344104 13.31328834 13.56530635 13.95206667
 14.43115042 14.96013873 15.49910796 16.01562013 16.48971342 16.90641648
 17.26073884 17.5526805  17.78473669 17.96189787 18.08915449 18.16900178
 18.2064302  18.2064302  18.17399224 18.11161154 18.0267738  17.92446945
 17.81717465 17.70738463 17.60508028 17.52273776 17.46534752 17.44788093
 17.47782366 17.56515664 17.71487031 17.93445036 18.22639203 18.58320961
 18.99741744 19.46152982 19.95558494 20.45962097 20.96116178 21.44024553
 21.87940564 22.27614687 22.62298354 22.91991566 23.17193368 23.38652327
 23.56617968 23.72088381 23.84814043 23.95543523 24.03278729 24.08019662
 24.09017754 24.05773957 23.97290183 23.83566429 23.64602697 23.4064851
 23.12452435 22.81012563 22.47826033 22.14140456 21.81702494 21.51510237
 21.24811298 21.02104725 20.83640038 20.70165808 20.60933465 20.56442055
 20.56192532 20.60434419 20.69167717 20.81893379 20.99110451 21.19820843
 21.44024553 21.70473969 21.98420521 22.26616596 22.54064102 22.79265904
 23.01722955 23.20686687 23.35408531 23.45888488 23.52625604 23.55370354
 23.54871309 23.52126558 23.47136102 23.40898033 23.33911394 23.26924756
 23.19938118 23.13700049]","[nan nan nan nan nan nan nan nan nan nan nan nan nan nan nan nan nan nan
 nan nan nan nan nan nan nan nan nan nan nan nan nan nan nan nan nan nan
 nan nan nan nan nan nan nan nan nan nan nan nan nan nan nan nan nan nan
 nan nan nan nan nan nan nan nan nan nan nan nan nan nan nan nan nan nan
 nan nan nan nan nan nan nan nan nan nan nan nan nan nan nan nan nan nan
 nan nan nan nan nan nan nan nan nan nan nan nan nan nan nan nan nan nan
 nan nan nan nan nan nan nan nan nan nan nan nan nan nan nan nan nan nan
 nan nan nan nan nan nan nan nan nan nan nan nan nan nan]",22.014709368333065,,4.00765,0.18874000000000013
056,1,2,csp,18b.png,1,1,72,NaN,73,1,1,235,pos_feedback_onset,4,"[nan nan nan nan nan nan nan nan nan nan nan nan nan nan nan nan nan nan
 nan nan nan nan nan nan nan nan nan nan nan nan nan nan nan nan nan nan
 nan nan nan nan nan nan nan nan nan nan nan nan nan nan nan nan nan nan
 nan nan nan nan nan nan nan nan nan nan nan nan nan nan nan nan nan nan
 nan nan nan nan nan nan nan nan nan nan nan nan nan nan nan nan nan nan
 nan nan nan nan nan nan nan nan nan nan nan nan nan nan nan nan nan nan
 nan nan nan nan nan nan nan nan nan nan nan nan nan nan nan nan nan nan
 nan nan nan nan nan nan nan nan nan nan nan nan nan nan nan nan nan nan
 nan nan nan nan nan nan nan nan nan nan nan nan nan nan nan nan nan nan
 nan nan nan nan nan nan nan nan nan nan nan nan nan nan nan nan nan nan
 nan nan nan nan nan nan nan nan nan nan nan nan nan nan nan nan nan nan
 nan nan nan nan nan nan nan nan nan nan nan nan nan nan nan nan nan nan
 nan nan nan nan nan nan nan nan nan nan nan nan nan nan nan nan nan nan
 nan nan nan nan nan nan nan nan nan nan nan nan nan nan nan nan nan nan
 nan nan nan nan nan nan nan nan]","[-1.52757664 -1.42288835 -1.30729503 -1.18079668 -1.0455743  -0.8994469
 -0.74459547 -0.58102001 -0.40653953 -0.22333502 -0.03140649  0.16924607
  0.37862265  0.59454225  0.81482386  1.03946749  1.26411111  1.48657373
  1.70685534  1.91623192  2.11688448  2.30226999  2.47020746  2.61851587
  2.74719523  2.84970251  2.93258074  2.9892869   3.024183    3.03508803
  3.02854501  3.00019193  2.95657181  2.89550364  2.81916843  2.72974718
  2.62723989  2.51382758  2.39169124  2.26301188  2.12997051  1.99474814
  1.86388777  1.73738942  1.6217961   1.51928882  1.42986757  1.35571336
  1.29464519  1.24884407  1.21612898  1.19213791  1.17687087  1.16814684
  1.16378483  1.16378483  1.16378483  1.16596584  1.16814684  1.17250885
  1.17687087  1.18123288  1.18559489  1.1899569   1.19431892  1.19649992
  1.20086193  1.20522395  1.20958596  1.21394797  1.21830998  1.22267199
  1.22703401  1.23139602  1.23575803  1.24012004  1.24448205  1.24884407
  1.25320608  1.25756809  1.2619301   1.26629212  1.27065413  1.27283513
  1.27719715  1.28155916  1.28592117  1.29028318  1.29464519  1.29900721
  1.30336922  1.30773123  1.31209324  1.31645525  1.32081727  1.32517928
  1.32736028  1.3317223   1.3339033   1.33608431  1.33608431  1.33608431
  1.3317223   1.32517928  1.31427425  1.2968262   1.27501614  1.24666306
  1.21176696  1.17032785  1.12234572  1.07000157  1.0089334   0.94568423
  0.87589203  0.80609984  0.73194563  0.65561042  0.5770942   0.49857798
  0.41788076  0.33500253  0.2521243   0.16706506  0.07764382 -0.01613944
 -0.11646572 -0.22333502 -0.33892834 -0.46324569 -0.59846806 -0.74241446
 -0.89726589 -1.06084134 -1.23314082 -1.40980231 -1.59082582 -1.77621133
 -1.95941584 -2.14043934]",,1.9593613141869828,4.5313300000000005,-0.25443000000000016
056,1,2,csp,24b.png,1,1,252,NaN,251,1,0,167,neg_feedback_onset,5,"[nan nan nan nan nan nan nan nan nan nan nan nan nan nan nan nan nan nan
 nan nan nan nan nan nan nan nan nan nan nan nan nan nan nan nan nan nan
 nan nan nan nan nan nan nan nan nan nan nan nan nan nan nan nan nan nan
 nan nan nan nan nan nan nan nan nan nan nan nan nan nan nan nan nan nan
 nan nan nan nan nan nan nan nan nan nan nan nan nan nan nan nan nan nan
 nan nan nan nan nan nan nan nan nan nan nan nan nan nan nan nan nan nan
 nan nan nan nan nan nan nan nan nan nan nan nan nan nan nan nan nan nan
 nan nan nan nan nan nan nan nan nan nan nan nan nan nan nan nan nan nan
 nan nan nan nan nan nan nan nan nan nan nan nan nan nan nan nan nan nan
 nan nan nan nan nan nan nan nan nan nan nan nan nan nan nan nan nan nan
 nan nan nan nan nan nan nan nan nan nan nan nan nan nan nan nan nan nan
 nan nan nan nan nan nan nan nan nan nan nan nan nan nan nan nan nan nan
 nan nan nan nan nan nan nan nan nan nan nan nan nan nan nan nan nan nan
 nan nan nan nan nan nan nan nan nan nan nan nan nan nan nan nan nan nan
 nan nan nan nan nan nan nan nan]","[nan nan nan nan nan nan nan nan nan nan nan nan nan nan nan nan nan nan
 nan nan nan nan nan nan nan nan nan nan nan nan nan nan nan nan nan nan
 nan nan nan nan nan nan nan nan nan nan nan nan nan nan nan nan nan nan
 nan nan nan nan nan nan nan nan nan nan nan nan nan nan nan nan nan nan
 nan nan nan nan nan nan nan nan nan nan nan nan nan nan nan nan nan nan
 nan nan nan nan nan nan nan nan nan nan nan nan nan nan nan nan nan nan
 nan nan nan nan nan nan nan nan nan nan nan nan nan nan nan nan nan nan
 nan nan nan nan nan nan nan nan nan nan nan nan nan nan]",,,4.512955,-0.07329000000000008
056,1,2,csp,28b.png,1,1,12,NaN,11,1,1,286,pos_feedback_onset,6,"[ 4.85845560e-02  4.23020703e-02  3.60195846e-02  3.39254227e-02
  3.18312608e-02  3.18312608e-02  3.60195846e-02  3.81137465e-02
  4.43962322e-02  4.85845560e-02  5.48670417e-02  5.69612036e-02
  5.69612036e-02  5.06787179e-02  3.39254227e-02  4.60715617e-03
 -4.14644055e-02 -1.06383424e-01 -1.94338224e-01 -3.07422966e-01
 -4.43543489e-01 -6.04793955e-01 -7.86986040e-01 -9.88025582e-01
 -1.19953593e+00 -1.41523461e+00 -1.63093328e+00 -1.83197283e+00
 -2.01625907e+00 -2.17122705e+00 -2.29478261e+00 -2.38064324e+00
 -2.42671480e+00 -2.43718561e+00 -2.41414983e+00 -2.36388995e+00
 -2.29897093e+00 -2.22776942e+00 -2.15656792e+00 -2.09583722e+00
 -2.04976566e+00 -2.02254156e+00 -2.01625907e+00 -2.03091821e+00
 -2.06442480e+00 -2.11259052e+00 -2.17541538e+00 -2.24661688e+00
 -2.32619503e+00 -2.41205567e+00 -2.49791631e+00 -2.58796527e+00
 -2.67592007e+00 -2.77015736e+00 -2.86648880e+00 -2.97329106e+00
 -3.08846996e+00 -3.22040216e+00 -3.36699350e+00 -3.53033812e+00
 -3.70834188e+00 -3.89472229e+00 -4.08529103e+00 -4.26748311e+00
 -4.43501606e+00 -4.57323075e+00 -4.67375052e+00 -4.73029289e+00
 -4.73866954e+00 -4.69469214e+00 -4.60673734e+00 -4.48108762e+00
 -4.33030797e+00 -4.16905750e+00 -4.01199536e+00 -3.87378067e+00
 -3.76907258e+00 -3.70834188e+00 -3.70205940e+00 -3.75022512e+00
 -3.85283906e+00 -4.00361871e+00 -4.19628161e+00 -4.41826277e+00
 -4.65280890e+00 -4.88526087e+00 -5.09886538e+00 -5.27686914e+00
 -5.41089551e+00 -5.48628533e+00 -5.50094447e+00 -5.45487291e+00
 -5.35435313e+00 -5.20566764e+00 -5.02556972e+00 -4.82453017e+00
 -4.61930231e+00 -4.42035693e+00 -4.24235317e+00 -4.09157351e+00
 -3.97011212e+00 -3.88215732e+00 -3.82142663e+00 -3.78582587e+00
 -3.77116674e+00 -3.76907258e+00 -3.77744923e+00 -3.78582587e+00
 -3.79210836e+00 -3.79001420e+00 -3.77535507e+00 -3.74394264e+00
 -3.68949443e+00 -3.61410460e+00 -3.51567899e+00 -3.39631176e+00
 -3.25809708e+00 -3.10312910e+00 -2.93978447e+00 -2.77225152e+00
 -2.60262440e+00 -2.43509145e+00 -2.26965266e+00 -2.10840220e+00
 -1.95134005e+00 -1.79637207e+00 -1.64559242e+00 -1.49900108e+00
 -1.35659808e+00 -1.22466588e+00 -1.10111032e+00 -9.94308068e-01
 -9.04259106e-01 -8.33057602e-01 -7.84891878e-01 -7.57667774e-01
 -7.55573612e-01 -7.78609393e-01 -8.30963440e-01 -9.14729916e-01
 -1.03828547e+00 -1.21000674e+00 -1.44036455e+00 -1.74401803e+00
 -2.12934382e+00 -2.61100105e+00 -3.19108390e+00 -3.87378067e+00
 -4.65490306e+00 -5.52188609e+00 -6.45378813e+00 -7.42338509e+00
 -8.40135869e+00 -9.34791987e+00 -1.02295620e+01 -1.10085903e+01
 -1.16556863e+01 -1.21457202e+01 -1.24598444e+01 -1.25938708e+01
 -1.25457051e+01 -1.23300064e+01 -1.19593398e+01 -1.14630234e+01
 -1.08640931e+01 -1.01939613e+01 -9.48404039e+00 -8.75946038e+00
 -8.04535117e+00 -7.36056023e+00 -6.71974669e+00 -6.13128720e+00
 -5.59937008e+00 -5.12399533e+00 -4.70097462e+00 -4.32821381e+00
 -4.00152455e+00 -3.72300102e+00 -3.48845489e+00 -3.30626280e+00
 -3.17642476e+00 -3.10941158e+00 -3.10312910e+00 -3.16385979e+00
 -3.28322702e+00 -3.45704246e+00 -3.67064697e+00 -3.90519310e+00
 -4.14183340e+00 -4.35753207e+00 -4.53134751e+00 -4.64443225e+00
 -4.68003300e+00 -4.62558479e+00 -4.47899346e+00 -4.24025901e+00
 -3.91775807e+00 -3.52824396e+00 -3.09056413e+00 -2.63194267e+00
 -2.17750954e+00 -1.75658300e+00 -1.39219883e+00 -1.10739281e+00
 -9.10541592e-01 -8.12115983e-01 -8.12115983e-01 -9.04259106e-01
 -1.07598038e+00 -1.31890316e+00 -1.61627415e+00 -1.95134005e+00
 -2.31572422e+00 -2.69267337e+00 -3.07171667e+00 -3.44657165e+00
 -3.80676749e+00 -4.14811588e+00 -4.46642849e+00 -4.76170532e+00
 -5.03394636e+00 -5.28315163e+00 -5.51141528e+00 -5.71664314e+00
 -5.89255274e+00 -6.03495575e+00 -6.13128720e+00 -6.17107627e+00
 -6.13756968e+00 -6.02239078e+00 -5.81297459e+00 -5.50932111e+00
 -5.11143035e+00 -4.62558479e+00 -4.06225524e+00 -3.43400668e+00
 -2.75340406e+00 -2.03720069e+00 -1.29796154e+00 -5.46157422e-01
  2.07740860e-01  9.51168333e-01  1.67784251e+00  2.37310426e+00
  3.02648277e+00  3.63169556e+00  4.17617765e+00  4.65155240e+00
  5.04944316e+00  5.36566161e+00  5.59811358e+00  5.74261075e+00
  5.80543561e+00  5.78658815e+00  5.69025670e+00  5.52481791e+00
  5.29236594e+00  5.00546576e+00  4.67039986e+00  4.29973320e+00]","[-1.919698   -1.74847839 -1.58745042 -1.43457576 -1.27966278 -1.12067314
 -0.94945352 -0.76600394 -0.56624772 -0.34406989 -0.1035471   0.15532065
  0.43253336  0.72401437  1.02364869  1.32532134  1.62291734  1.91032169
  2.18549607  2.44028716  2.67469496  2.88668115  3.0742074   3.24135035
  3.38607169  3.51244807  3.6204795   3.70812763  3.77743081  3.8263507
  3.84877231  3.840619    3.7978141   3.71628095  3.58990457  3.41664662
  3.19243046  2.92133274  2.60335346  2.24868426  1.85936347  1.4496594
  1.02568702  0.59559966  0.16755062 -0.2523451  -0.66204917 -1.05748495
 -1.44069075 -1.81166658 -2.17041244 -2.52304331 -2.86548253 -3.20588343
 -3.54016934 -3.87241693 -4.20058785 -4.52672045 -4.84673806 -5.16267902
 -5.46842833 -5.76194766 -6.03916037 -6.29395146 -6.52020595 -6.71384718
 -6.86672184 -6.97679159 -7.03997978 -7.05220975 -7.01551983 -6.9278717
 -6.793342   -6.6160074  -6.39382957 -6.13496182 -5.83940416 -5.51123323
 -5.15656403 -4.77743489 -4.38199911 -3.98044835 -3.57889759 -3.19365346
 -2.83286927 -2.50469835 -2.22137065 -1.98492452 -1.80147493 -1.66694524
 -1.58133543 -1.53853053 -1.5364922  -1.56910546 -1.62821699 -1.70771181
 -1.80555159 -1.91562134 -2.03180608 -2.15206748 -2.27029054 -2.38851361
 -2.50062169 -2.60661478 -2.70649289 -2.79821769 -2.87771251 -2.94905401
 -3.01020387 -3.05708543 -3.09377535 -3.12027363 -3.13454193 -3.13861858
 -3.1325036  -3.12027363 -3.10192867 -3.07746872 -3.05097045 -3.02039552
 -2.98982059 -2.95720733 -2.92255574 -2.88994248 -2.85529089 -2.8206393
 -2.78598771 -2.75133612 -2.71668454 -2.68407128 -2.64941969 -2.61884476
 -2.59030815 -2.56584821 -2.54750325 -2.53731161 -2.53527328 -2.54546492
 -2.5719632  -2.61272977]",2.1663805642629326,1.9618404477800464,4.775180000000001,0.05958500000000022
056,1,2,csp,8b.png,1,1,88,NaN,88,1,1,435,pos_feedback_onset,7,"[nan nan nan nan nan nan nan nan nan nan nan nan nan nan nan nan nan nan
 nan nan nan nan nan nan nan nan nan nan nan nan nan nan nan nan nan nan
 nan nan nan nan nan nan nan nan nan nan nan nan nan nan nan nan nan nan
 nan nan nan nan nan nan nan nan nan nan nan nan nan nan nan nan nan nan
 nan nan nan nan nan nan nan nan nan nan nan nan nan nan nan nan nan nan
 nan nan nan nan nan nan nan nan nan nan nan nan nan nan nan nan nan nan
 nan nan nan nan nan nan nan nan nan nan nan nan nan nan nan nan nan nan
 nan nan nan nan nan nan nan nan nan nan nan nan nan nan nan nan nan nan
 nan nan nan nan nan nan nan nan nan nan nan nan nan nan nan nan nan nan
 nan nan nan nan nan nan nan nan nan nan nan nan nan nan nan nan nan nan
 nan nan nan nan nan nan nan nan nan nan nan nan nan nan nan nan nan nan
 nan nan nan nan nan nan nan nan nan nan nan nan nan nan nan nan nan nan
 nan nan nan nan nan nan nan nan nan nan nan nan nan nan nan nan nan nan
 nan nan nan nan nan nan nan nan nan nan nan nan nan nan nan nan nan nan
 nan nan nan nan nan nan nan nan]","[nan nan nan nan nan nan nan nan nan nan nan nan nan nan nan nan nan nan
 nan nan nan nan nan nan nan nan nan nan nan nan nan nan nan nan nan nan
 nan nan nan nan nan nan nan nan nan nan nan nan nan nan nan nan nan nan
 nan nan nan nan nan nan nan nan nan nan nan nan nan nan nan nan nan nan
 nan nan nan nan nan nan nan nan nan nan nan nan nan nan nan nan nan nan
 nan nan nan nan nan nan nan nan nan nan nan nan nan nan nan nan nan nan
 nan nan nan nan nan nan nan nan nan nan nan nan nan nan nan nan nan nan
 nan nan nan nan nan nan nan nan nan nan nan nan nan nan]",,,4.556275,0.08024500000000057
056,1,2,csm,39a.png,1,1,316,NaN,316,1,1,246,neu_feedback_onset,8,"[ 1.11635467e+00  8.99328770e-01  6.95590167e-01  5.09567963e-01
  3.39047611e-01  1.88458208e-01  5.55852059e-02 -6.40004961e-02
 -1.68084348e-01 -2.58880899e-01 -3.34175601e-01 -3.93968452e-01
 -4.33830352e-01 -4.55975853e-01 -4.51546752e-01 -4.22757602e-01
 -3.62964751e-01 -2.76597300e-01 -1.61440698e-01 -1.97094953e-02
  1.46381757e-01  3.34618511e-01  5.40571664e-01  7.57597568e-01
  9.81267121e-01  1.20936578e+00  1.43082078e+00  1.64341758e+00
  1.83386889e+00  1.99774559e+00  2.12397494e+00  2.20591329e+00
  2.23248789e+00  2.20148419e+00  2.11068764e+00  1.96231279e+00
  1.75857418e+00  1.51275913e+00  1.23372583e+00  9.39190671e-01
  6.49084616e-01  3.83338611e-01  1.64098158e-01  9.07965515e-03
 -6.40004961e-02 -4.18549957e-02  7.99452563e-02  3.05829360e-01
  6.29153665e-01  1.03663087e+00  1.51497368e+00  2.03982204e+00
  2.58903045e+00  3.13823886e+00  3.66308722e+00  4.14807367e+00
  4.57105273e+00  4.92759529e+00  5.21105769e+00  5.41701084e+00
  5.55209840e+00  5.62517855e+00  5.64068040e+00  5.60967670e+00
  5.54102565e+00  5.44580000e+00  5.32842884e+00  5.19555584e+00
  5.05382464e+00  4.90987889e+00  4.76371858e+00  4.61977283e+00
  4.48468528e+00  4.35845593e+00  4.24551388e+00  4.15028822e+00
  4.06834987e+00  4.00412792e+00  3.95097872e+00  3.89782952e+00
  3.84025122e+00  3.76274197e+00  3.65201447e+00  3.49478141e+00
  3.27997006e+00  3.00315130e+00  2.66653970e+00  2.27899344e+00
  1.84937074e+00  1.40424618e+00  9.67979821e-01  5.64931714e-01
  2.28320109e-01 -1.97094953e-02 -1.59226148e-01 -1.76942548e-01
 -6.62150461e-02  1.70741808e-01  5.20640714e-01  9.70194371e-01
  1.49282818e+00  2.06418209e+00  2.65989605e+00  3.25339546e+00
  3.82253482e+00  4.35402683e+00  4.83236963e+00  5.25534869e+00
  5.61853490e+00  5.92414280e+00  6.18103061e+00  6.39584196e+00
  6.57522051e+00  6.72802447e+00  6.86311202e+00  6.98491227e+00
  7.09785432e+00  7.20636727e+00  7.31266568e+00  7.41674953e+00
  7.51861883e+00  7.61827358e+00  7.71792833e+00  7.81315398e+00
  7.90616509e+00  7.99474709e+00  8.08332909e+00  8.16969654e+00
  8.25384944e+00  8.33800234e+00  8.42215524e+00  8.50409360e+00
  8.58824650e+00  8.67018485e+00  8.74990865e+00  8.82741790e+00
  8.89828350e+00  8.96472000e+00  9.02451285e+00  9.07544751e+00
  9.11752396e+00  9.15295676e+00  9.18174591e+00  9.20389141e+00
  9.22382236e+00  9.24596786e+00  9.27475701e+00  9.31240436e+00
  9.36776811e+00  9.44527736e+00  9.54493211e+00  9.67559057e+00
  9.83060907e+00  1.00144167e+01  1.02181553e+01  1.04351812e+01
  1.06610653e+01  1.08847349e+01  1.10951171e+01  1.12833539e+01
  1.14450160e+01  1.15712454e+01  1.16553983e+01  1.16908311e+01
  1.16731147e+01  1.15933909e+01  1.14450160e+01  1.12213465e+01
  1.09113095e+01  1.05126905e+01  1.00232749e+01  9.44527736e+00
  8.78312690e+00  8.05453994e+00  7.27280378e+00  6.46670756e+00
  5.65839680e+00  4.87666064e+00  4.15028822e+00  3.50363961e+00
  2.95664575e+00  2.52923760e+00  2.23027334e+00  2.06639664e+00
  2.03760749e+00  2.13504769e+00  2.34542994e+00  2.65325240e+00
  3.03636956e+00  3.47042136e+00  3.93326232e+00  4.40053238e+00
  4.84787149e+00  5.25977779e+00  5.62296400e+00  5.93521555e+00
  6.19874701e+00  6.42463111e+00  6.63058426e+00  6.84318107e+00
  7.08678157e+00  7.38353128e+00  7.75336113e+00  8.20291479e+00
  8.73440680e+00  9.33454986e+00  9.98784212e+00  1.06632799e+01
  1.13320740e+01  1.19610062e+01  1.25257165e+01  1.29996302e+01
  1.33694600e+01  1.36241333e+01  1.37680790e+01  1.38057264e+01
  1.37459335e+01  1.36064169e+01  1.34004637e+01  1.31413614e+01
  1.28401826e+01  1.25102146e+01  1.21536721e+01  1.17771985e+01
  1.13874377e+01  1.09843896e+01  1.05769124e+01  1.01694352e+01
  9.77524532e+00  9.40320091e+00  9.06437476e+00  8.76983960e+00
  8.52623910e+00  8.34021689e+00  8.21177299e+00  8.14312194e+00
  8.13204919e+00  8.17634019e+00  8.27378039e+00  8.42215524e+00
  8.61925020e+00  8.86506525e+00  9.15517131e+00  9.48292471e+00
  9.84168182e+00  1.02137262e+01  1.05791270e+01  1.09135240e+01
  1.11969864e+01  1.14007250e+01  1.15070234e+01  1.15003798e+01
  1.13807941e+01  1.11549100e+01  1.08338002e+01  1.04440394e+01
  1.00166313e+01  9.58036491e+00  9.17067316e+00  8.81413060e+00]","[-0.91309781 -0.8401417  -0.76093221 -0.67338488 -0.58375309 -0.48786792
 -0.39198275 -0.29401312 -0.19604349 -0.09598939  0.0040647   0.10828771
  0.21251072  0.32090265  0.43554797  0.5543622   0.68151428  0.81908865
  0.96916979  1.13175769  1.31102127  1.50487607  1.7133221   1.9384438
  2.17398781  2.41995412  2.66800489  2.91605566  3.15576859  3.37672137
  3.57682956  3.74150192  3.86656953  3.94369456  3.96453916  3.92284996
  3.81654248  3.64770121  3.41632612  3.13492398  2.81391711  2.46998117
  2.11979185  1.78002483  1.46527133  1.19012258  0.96083195  0.78365283
  0.65441629  0.57103788  0.52726422  0.51892638  0.5335176   0.56895342
  0.61898047  0.67734536  0.73987916  0.80866635  0.879538    0.95040965
  1.02336576  1.09632187  1.16927797  1.24223408  1.31519019  1.3881463
  1.46110241  1.53614298  1.60909909  1.67997073  1.75292684  1.82588295
  1.89467014  1.96345733  2.0280756   2.08644048  2.13646753  2.17607227
  2.19900134  2.2010858   2.17815673  2.12604523  2.0384979   1.91551474
  1.7550113   1.55698758  1.32769695  1.06922388  0.79199067  0.5022507
  0.2083418  -0.08348263 -0.36696923 -0.63794906 -0.89433767 -1.13613506
 -1.36751014 -1.59054739 -1.80524679 -2.01369282 -2.21588546 -2.40974027
 -2.59525723 -2.76618297 -2.92043303 -3.05383848 -3.16848379 -3.25811559
 -3.32898723 -3.3831832  -3.42070348 -3.44780147 -3.46656161 -3.47906837
 -3.49157513 -3.50199743 -3.51241974 -3.5249265  -3.5353488  -3.54368664
 -3.5457711  -3.53951772 -3.51867312 -3.48115283 -3.42278794 -3.341494
 -3.23518652 -3.10803445 -2.96003777 -2.79953433 -2.63277751 -2.46393623
 -2.30134833 -2.15335166 -2.02203066 -1.91363873 -1.83026032 -1.77189543
 -1.73437515 -1.71978392]",10.323733997107764,2.0439696044007225,4.515590000000001,-0.0853400000000013
056,1,2,csp,56b.png,1,1,208,NaN,207,1,1,265,pos_feedback_onset,9,"[ 4.05050876e-01  3.94527341e-01  3.84003805e-01  3.69270856e-01
  3.54537906e-01  3.33490836e-01  3.10339058e-01  2.80873159e-01
  2.45093139e-01  2.00894290e-01  1.46171906e-01  7.88212799e-02
 -3.26229596e-03 -1.02183528e-01 -2.17942417e-01 -3.48434256e-01
 -4.89449630e-01 -6.38883832e-01 -7.84108620e-01 -9.18809872e-01
 -1.03035935e+00 -1.10612880e+00 -1.13980411e+00 -1.12507117e+00
 -1.05561583e+00 -9.33542822e-01 -7.63061549e-01 -5.54695549e-01
 -3.14758943e-01 -6.21940940e-02  1.90370755e-01  4.28202654e-01
  6.40778068e-01  8.15468755e-01  9.43855886e-01  1.02593946e+00
  1.05751007e+00  1.04067241e+00  9.79635907e-01  8.80714674e-01
  7.48118129e-01  5.92369805e-01  4.19783826e-01  2.34569603e-01
  4.30412596e-02 -1.46382377e-01 -3.29491892e-01 -5.04182579e-01
 -6.68349731e-01 -8.19888640e-01 -9.56694600e-01 -1.08087232e+00
 -1.19242179e+00 -1.29134302e+00 -1.37974072e+00 -1.45761488e+00
 -1.52286080e+00 -1.57337377e+00 -1.60915379e+00 -1.62809616e+00
 -1.62599145e+00 -1.59863026e+00 -1.54811729e+00 -1.47024313e+00
 -1.36921719e+00 -1.24714418e+00 -1.10612880e+00 -9.52485185e-01
 -7.94632155e-01 -6.34674418e-01 -4.83135508e-01 -3.40015428e-01
 -2.13733003e-01 -1.02183528e-01 -7.47171011e-03  7.04024516e-02
  1.35648371e-01  1.88266048e-01  2.32464896e-01  2.72454330e-01
  3.08234351e-01  3.44014371e-01  3.79794391e-01  4.15574411e-01
  4.51354432e-01  4.85029745e-01  5.10286230e-01  5.25019179e-01
  5.25019179e-01  5.08181523e-01  4.70296795e-01  4.09260290e-01
  3.22967300e-01  2.11417825e-01  7.67165728e-02 -7.69270435e-02
 -2.49513023e-01 -4.36831953e-01 -6.30465003e-01 -8.30412175e-01
 -1.03035935e+00 -1.22399240e+00 -1.41131133e+00 -1.58810672e+00
 -1.75227387e+00 -1.90170808e+00 -2.03640933e+00 -2.15427292e+00
 -2.25529886e+00 -2.33527773e+00 -2.39631424e+00 -2.43209426e+00
 -2.44261779e+00 -2.42578014e+00 -2.37737187e+00 -2.29528830e+00
 -2.18373882e+00 -2.04061874e+00 -1.86803276e+00 -1.66598088e+00
 -1.43235840e+00 -1.17137472e+00 -8.76715731e-01 -5.48381428e-01
 -1.82162397e-01  2.21941361e-01  6.63929846e-01  1.13748894e+00
  1.63209510e+00  2.13301538e+00  2.62130742e+00  3.06750532e+00
  3.45056201e+00  3.74522100e+00  3.93253993e+00  3.99989056e+00
  3.94306346e+00  3.77047748e+00  3.49476086e+00  3.13906536e+00
  2.73285690e+00  2.30560136e+00  1.88465995e+00  1.49739385e+00
  1.15853601e+00  8.80714674e-01  6.66034553e-01  5.08181523e-01
  4.00841462e-01  3.27176714e-01  2.70349623e-01  2.19836654e-01
  1.60904856e-01  8.51354011e-02 -1.37858313e-02 -1.42172963e-01
 -3.00025993e-01 -4.87344923e-01 -7.06234458e-01 -9.58799307e-01
 -1.24083005e+00 -1.55022199e+00 -1.88907983e+00 -2.25108945e+00
 -2.63204143e+00 -3.02562165e+00 -3.42762070e+00 -3.82751505e+00
 -4.22319998e+00 -4.60415196e+00 -4.96195216e+00 -5.28397234e+00
 -5.55337485e+00 -5.75121731e+00 -5.84592913e+00 -5.80593969e+00
 -5.58494545e+00 -5.14085226e+00 -4.43156598e+00 -3.41920187e+00
 -2.07639876e+00 -3.92633104e-01  1.62367627e+00  3.94937759e+00
  6.53185316e+00  9.30796179e+00  1.22019340e+01  1.51295816e+01
  1.80109255e+01  2.07680918e+01  2.33358344e+01  2.56636404e+01
  2.77241487e+01  2.95005214e+01  3.09948635e+01  3.22240124e+01
  3.32069106e+01  3.39772334e+01  3.45623419e+01  3.49917022e+01
  3.52905706e+01  3.54778895e+01  3.55726013e+01  3.55894390e+01
  3.55452402e+01  3.54505283e+01  3.53200365e+01  3.51727070e+01
  3.50232728e+01  3.48864668e+01  3.47791268e+01  3.47138809e+01
  3.47033573e+01  3.47475562e+01  3.48506868e+01  3.50064351e+01
  3.52042776e+01  3.54336907e+01  3.56757320e+01  3.59156686e+01
  3.61345581e+01  3.63155629e+01  3.64397407e+01  3.64902536e+01
  3.64481595e+01  3.62945159e+01  3.60103804e+01  3.55768108e+01
  3.49769692e+01  3.41961229e+01  3.32258530e+01  3.20640547e+01
  3.07212515e+01  2.92100719e+01  2.75536674e+01  2.57772946e+01
  2.39125242e+01  2.19867172e+01  2.00251302e+01  1.80488103e+01
  1.60745950e+01  1.41172175e+01  1.21808869e+01  1.02782318e+01
  8.41556599e+00  6.60551791e+00  4.85650633e+00  3.19168304e+00
  1.62578098e+00  1.84056633e-01 -1.11454763e+00 -2.24898474e+00
 -3.20241705e+00 -3.96642571e+00 -4.54101074e+00 -4.93248626e+00
 -5.15137579e+00 -5.22293583e+00 -5.16821345e+00 -5.01877925e+00]","[-4.42685772e-01 -4.28229040e-01 -4.09641814e-01 -3.82793598e-01
 -3.51814888e-01 -3.12575188e-01 -2.69204993e-01 -2.21704304e-01
 -1.68007873e-01 -1.10180947e-01 -4.82235259e-02  1.78643897e-02
  9.01480473e-02  1.64496952e-01  2.47106847e-01  3.33847236e-01
  4.24718120e-01  5.21784745e-01  6.20916619e-01  7.24178987e-01
  8.29506602e-01  9.34834217e-01  1.04016183e+00  1.14135895e+00
  1.24049083e+00  1.33342696e+00  1.42016735e+00  1.49658150e+00
  1.56473466e+00  1.62256159e+00  1.66799703e+00  1.70104099e+00
  1.71962821e+00  1.72582396e+00  1.71962821e+00  1.69897574e+00
  1.66799703e+00  1.62256159e+00  1.56886516e+00  1.50277724e+00
  1.42636309e+00  1.33962270e+00  1.24668657e+00  1.14755470e+00
  1.04429233e+00  9.38964712e-01  8.37767592e-01  7.38635718e-01
  6.45699587e-01  5.63089693e-01  4.90806035e-01  4.26783367e-01
  3.75152183e-01  3.31781988e-01  2.96672783e-01  2.67759320e-01
  2.42976352e-01  2.22323878e-01  2.05801899e-01  1.89279921e-01
  1.74823189e-01  1.60366457e-01  1.45909726e-01  1.33518242e-01
  1.19061510e-01  1.06670026e-01  9.42785420e-02  7.98218105e-02
  6.74303263e-02  5.29735948e-02  4.05821106e-02  2.81906265e-02
  1.78643897e-02  7.53815286e-03 -7.22836576e-04 -2.78808394e-03
 -7.22836576e-04  9.60340022e-03  3.02558738e-02  6.74303263e-02
  1.19061510e-01  1.91345168e-01  2.84281299e-01  3.97869904e-01
  5.23849993e-01  6.60156319e-01  7.94397397e-01  9.18312239e-01
  1.01537886e+00  1.07733629e+00  1.08972777e+00  1.04429233e+00
  9.38964712e-01  7.71679676e-01  5.48632961e-01  2.73955062e-01
 -3.99625364e-02 -3.82793598e-01 -7.38016144e-01 -1.09736918e+00
 -1.44433074e+00 -1.77270507e+00 -2.07216594e+00 -2.33651760e+00
 -2.56369481e+00 -2.74543658e+00 -2.88587340e+00 -2.98294002e+00
 -3.04076695e+00 -3.05935418e+00 -3.04283220e+00 -2.99946200e+00
 -2.92924359e+00 -2.84043796e+00 -2.73717559e+00 -2.62565223e+00
 -2.50999838e+00 -2.39434453e+00 -2.28075592e+00 -2.17542831e+00
 -2.07629643e+00 -1.98542555e+00 -1.90488090e+00 -1.83672774e+00
 -1.77683557e+00 -1.72933488e+00 -1.69216042e+00 -1.66737746e+00
 -1.65292072e+00 -1.65292072e+00 -1.66531221e+00 -1.69422567e+00
 -1.73966111e+00 -1.79955329e+00 -1.87596744e+00 -1.96683832e+00
 -2.07010069e+00 -2.18781979e+00 -2.31379988e+00 -2.44804096e+00]",31.544981273368837,1.0869396854834783,4.751255,-0.19942999999999955
056,1,2,csm,59a.png,1,1,128,NaN,129,1,1,160,neu_feedback_onset,10,"[-1.24822132e+00 -1.02370986e+00 -7.95040791e-01 -5.74686957e-01
 -3.70963601e-01 -1.90107152e-01 -3.83540400e-02  8.42957356e-02
  1.77842175e-01  2.46442897e-01  2.96334331e-01  3.27516477e-01
  3.50383384e-01  3.62856243e-01  3.75329102e-01  3.83644341e-01
  3.94038389e-01  4.04432438e-01  4.14826487e-01  4.23141726e-01
  4.29378155e-01  4.29378155e-01  4.21062916e-01  4.04432438e-01
  3.75329102e-01  3.33752906e-01  2.77625043e-01  2.04866702e-01
  1.17556692e-01  1.56950137e-02 -9.44819034e-02 -2.10895250e-01
 -3.27308596e-01 -4.35406704e-01 -5.33110762e-01 -6.07947913e-01
 -6.61996967e-01 -6.86942684e-01 -6.84863874e-01 -6.59918157e-01
 -6.12105533e-01 -5.47662430e-01 -4.74904089e-01 -3.97988128e-01
 -3.25229786e-01 -2.58707874e-01 -2.04658821e-01 -1.61003816e-01
 -1.29821669e-01 -1.09033572e-01 -9.65607132e-02 -9.24030937e-02
 -9.03242839e-02 -9.03242839e-02 -9.03242839e-02 -9.03242839e-02
 -9.03242839e-02 -8.61666644e-02 -8.20090449e-02 -7.57726156e-02
 -6.53785668e-02 -5.29057083e-02 -3.83540400e-02 -1.75659424e-02
  3.22215512e-03  3.02466820e-02  5.93500186e-02  9.26109747e-02
  1.27950741e-01  1.65369316e-01  2.04866702e-01  2.44364087e-01
  2.81782663e-01  3.21280048e-01  3.58698624e-01  3.96117199e-01
  4.31456965e-01  4.68875541e-01  5.04215306e-01  5.41633882e-01
  5.79052458e-01  6.16471033e-01  6.53889609e-01  6.91308185e-01
  7.26647950e-01  7.59908907e-01  7.91091053e-01  8.18115580e-01
  8.40982487e-01  8.61770585e-01  8.76322253e-01  8.86716302e-01
  8.92952731e-01  8.92952731e-01  8.88795111e-01  8.74243443e-01
  8.53455346e-01  8.26430819e-01  7.89012243e-01  7.45357238e-01
  6.95465804e-01  6.43495560e-01  5.91525316e-01  5.41633882e-01
  4.95900067e-01  4.56402682e-01  4.27299345e-01  4.06511248e-01
  3.96117199e-01  3.91959580e-01  3.96117199e-01  4.04432438e-01
  4.18984106e-01  4.37693394e-01  4.56402682e-01  4.77190780e-01
  4.97978877e-01  5.18766975e-01  5.37476263e-01  5.54106741e-01
  5.64500789e-01  5.68658409e-01  5.62421980e-01  5.39555072e-01
  4.97978877e-01  4.31456965e-01  3.33752906e-01  2.00709082e-01
  3.23254917e-02 -1.73476674e-01 -4.14618606e-01 -6.84863874e-01
 -9.73818431e-01 -1.27108823e+00 -1.56835802e+00 -1.84899734e+00
 -2.10676975e+00 -2.33128120e+00 -2.52253170e+00 -2.67844243e+00
 -2.79693459e+00 -2.88632341e+00 -2.94868770e+00 -2.99026389e+00
 -3.01313080e+00 -3.02352485e+00 -3.02352485e+00 -3.01520961e+00
 -2.99857913e+00 -2.97363342e+00 -2.93829365e+00 -2.89048103e+00
 -2.82603792e+00 -2.74496434e+00 -2.63894505e+00 -2.50382241e+00
 -2.33128120e+00 -2.11508499e+00 -1.84899734e+00 -1.52470302e+00
 -1.14220202e+00 -6.99415543e-01 -2.06737630e-01  3.29595287e-01
  8.88795111e-01  1.45007375e+00  1.98848547e+00  2.47908458e+00
  2.89484653e+00  3.22121966e+00  3.44157349e+00  3.55175041e+00
  3.54967160e+00  3.44988873e+00  3.26487466e+00  3.01749630e+00
  2.73062056e+00  2.42295671e+00  2.11945049e+00  1.83465355e+00
  1.57895995e+00  1.36068493e+00  1.18190729e+00  1.03846941e+00
  9.28292497e-01  8.45140107e-01  7.82775814e-01  7.34963189e-01
  6.97544614e-01  6.70520087e-01  6.49731989e-01  6.35180321e-01
  6.33101511e-01  6.41416750e-01  6.66362468e-01  7.10017472e-01
  7.76539385e-01  8.65928204e-01  9.76105121e-01  1.10707014e+00
  1.25050801e+00  1.40018231e+00  1.54985661e+00  1.68705806e+00
  1.80970783e+00  1.90741189e+00  1.97809142e+00  2.02174643e+00
  2.04045572e+00  2.03837691e+00  2.01966762e+00  1.99264309e+00
  1.96353976e+00  1.93859404e+00  1.91988475e+00  1.90949070e+00
  1.91156951e+00  1.92612118e+00  1.95106690e+00  1.98848547e+00
  2.03629810e+00  2.09242596e+00  2.15271144e+00  2.21507574e+00
  2.27120360e+00  2.31277979e+00  2.33148908e+00  2.32109503e+00
  2.27328241e+00  2.17973597e+00  2.04253453e+00  1.85544165e+00
  1.62469377e+00  1.35860612e+00  1.05925751e+00  7.43278429e-01
  4.16905297e-01  9.26109747e-02 -2.15052869e-01 -4.95692186e-01
 -7.40991738e-01 -9.40557474e-01 -1.09023178e+00 -1.18793584e+00
 -1.23782727e+00 -1.24614251e+00 -1.22327560e+00 -1.18377822e+00
 -1.14012321e+00 -1.10686225e+00 -1.09231059e+00 -1.10478345e+00
 -1.14635964e+00 -1.21496036e+00 -1.30642799e+00 -1.41244729e+00
 -1.52470302e+00 -1.63695874e+00 -1.73882042e+00 -1.83236686e+00]","[nan nan nan nan nan nan nan nan nan nan nan nan nan nan nan nan nan nan
 nan nan nan nan nan nan nan nan nan nan nan nan nan nan nan nan nan nan
 nan nan nan nan nan nan nan nan nan nan nan nan nan nan nan nan nan nan
 nan nan nan nan nan nan nan nan nan nan nan nan nan nan nan nan nan nan
 nan nan nan nan nan nan nan nan nan nan nan nan nan nan nan nan nan nan
 nan nan nan nan nan nan nan nan nan nan nan nan nan nan nan nan nan nan
 nan nan nan nan nan nan nan nan nan nan nan nan nan nan nan nan nan nan
 nan nan nan nan nan nan nan nan nan nan nan nan nan nan]",0.7407838567949614,,4.810445,-0.05631999999999948
056,1,2,csp,43b.png,1,1,24,NaN,24,1,0,288,neg_feedback_onset,11,"[-1.03660464e-01 -7.21527243e-02 -3.64439525e-02  1.36533539e-03
  3.91746232e-02  7.90844271e-02  1.18994231e-01  1.52602487e-01
  1.82009711e-01  2.00914355e-01  2.07215903e-01  1.96713323e-01
  1.69406615e-01  1.23195263e-01  5.59787512e-02 -3.01424045e-02
 -1.33067688e-01 -2.50696584e-01 -3.80928575e-01 -5.19562631e-01
 -6.66598750e-01 -8.17835901e-01 -9.73274085e-01 -1.13291330e+00
 -1.29885406e+00 -1.47529741e+00 -1.66014281e+00 -1.85969183e+00
 -2.07394446e+00 -2.30710174e+00 -2.55496263e+00 -2.81752713e+00
 -3.09269472e+00 -3.37626438e+00 -3.66193455e+00 -3.94550421e+00
 -4.21857129e+00 -4.47693476e+00 -4.71429307e+00 -4.92644518e+00
 -5.11129059e+00 -5.26672877e+00 -5.38855870e+00 -5.48098140e+00
 -5.54189637e+00 -5.57340411e+00 -5.57760514e+00 -5.55449946e+00
 -5.50618759e+00 -5.43477005e+00 -5.33814632e+00 -5.22051742e+00
 -5.07978285e+00 -4.91594260e+00 -4.73319771e+00 -4.52944766e+00
 -4.30679296e+00 -4.07363569e+00 -3.82997583e+00 -3.58421546e+00
 -3.34265612e+00 -3.11369988e+00 -2.90784931e+00 -2.73350649e+00
 -2.59697295e+00 -2.50244973e+00 -2.45203734e+00 -2.44783631e+00
 -2.48144457e+00 -2.54656056e+00 -2.63478223e+00 -2.73350649e+00
 -2.83433125e+00 -2.92885447e+00 -3.00867408e+00 -3.06748853e+00
 -3.10739833e+00 -3.12210194e+00 -3.11159936e+00 -3.07799111e+00
 -3.01707614e+00 -2.92675396e+00 -2.80702455e+00 -2.65368688e+00
 -2.46674095e+00 -2.24828729e+00 -2.00042640e+00 -1.72735933e+00
 -1.44378967e+00 -1.15811949e+00 -8.85052413e-01 -6.35091010e-01
 -4.16637347e-01 -2.38093488e-01 -9.94594322e-02 -2.83569659e-03
  6.01797832e-02  9.79890710e-02  1.14793199e-01  1.23195263e-01
  1.27396295e-01  1.35798359e-01  1.50501971e-01  1.75708163e-01
  2.09316419e-01  2.51326738e-01  3.01739122e-01  3.58453054e-01
  4.19368018e-01  4.84484013e-01  5.51700525e-01  6.21017553e-01
  6.90334581e-01  7.61752124e-01  8.33169668e-01  9.02486696e-01
  9.73904240e-01  1.04532178e+00  1.11673933e+00  1.18815687e+00
  1.25747390e+00  1.32889144e+00  1.40030899e+00  1.47172653e+00
  1.54104356e+00  1.61246110e+00  1.68387864e+00  1.75319567e+00
  1.82041218e+00  1.88762870e+00  1.95274469e+00  2.01576017e+00
  2.07037359e+00  2.12078597e+00  2.16279629e+00  2.19430403e+00
  2.21320867e+00  2.21951022e+00  2.21110816e+00  2.18590197e+00
  2.14809268e+00  2.09768030e+00  2.04096636e+00  1.98425243e+00
  1.93804108e+00  1.91073437e+00  1.92333747e+00  1.99475501e+00
  2.14809268e+00  2.41695873e+00  2.82865986e+00  3.41470382e+00
  4.20659835e+00  5.22534861e+00  6.47935665e+00  7.96652198e+00
  9.65953787e+00  1.15142935e+01  1.34635723e+01  1.54275548e+01
  1.73033156e+01  1.89963314e+01  2.04057777e+01  2.14476336e+01
  2.20567832e+01  2.22017189e+01  2.18740384e+01  2.10968474e+01
  1.99268600e+01  1.84354937e+01  1.67109700e+01  1.48478124e+01
  1.29342423e+01  1.10563810e+01  9.27934447e+00  7.66194716e+00
  6.23779731e+00  5.03210114e+00  4.05536120e+00  3.30337647e+00
  2.77404644e+00  2.45056698e+00  2.31403344e+00  2.34554118e+00
  2.52198453e+00  2.81395625e+00  3.19625016e+00  3.63735852e+00
  4.11207513e+00  4.58679175e+00  5.03630217e+00  5.43329969e+00
  5.75677915e+00  5.98783591e+00  6.11386687e+00  6.12016842e+00
  6.00464004e+00  5.76938225e+00  5.42699814e+00  4.99009082e+00
  4.48596698e+00  3.94403385e+00  3.40000021e+00  2.88747431e+00
  2.44216492e+00  2.08927823e+00  1.85191992e+00  1.73639154e+00
  1.74479361e+00  1.86242250e+00  2.07037359e+00  2.34554118e+00
  2.66271910e+00  2.99880166e+00  3.33698473e+00  3.66676574e+00
  3.99024520e+00  4.31582518e+00  4.65190774e+00  5.01739752e+00
  5.42909866e+00  5.90171476e+00  6.44154737e+00  7.05279752e+00
  7.73126419e+00  8.46644478e+00  9.24783673e+00  1.00565354e+01
  1.08757366e+01  1.16886363e+01  1.24763298e+01  1.32304151e+01
  1.39382889e+01  1.45957504e+01  1.51943975e+01  1.57363306e+01
  1.62152483e+01  1.66332510e+01  1.69903387e+01  1.72823104e+01
  1.75133672e+01  1.76814084e+01  1.77885348e+01  1.78326456e+01
  1.78221430e+01  1.77549265e+01  1.76393981e+01  1.74797589e+01
  1.72865114e+01  1.70638567e+01  1.68243979e+01  1.65744365e+01
  1.63244751e+01  1.60850163e+01  1.58602611e+01  1.56565110e+01
  1.54800677e+01  1.53288305e+01  1.52091011e+01  1.51145779e+01]","[nan nan nan nan nan nan nan nan nan nan nan nan nan nan nan nan nan nan
 nan nan nan nan nan nan nan nan nan nan nan nan nan nan nan nan nan nan
 nan nan nan nan nan nan nan nan nan nan nan nan nan nan nan nan nan nan
 nan nan nan nan nan nan nan nan nan nan nan nan nan nan nan nan nan nan
 nan nan nan nan nan nan nan nan nan nan nan nan nan nan nan nan nan nan
 nan nan nan nan nan nan nan nan nan nan nan nan nan nan nan nan nan nan
 nan nan nan nan nan nan nan nan nan nan nan nan nan nan nan nan nan nan
 nan nan nan nan nan nan nan nan nan nan nan nan nan nan]",9.946258298351001,,4.7607349999999995,-0.03690499999999908
056,1,2,csm,60a.png,1,1,284,NaN,284,1,1,410,neu_feedback_onset,12,"[ 3.435606    3.13888351  2.81202514  2.45734904  2.0748552   1.66917992
  1.24495948  0.80914833  0.36638273 -0.07406472 -0.50292144 -0.91091487
 -1.28645427 -1.62026707 -1.9030807  -2.12794071 -2.29252897 -2.39452732
 -2.4455265  -2.45016279 -2.42698135 -2.38757289 -2.34352815 -2.30411969
 -2.27166567 -2.23457536 -2.18589432 -2.10012298 -1.95871617 -1.73849244
 -1.41858851 -0.98741363 -0.4380134   0.22265778  0.97605473  1.79667787
  2.64743689  3.49355962  4.2956376   5.02121682  5.64711582  6.16174389
  6.56510103  6.85950538  7.06350209  7.19100004  7.25822623  7.28140767
  7.26518066  7.21649963  7.13304642  7.01250291  6.85486909  6.66014495
  6.4329668   6.1779709   5.90906615  5.6355251   5.37589292  5.13712404
  4.92849104  4.7546302   4.62017782  4.52049761  4.45327142  4.41386297
  4.39763596  4.40227225  4.42545369  4.46486215  4.52745205  4.61322339
  4.72681247  4.87517372  5.06062527  5.28548529  5.55439004  5.86038511
  6.20347049  6.57205546  6.95686745  7.34631572  7.7311277   8.09507638
  8.43352547  8.7325661   8.987562    9.18924056  9.32601109  9.39323728
  9.37701027  9.26110304  9.03392489  8.67693064  8.17621143  7.51785841
  6.69955341  5.7189783   4.59236009  3.34519837  2.01690159  0.65615079
 -0.67678228 -1.92162585 -3.02042633 -3.92218453 -4.58981013 -5.00243985
 -5.16470996 -5.09516563 -4.83785159 -4.43913074 -3.95927484 -3.45623749
 -2.97869973 -2.56143373 -2.22298463 -1.96798874 -1.7779009  -1.62490336
 -1.46958768 -1.27486355 -1.0013225  -0.62346495 -0.12274575  0.5054714
  1.24727763  2.08412778  2.98820412  3.92241634  4.85431042  5.75375047
  6.59060062  7.34863386  8.01625947  8.58420486  9.05478819  9.43264573
  9.72009565  9.92409236 10.04927216 10.09563505 10.06781732  9.9681371
  9.79891256  9.56477997  9.27501191  8.9458354   8.59811373  8.2527102
  7.9397607   7.68244666  7.50626768  7.4344052   7.47381366  7.63144748
  7.8980341   8.25966463  8.6908395   9.16374098  9.64359688 10.10490763
 10.51290105 10.85135015 11.10170975 11.25470728 11.31266089 11.27557058
 11.15502707 10.96262108 10.70994333 10.4109027  10.07940804  9.72473194
  9.3631014   9.00378901  8.66302177  8.35470856  8.09044009  7.88876152
  7.76589986  7.7311277   7.79835389  7.97453286  8.26198278  8.65606734
  9.14055953  9.6969142  10.29499547 10.90698561 11.49579431 12.02896753
 12.48564199 12.84263624 13.09995028 13.25990224 13.3410373  13.37117318
 13.38044576 13.39899091 13.45926267 13.57980618 13.77221217 14.03416249
 14.35406643 14.71337882 15.08660008 15.45054876 15.78204342 16.06485705
 16.2920352  16.45662346 16.56789439 16.62584801 16.64671131 16.63280244
 16.59803027 16.54703109 16.48675934 16.41953315 16.35230696 16.28044448
 16.208582   16.13671952 16.06485705 15.99299457 15.92113209 15.84926961
 15.77740713 15.70554465 15.63600032 15.56413784 15.49459351 15.42736732
 15.36014113 15.29755123 15.24191576 15.19091658 15.15150813 15.1190541
 15.10050895 15.09123637 15.09123637 15.09123637 15.08660008 15.06573678
 15.01705575 14.92896626 14.78755945 14.58588088 14.32161241 13.99475404
 13.60994206 13.17644904 12.71050201 12.22600981 11.74383576 11.27557058
 10.83975942 10.44335672]","[nan nan nan nan nan nan nan nan nan nan nan nan nan nan nan nan nan nan
 nan nan nan nan nan nan nan nan nan nan nan nan nan nan nan nan nan nan
 nan nan nan nan nan nan nan nan nan nan nan nan nan nan nan nan nan nan
 nan nan nan nan nan nan nan nan nan nan nan nan nan nan nan nan nan nan
 nan nan nan nan nan nan nan nan nan nan nan nan nan nan nan nan nan nan
 nan nan nan nan nan nan nan nan nan nan nan nan nan nan nan nan nan nan
 nan nan nan nan nan nan nan nan nan nan nan nan nan nan nan nan nan nan
 nan nan nan nan nan nan nan nan nan nan nan nan nan nan]",15.345826586567052,,4.313795,
056,1,2,csm,35a.png,1,1,344,NaN,344,1,1,334,neu_feedback_onset,13,"[-3.66365277e-01 -2.07703149e-01 -1.17039076e-01 -8.81914166e-02
 -1.00554699e-01 -1.41765642e-01 -1.93279320e-01 -2.36550809e-01
 -2.63337921e-01 -2.59216827e-01 -2.24187526e-01 -1.58250019e-01
 -6.75859454e-02  4.16230518e-02  1.59074237e-01  2.74464876e-01
  3.79552779e-01  4.66095758e-01  5.29972718e-01  5.73244208e-01
  5.97970773e-01  6.06212962e-01  6.08273509e-01  6.08273509e-01
  6.16515697e-01  6.37121168e-01  6.76271564e-01  7.38087977e-01
  8.20509862e-01  9.25597765e-01  1.05129114e+00  1.19552944e+00
  1.35625211e+00  1.52727752e+00  1.70860567e+00  1.89405491e+00
  2.08362524e+00  2.27319558e+00  2.45658427e+00  2.63173078e+00
  2.79039291e+00  2.92638901e+00  3.03559801e+00  3.11389880e+00
  3.15304920e+00  3.15304920e+00  3.11183826e+00  3.03147692e+00
  2.91608628e+00  2.76978743e+00  2.60082257e+00  2.41331278e+00
  2.21550026e+00  2.01356664e+00  1.81163302e+00  1.60969941e+00
  1.41600798e+00  1.22849819e+00  1.04923059e+00  8.82326275e-01
  7.27785242e-01  5.91789132e-01  4.78459040e-01  3.91916062e-01
  3.40402384e-01  3.28039101e-01  3.56886761e-01  4.26945363e-01
  5.36154360e-01  6.78332111e-01  8.41115333e-01  1.01420129e+00
  1.18110561e+00  1.32740445e+00  1.44691619e+00  1.52727752e+00
  1.56642792e+00  1.56642792e+00  1.53139862e+00  1.46546111e+00
  1.37685758e+00  1.27589077e+00  1.16462123e+00  1.05335169e+00
  9.42082142e-01  8.34933692e-01  7.27785242e-01  6.22697339e-01
  5.15548889e-01  4.02218797e-01  2.78585970e-01  1.46710955e-01
  2.47265654e-03 -1.54128924e-01 -3.18972694e-01 -4.87937557e-01
 -6.58962968e-01 -8.27927831e-01 -9.88650506e-01 -1.13700990e+00
 -1.27300601e+00 -1.39457829e+00 -1.50172674e+00 -1.59651191e+00
 -1.67893379e+00 -1.75517403e+00 -1.82111154e+00 -1.88292796e+00
 -1.94062327e+00 -1.99419750e+00 -2.04159008e+00 -2.08692212e+00
 -2.12607251e+00 -2.16316236e+00 -2.19613112e+00 -2.22703932e+00
 -2.26000808e+00 -2.29297683e+00 -2.33212723e+00 -2.37951981e+00
 -2.43515458e+00 -2.50315264e+00 -2.58351397e+00 -2.67623859e+00
 -2.78132650e+00 -2.89465659e+00 -3.01416832e+00 -3.13574060e+00
 -3.25525233e+00 -3.36858243e+00 -3.47160978e+00 -3.56227385e+00
 -3.63851410e+00 -3.70033051e+00 -3.74772310e+00 -3.78275240e+00
 -3.80747896e+00 -3.82602389e+00 -3.83632662e+00 -3.84456881e+00
 -3.84868990e+00 -3.85075045e+00 -3.85075045e+00 -3.85075045e+00
 -3.84662936e+00 -3.84044772e+00 -3.82602389e+00 -3.80335787e+00
 -3.77244966e+00 -3.73329927e+00 -3.68590668e+00 -3.63645355e+00
 -3.58493987e+00 -3.53754729e+00 -3.50045744e+00 -3.47573088e+00
 -3.46336759e+00 -3.46130705e+00 -3.46130705e+00 -3.45100431e+00
 -3.41597501e+00 -3.33561367e+00 -3.19137537e+00 -2.96677574e+00
 -2.64739094e+00 -2.22497878e+00 -1.69953926e+00 -1.07725403e+00
 -3.76668013e-01  3.83673873e-01  1.17492397e+00  1.97029515e+00
  2.74506087e+00  3.47449455e+00  4.14623291e+00  4.74173102e+00
  5.25892835e+00  5.69164325e+00  6.04193625e+00  6.30980738e+00
  6.50143826e+00  6.61682890e+00  6.66422148e+00  6.64773711e+00
  6.57767851e+00  6.46228787e+00  6.31598902e+00  6.15320580e+00
  5.99042258e+00  5.84206318e+00  5.72049090e+00  5.63806902e+00
  5.59685808e+00  5.59479753e+00  5.62570574e+00  5.67515887e+00
  5.72461200e+00  5.75345966e+00  5.74109638e+00  5.66897723e+00
  5.52679948e+00  5.30632093e+00  5.01166270e+00  4.65106695e+00
  4.24513917e+00  3.81242427e+00  3.38176993e+00  2.97790269e+00
  2.62967023e+00  2.35149637e+00  2.16192603e+00  2.06714087e+00
  2.06508032e+00  2.14956275e+00  2.30410379e+00  2.50809795e+00
  2.74300032e+00  2.98408433e+00  3.21074452e+00  3.40237540e+00
  3.54867424e+00  3.63933832e+00  3.67230707e+00  3.64758051e+00
  3.57340081e+00  3.45801017e+00  3.30759023e+00  3.13244373e+00
  2.94081284e+00  2.74300032e+00  2.54312725e+00  2.34737528e+00
  2.16398658e+00  1.99708227e+00  1.85284397e+00  1.73745333e+00
  1.65091035e+00  1.59939667e+00  1.57879120e+00  1.58703339e+00
  1.62000214e+00  1.67151582e+00  1.73127169e+00  1.79308810e+00
  1.84872287e+00  1.89405491e+00  1.92496312e+00  1.93938695e+00
  1.93732640e+00  1.92290257e+00  1.90023655e+00  1.87550999e+00
  1.85284397e+00  1.84048068e+00  1.84254123e+00  1.86726780e+00
  1.91878147e+00  1.99708227e+00  2.10423072e+00  2.23404518e+00]","[nan nan nan nan nan nan nan nan nan nan nan nan nan nan nan nan nan nan
 nan nan nan nan nan nan nan nan nan nan nan nan nan nan nan nan nan nan
 nan nan nan nan nan nan nan nan nan nan nan nan nan nan nan nan nan nan
 nan nan nan nan nan nan nan nan nan nan nan nan nan nan nan nan nan nan
 nan nan nan nan nan nan nan nan nan nan nan nan nan nan nan nan nan nan
 nan nan nan nan nan nan nan nan nan nan nan nan nan nan nan nan nan nan
 nan nan nan nan nan nan nan nan nan nan nan nan nan nan nan nan nan nan
 nan nan nan nan nan nan nan nan nan nan nan nan nan nan]",3.9774740989227566,,4.853079999999999,-0.03912000000000049
056,1,2,csp,33b.png,1,1,112,NaN,113,1,0,NaN,neg_feedback_onset,14,"[ 1.55332979e+00  1.49809273e+00  1.42585965e+00  1.33450606e+00
  1.22190744e+00  1.08806380e+00  9.28726138e-01  7.48143451e-01
  5.46315741e-01  3.25367512e-01  8.74232656e-02 -1.63267994e-01
 -4.24581765e-01 -6.90144541e-01 -9.57831818e-01 -1.22339459e+00
 -1.48045936e+00 -1.72477711e+00 -1.94784984e+00 -2.14542855e+00
 -2.30476621e+00 -2.42161384e+00 -2.48534890e+00 -2.49172241e+00
 -2.43860985e+00 -2.32813574e+00 -2.16454907e+00 -1.95847236e+00
 -1.72265261e+00 -1.46983685e+00 -1.21489658e+00 -9.72703333e-01
 -7.49630602e-01 -5.56300902e-01 -3.92714232e-01 -2.58870593e-01
 -1.54769985e-01 -6.97898974e-02 -1.80582687e-03  5.76802348e-02
  1.12917292e-01  1.70278852e-01  2.34013918e-01  3.04122490e-01
  3.80604570e-01  4.65584658e-01  5.59062755e-01  6.56789856e-01
  7.58765962e-01  8.67115574e-01  9.79714191e-01  1.09868631e+00
  1.22190744e+00  1.35362658e+00  1.48959472e+00  1.63406087e+00
  1.78277602e+00  1.93786468e+00  2.09720235e+00  2.26078902e+00
  2.42650019e+00  2.59433586e+00  2.76429604e+00  2.93425622e+00
  3.10421639e+00  3.27630107e+00  3.44626125e+00  3.61622142e+00
  3.78405710e+00  3.95189277e+00  4.11547944e+00  4.27694161e+00
  4.43203027e+00  4.58074542e+00  4.72308707e+00  4.85480621e+00
  4.97590283e+00  5.08425245e+00  5.17985505e+00  5.26058613e+00
  5.32432119e+00  5.37318475e+00  5.40930128e+00  5.42842180e+00
  5.43691981e+00  5.43054631e+00  5.41142579e+00  5.38380726e+00
  5.34344171e+00  5.29245366e+00  5.22871860e+00  5.15436102e+00
  5.06513193e+00  4.96528032e+00  4.85055720e+00  4.72308707e+00
  4.58499443e+00  4.43415477e+00  4.27694161e+00  4.11123044e+00
  3.94127026e+00  3.77131008e+00  3.60134991e+00  3.43563874e+00
  3.26992757e+00  3.11058990e+00  2.95550124e+00  2.80678608e+00
  2.66019543e+00  2.51785379e+00  2.37976114e+00  2.24804201e+00
  2.12269638e+00  2.00372425e+00  1.89749914e+00  1.80402105e+00
  1.72753897e+00  1.67230191e+00  1.63830987e+00  1.63193637e+00
  1.64893238e+00  1.68929793e+00  1.75090849e+00  1.82739057e+00
  1.91661966e+00  2.00797326e+00  2.09932685e+00  2.18643144e+00
  2.26078902e+00  2.32452408e+00  2.37551214e+00  2.41375318e+00
  2.44349621e+00  2.46261673e+00  2.47961275e+00  2.49235976e+00
  2.50935578e+00  2.53272530e+00  2.56459283e+00  2.60708288e+00
  2.66231994e+00  2.73242851e+00  2.81315959e+00  2.90026418e+00
  2.99374228e+00  3.08297137e+00  3.16157795e+00  3.22106401e+00
  3.25505605e+00  3.25718055e+00  3.22318852e+00  3.15307994e+00
  3.04473033e+00  2.90451319e+00  2.73667751e+00  2.55184582e+00
  2.35639162e+00  2.16093742e+00  1.96973222e+00  1.79339853e+00
  1.62981186e+00  1.48534571e+00  1.36000008e+00  1.24740147e+00
  1.15179887e+00  1.06681878e+00  9.92461204e-01  9.28726138e-01
  8.75613583e-01  8.37372543e-01  8.16127521e-01  8.18252023e-01
  8.43746050e-01  8.98983107e-01  9.81838693e-01  1.09443731e+00
  1.23252995e+00  1.39399212e+00  1.57032580e+00  1.75728200e+00
  1.94636269e+00  2.13544339e+00  2.32027508e+00  2.50085777e+00
  2.67931595e+00  2.85989864e+00  3.05110384e+00  3.26142956e+00
  3.49300030e+00  3.75006506e+00  4.03474836e+00  4.34280118e+00
  4.66572551e+00  4.98864985e+00  5.29457816e+00  5.56863895e+00
  5.79171168e+00  5.94892484e+00  6.02965593e+00  6.02965593e+00
  5.94680034e+00  5.78958718e+00  5.56863895e+00  5.29670267e+00
  4.99714786e+00  4.68697053e+00  4.38529122e+00  4.10910594e+00
  3.87541069e+00  3.69482801e+00  3.57373138e+00  3.51212082e+00
  3.50787181e+00  3.55248636e+00  3.63321744e+00  3.73094454e+00
  3.82442264e+00  3.89665571e+00  3.92214974e+00  3.88603320e+00
  3.77768359e+00  3.58860290e+00  3.31879112e+00  2.97674626e+00
  2.57096634e+00  2.12269638e+00  1.64893238e+00  1.17091939e+00
  7.09902411e-01  2.78628464e-01 -1.03781933e-01 -4.30955272e-01
 -6.96518047e-01 -9.00470259e-01 -1.04493641e+00 -1.13629000e+00
 -1.17878005e+00 -1.18302905e+00 -1.15116152e+00 -1.09379996e+00
 -1.01519338e+00 -9.21715281e-01 -8.17614673e-01 -7.07140558e-01
 -5.98790946e-01 -4.94690338e-01 -4.01212241e-01 -3.26854664e-01
 -2.75866611e-01 -2.52497087e-01 -2.60995096e-01 -3.01360637e-01
 -3.73593712e-01 -4.73445316e-01 -6.00915448e-01 -7.47506100e-01
 -9.08968267e-01 -1.08105295e+00 -1.25738663e+00 -1.43159581e+00]","[-0.87016967 -0.81523605 -0.72649713 -0.6039529  -0.45394186 -0.2828025
 -0.09898616  0.08271735  0.24751822  0.38273943  0.47781685  0.52218632
  0.51796065  0.47147836  0.38907793  0.29188768  0.19469743  0.11652266
  0.07637886  0.08060452  0.13765098  0.24329255  0.39330359  0.5750071
  0.77361327  0.97433227  1.1644871   1.33351363  1.47296051  1.58071492
  1.65888969  1.70748481  1.73495162  1.74762861  1.74974144  1.74974144
  1.74762861  1.74974144  1.75396711  1.7603056   1.77086976  1.78565958
  1.8004494   1.81735205  1.83636754  1.85749585  1.880737    1.91031664
  1.94200911  1.97792725  2.02229671  2.06877901  2.12159979  2.17864625
  2.23991836  2.30541614  2.37091392  2.43852453  2.50824797  2.57797141
  2.64980768  2.71953112  2.79136739  2.86320367  2.93292711  3.00053772
  3.06392266  3.11674345  3.15477442  3.17167707  3.16111291  3.11674345
  3.03645585  2.91391162  2.75333643  2.55684309  2.33077012  2.08568166
  1.83002904  1.57226359  1.32083664  1.07997384  0.85812653  0.65318187
  0.46936553  0.300339    0.15032796  0.01721958 -0.09898616 -0.19406358
 -0.26589985 -0.31026931 -0.31660781 -0.2828025  -0.20040207 -0.06940652
  0.11440983  0.34259563  0.61092524  0.90883449  1.21942072  1.52789413
  1.82157771  2.08568166  2.3096418   2.48923248  2.62022804  2.70262847
  2.74065944  2.7385466   2.7047413   2.64346918  2.56106875  2.4638785
  2.36034976  2.25048252  2.14272811  2.0413122   1.94834761  1.86806001
  1.80256223  1.74974144  1.70748481  1.66945384  1.62719721  1.57437642
  1.50042732  1.39478574  1.25745169  1.08631234  0.889819    0.68064868
  0.47992968  0.31090316  0.1925846   0.14821513  0.19047176  0.32569298
  0.55176596  0.8560137 ]",4.040059613531795,2.109556653993194,4.706985,0.046045000000000336
056,2,2,csm,6a.png,1,0,40,27,41,1,0,217,neu_feedback_onset,1,"[nan nan nan nan nan nan nan nan nan nan nan nan nan nan nan nan nan nan
 nan nan nan nan nan nan nan nan nan nan nan nan nan nan nan nan nan nan
 nan nan nan nan nan nan nan nan nan nan nan nan nan nan nan nan nan nan
 nan nan nan nan nan nan nan nan nan nan nan nan nan nan nan nan nan nan
 nan nan nan nan nan nan nan nan nan nan nan nan nan nan nan nan nan nan
 nan nan nan nan nan nan nan nan nan nan nan nan nan nan nan nan nan nan
 nan nan nan nan nan nan nan nan nan nan nan nan nan nan nan nan nan nan
 nan nan nan nan nan nan nan nan nan nan nan nan nan nan nan nan nan nan
 nan nan nan nan nan nan nan nan nan nan nan nan nan nan nan nan nan nan
 nan nan nan nan nan nan nan nan nan nan nan nan nan nan nan nan nan nan
 nan nan nan nan nan nan nan nan nan nan nan nan nan nan nan nan nan nan
 nan nan nan nan nan nan nan nan nan nan nan nan nan nan nan nan nan nan
 nan nan nan nan nan nan nan nan nan nan nan nan nan nan nan nan nan nan
 nan nan nan nan nan nan nan nan nan nan nan nan nan nan nan nan nan nan
 nan nan nan nan nan nan nan nan]","[nan nan nan nan nan nan nan nan nan nan nan nan nan nan nan nan nan nan
 nan nan nan nan nan nan nan nan nan nan nan nan nan nan nan nan nan nan
 nan nan nan nan nan nan nan nan nan nan nan nan nan nan nan nan nan nan
 nan nan nan nan nan nan nan nan nan nan nan nan nan nan nan nan nan nan
 nan nan nan nan nan nan nan nan nan nan nan nan nan nan nan nan nan nan
 nan nan nan nan nan nan nan nan nan nan nan nan nan nan nan nan nan nan
 nan nan nan nan nan nan nan nan nan nan nan nan nan nan nan nan nan nan
 nan nan nan nan nan nan nan nan nan nan nan nan nan nan]",,,4.94158,-0.018945000000000434
056,2,2,csp,65b.png,1,1,56,334,288,1,1,326,neg_feedback_onset,2,"[ 7.34902696e-01  7.10751436e-01  6.76537152e-01  6.32259843e-01
  5.77919510e-01  5.13516152e-01  4.37037164e-01  3.48482546e-01
  2.51877509e-01  1.47222052e-01  3.65287797e-02 -8.02023070e-02
 -2.00958604e-01 -3.21714900e-01 -4.44483802e-01 -5.65240099e-01
 -6.85996395e-01 -8.06752692e-01 -9.23483779e-01 -1.03820226e+00
 -1.14889553e+00 -1.25958880e+00 -1.36625687e+00 -1.47091232e+00
 -1.57355518e+00 -1.67217282e+00 -1.76676525e+00 -1.86135768e+00
 -1.95192491e+00 -2.03846692e+00 -2.12299633e+00 -2.20551313e+00
 -2.28601733e+00 -2.36450892e+00 -2.44098791e+00 -2.51545429e+00
 -2.59193328e+00 -2.66841227e+00 -2.75092907e+00 -2.83747108e+00
 -2.93407612e+00 -3.04074418e+00 -3.16351308e+00 -3.30439543e+00
 -3.46339122e+00 -3.64452566e+00 -3.84578616e+00 -4.06516010e+00
 -4.30264748e+00 -4.55623570e+00 -4.81988695e+00 -5.08756341e+00
 -5.35725247e+00 -5.61687851e+00 -5.86040371e+00 -6.07776504e+00
 -6.25688688e+00 -6.38368099e+00 -6.44607175e+00 -6.43198351e+00
 -6.33135327e+00 -6.14015580e+00 -5.85637850e+00 -5.49008440e+00
 -5.05133652e+00 -4.55824831e+00 -4.03295842e+00 -3.49760550e+00
 -2.97231561e+00 -2.48124001e+00 -2.03444171e+00 -1.64600895e+00
 -1.31795435e+00 -1.05430310e+00 -8.49017396e-01 -7.00084630e-01
 -5.95429173e-01 -5.31025815e-01 -4.94798926e-01 -4.76685481e-01
 -4.70647666e-01 -4.68635061e-01 -4.66622456e-01 -4.60584642e-01
 -4.52534222e-01 -4.44483802e-01 -4.36433382e-01 -4.38445987e-01
 -4.52534222e-01 -4.84735901e-01 -5.41088839e-01 -6.27630852e-01
 -7.42349334e-01 -8.89269495e-01 -1.06436613e+00 -1.26763922e+00
 -1.49305098e+00 -1.73858878e+00 -1.99620221e+00 -2.26186607e+00
 -2.52752992e+00 -2.78514335e+00 -3.03068116e+00 -3.25005510e+00
 -3.43521475e+00 -3.57408449e+00 -3.65861390e+00 -3.67672734e+00
 -3.62238701e+00 -3.49559290e+00 -3.29634501e+00 -3.03470637e+00
 -2.72476520e+00 -2.38463497e+00 -2.03242910e+00 -1.69229887e+00
 -1.38034510e+00 -1.11468125e+00 -9.01345125e-01 -7.48387149e-01
 -6.55807321e-01 -6.15555222e-01 -6.23605642e-01 -6.69895556e-01
 -7.44361939e-01 -8.38954371e-01 -9.45622433e-01 -1.06235352e+00
 -1.18109721e+00 -1.30587872e+00 -1.43468543e+00 -1.56952997e+00
 -1.70839971e+00 -1.85733247e+00 -2.01632826e+00 -2.18538708e+00
 -2.36249631e+00 -2.54564336e+00 -2.73684083e+00 -2.93206351e+00
 -3.12527359e+00 -3.31445845e+00 -3.49358029e+00 -3.65660129e+00
 -3.79345843e+00 -3.89610128e+00 -3.95647943e+00 -3.96050464e+00
 -3.90415170e+00 -3.77735759e+00 -3.58012231e+00 -3.31043324e+00
 -2.98036603e+00 -2.59595849e+00 -2.17532405e+00 -1.73456357e+00
 -1.28977788e+00 -8.61093026e-01 -4.60584642e-01 -1.00328356e-01
  2.11625410e-01  4.67226238e-01  6.68486732e-01  8.13394288e-01
  9.01948906e-01  9.42201005e-01  9.34150585e-01  8.85848066e-01
  8.03331264e-01  6.94650597e-01  5.65843880e-01  4.22948929e-01
  2.76028768e-01  1.27096002e-01 -1.57989488e-02 -1.50643480e-01
 -2.73412382e-01 -3.82093049e-01 -4.78698086e-01 -5.61214889e-01
 -6.31656062e-01 -6.88009000e-01 -7.34298914e-01 -7.72538408e-01
 -8.00714877e-01 -8.20840927e-01 -8.34929161e-01 -8.40966976e-01
 -8.38954371e-01 -8.30903951e-01 -8.14803112e-01 -7.94677062e-01
 -7.66500593e-01 -7.32286309e-01 -6.90021605e-01 -6.41719087e-01
 -5.85366148e-01 -5.18950185e-01 -4.42471197e-01 -3.53916580e-01
 -2.51273727e-01 -1.36555246e-01 -3.72331915e-03  1.43196842e-01
  3.06217842e-01  4.85339682e-01  6.80562362e-01  8.89873276e-01
  1.11327243e+00  1.34472199e+00  1.58623459e+00  1.83378500e+00
  2.08334801e+00  2.33089842e+00  2.57442362e+00  2.80788579e+00
  3.02927233e+00  3.23455804e+00  3.42374290e+00  3.59481432e+00
  3.74777230e+00  3.88664204e+00  4.00941094e+00  4.12010421e+00
  4.22073446e+00  4.31532689e+00  4.40186890e+00  4.48841092e+00
  4.56891512e+00  4.65143192e+00  4.72992351e+00  4.80841510e+00
  4.88690670e+00  4.96338568e+00  5.03583946e+00  5.10628064e+00
  5.17068399e+00  5.22904954e+00  5.27936466e+00  5.31760415e+00
  5.34779323e+00  5.36590667e+00  5.37395709e+00  5.36993188e+00
  5.35584365e+00  5.33169239e+00  5.29949071e+00  5.25722601e+00
  5.20691088e+00  5.15055794e+00  5.08816719e+00  5.01973862e+00
  4.94728484e+00  4.87080586e+00  4.79030166e+00  4.70979746e+00
  4.62728066e+00  4.54476386e+00  4.46425966e+00  4.38174286e+00]","[-3.29870117e-01 -3.39942487e-01 -3.39942487e-01 -3.31884591e-01
 -3.15768799e-01 -2.91595111e-01 -2.57349053e-01 -2.17059573e-01
 -1.68712197e-01 -1.16335873e-01 -5.59016534e-02  6.54704049e-03
  7.50391563e-02  1.45545746e-01  2.20081284e-01  2.96631296e-01
  3.77210256e-01  4.59803690e-01  5.46426071e-01  6.37077401e-01
  7.29743205e-01  8.26437957e-01  9.23132709e-01  1.02184193e+00
  1.12055116e+00  1.21724591e+00  1.30991172e+00  1.39653410e+00
  1.47509858e+00  1.54359070e+00  1.59999597e+00  1.64229992e+00
  1.66647361e+00  1.67453151e+00  1.66445914e+00  1.63424203e+00
  1.58388018e+00  1.51538806e+00  1.42675121e+00  1.32199856e+00
  1.20113012e+00  1.06616036e+00  9.17089287e-01  7.57945841e-01
  5.90744499e-01  4.15485262e-01  2.36197076e-01  5.28799424e-02
 -1.34466139e-01 -3.19797747e-01 -5.03114880e-01 -6.82403066e-01
 -8.57662304e-01 -1.02486365e+00 -1.18602156e+00 -1.33912159e+00
 -1.48416372e+00 -1.62316242e+00 -1.75611771e+00 -1.88101509e+00
 -2.00188353e+00 -2.11872302e+00 -2.22750462e+00 -2.33225727e+00
 -2.42693755e+00 -2.51154545e+00 -2.58205204e+00 -2.63644284e+00
 -2.66867443e+00 -2.67874680e+00 -2.66263100e+00 -2.62032705e+00
 -2.55384941e+00 -2.46319808e+00 -2.35441648e+00 -2.23153357e+00
 -2.10059276e+00 -1.96562300e+00 -1.83266772e+00 -1.70777033e+00
 -1.59294531e+00 -1.49222161e+00 -1.40962818e+00 -1.34717948e+00
 -1.31293343e+00 -1.31293343e+00 -1.35725185e+00 -1.45394661e+00
 -1.61510453e+00 -1.85079798e+00 -2.16505593e+00 -2.55989283e+00
 -3.03530869e+00 -3.57720220e+00 -4.16945755e+00 -4.78991554e+00
 -5.41238801e+00 -6.00867231e+00 -6.55258029e+00 -7.02799615e+00
 -7.41880411e+00 -7.72097521e+00 -7.93249498e+00 -8.06343579e+00
 -8.12387001e+00 -8.12387001e+00 -8.07753710e+00 -7.99897262e+00
 -7.89421997e+00 -7.77133706e+00 -7.64039625e+00 -7.50139754e+00
 -7.35836989e+00 -7.21332776e+00 -7.06627116e+00 -6.91921456e+00
 -6.77215795e+00 -6.62308688e+00 -6.47603028e+00 -6.32897368e+00
 -6.17990260e+00 -6.03083152e+00 -5.88176045e+00 -5.73268937e+00
 -5.58160382e+00 -5.42850380e+00 -5.27540378e+00 -5.12028928e+00
 -4.96316031e+00 -4.80804581e+00 -4.65494579e+00 -4.50788918e+00
 -4.36889048e+00 -4.23996414e+00 -4.12916807e+00 -4.03650227e+00
 -3.96801015e+00 -3.92369173e+00 -3.90556146e+00 -3.90959041e+00]",4.889660787618101,0.817926804087382,4.968685000000001,-0.11880999999999986
056,2,2,csm,21a.png,1,0,300,211,NaN,0,1,422,neu_feedback_onset,3,"[-3.80102666e-01 -3.10415469e-01 -2.38678649e-01 -1.68991452e-01
 -1.03403502e-01 -4.19147992e-02  1.34250335e-02  6.05663724e-02
  9.95092177e-02  1.30253569e-01  1.48700180e-01  1.58948297e-01
  1.60997921e-01  1.52799427e-01  1.36402439e-01  1.11806958e-01
  7.90129833e-02  4.21197615e-02 -9.22330545e-04 -5.01132929e-02
 -1.05453126e-01 -1.66941829e-01 -2.34579402e-01 -3.10415469e-01
 -3.94450030e-01 -4.86683084e-01 -5.89164256e-01 -6.97794298e-01
 -8.14622833e-01 -9.35550616e-01 -1.06057765e+00 -1.18355505e+00
 -1.30653246e+00 -1.42131137e+00 -1.52789179e+00 -1.62627371e+00
 -1.71030827e+00 -1.78409472e+00 -1.84353380e+00 -1.88657589e+00
 -1.91732024e+00 -1.93371723e+00 -1.93781647e+00 -1.92961798e+00
 -1.90912175e+00 -1.88042702e+00 -1.84148417e+00 -1.79434283e+00
 -1.74105263e+00 -1.68366317e+00 -1.62012484e+00 -1.55248727e+00
 -1.48075045e+00 -1.40491438e+00 -1.32292944e+00 -1.23274601e+00
 -1.13231447e+00 -1.01753555e+00 -8.88409277e-01 -7.40836390e-01
 -5.72767268e-01 -3.86251536e-01 -1.81289193e-01  3.39212678e-02
  2.55280599e-01  4.72540682e-01  6.75453402e-01  8.51721018e-01
  9.93145034e-01  1.08947734e+00  1.13661867e+00  1.13456905e+00
  1.07922922e+00  9.74698424e-01  8.29175160e-01  6.44709051e-01
  4.33597837e-01  1.97891142e-01 -5.21629164e-02 -3.10415469e-01
 -5.68668021e-01 -8.24870951e-01 -1.06877614e+00 -1.29628434e+00
 -1.49714744e+00 -1.66726618e+00 -1.79844208e+00 -1.88862551e+00
 -1.93781647e+00 -1.94806459e+00 -1.92551873e+00 -1.88042702e+00
 -1.82508719e+00 -1.77384660e+00 -1.73285413e+00 -1.71645714e+00
 -1.72465564e+00 -1.75539999e+00 -1.80459095e+00 -1.86198041e+00
 -1.91732024e+00 -1.95831271e+00 -1.97470970e+00 -1.95831271e+00
 -1.91117137e+00 -1.83123606e+00 -1.72465564e+00 -1.59962861e+00
 -1.46435346e+00 -1.32907832e+00 -1.19995204e+00 -1.08517313e+00
 -9.86791202e-01 -9.08905511e-01 -8.49466432e-01 -8.08473963e-01
 -7.81828858e-01 -7.69531118e-01 -7.67481494e-01 -7.75679988e-01
 -7.92076976e-01 -8.16672457e-01 -8.49466432e-01 -8.90458900e-01
 -9.39649863e-01 -9.94989696e-01 -1.05852802e+00 -1.12821522e+00
 -1.19995204e+00 -1.27373848e+00 -1.34547530e+00 -1.41311288e+00
 -1.47255196e+00 -1.52174292e+00 -1.55658652e+00 -1.57298350e+00
 -1.57298350e+00 -1.55248727e+00 -1.51559405e+00 -1.46640309e+00
 -1.41106325e+00 -1.35777304e+00 -1.31063170e+00 -1.27988735e+00
 -1.26553999e+00 -1.27168886e+00 -1.29833396e+00 -1.33932643e+00
 -1.39261664e+00 -1.44795647e+00 -1.50329631e+00 -1.55043765e+00
 -1.58938049e+00 -1.61807522e+00 -1.63652183e+00 -1.64472032e+00
 -1.64472032e+00 -1.64062108e+00 -1.63447221e+00 -1.62422409e+00
 -1.61397597e+00 -1.60167823e+00 -1.58938049e+00 -1.57503313e+00
 -1.56068576e+00 -1.54838802e+00 -1.53813991e+00 -1.53199103e+00
 -1.53199103e+00 -1.54223915e+00 -1.56273539e+00 -1.59552936e+00
 -1.63857145e+00 -1.69186166e+00 -1.75335037e+00 -1.82303756e+00
 -1.89682401e+00 -1.97470970e+00 -2.05054576e+00 -2.12638183e+00
 -2.19606903e+00 -2.26165698e+00 -2.31904643e+00 -2.37028702e+00
 -2.41742836e+00 -2.45637120e+00 -2.48916518e+00 -2.51990953e+00
 -2.54450501e+00 -2.56500125e+00 -2.57934861e+00 -2.58959673e+00
 -2.59574560e+00 -2.59369597e+00 -2.58344786e+00 -2.56295162e+00
 -2.53220727e+00 -2.48506593e+00 -2.42152760e+00 -2.34159229e+00
 -2.23911112e+00 -2.11818334e+00 -1.97675932e+00 -1.81893832e+00
 -1.64881957e+00 -1.47255196e+00 -1.29218509e+00 -1.11591748e+00
 -9.45798733e-01 -7.87977729e-01 -6.38355218e-01 -5.01030448e-01
 -3.71904172e-01 -2.48926766e-01 -1.27998983e-01 -1.11704477e-02
  1.07707711e-01  2.26585871e-01  3.47513653e-01  4.70491059e-01
  5.93468465e-01  7.16445871e-01  8.37373654e-01  9.56251813e-01
  1.07103072e+00  1.17966077e+00  1.28419156e+00  1.37847424e+00
  1.46660805e+00  1.54449374e+00  1.61418093e+00  1.67157039e+00
  1.71871173e+00  1.75560495e+00  1.78020043e+00  1.79454780e+00
  1.79659742e+00  1.78634930e+00  1.76585307e+00  1.73510872e+00
  1.69206663e+00  1.64082604e+00  1.58343658e+00  1.51784863e+00
  1.44816144e+00  1.37642462e+00  1.30673742e+00  1.23705022e+00
  1.17556152e+00  1.11817206e+00  1.07103072e+00  1.03208788e+00
  1.00134353e+00  9.78797670e-01  9.64450306e-01  9.54202189e-01
  9.48053319e-01  9.41904449e-01  9.33705955e-01  9.19358591e-01]","[nan nan nan nan nan nan nan nan nan nan nan nan nan nan nan nan nan nan
 nan nan nan nan nan nan nan nan nan nan nan nan nan nan nan nan nan nan
 nan nan nan nan nan nan nan nan nan nan nan nan nan nan nan nan nan nan
 nan nan nan nan nan nan nan nan nan nan nan nan nan nan nan nan nan nan
 nan nan nan nan nan nan nan nan nan nan nan nan nan nan nan nan nan nan
 nan nan nan nan nan nan nan nan nan nan nan nan nan nan nan nan nan nan
 nan nan nan nan nan nan nan nan nan nan nan nan nan nan nan nan nan nan
 nan nan nan nan nan nan nan nan nan nan nan nan nan nan]",1.2424304844592453,,4.878945,
056,2,2,csp,4b.png,1,0,324,NaN,NaN,0,1,217,neg_feedback_onset,4,"[ 0.37809312  0.36025328  0.3357235   0.30673376  0.27105408  0.22868446
  0.18408486  0.13725527  0.08596573  0.03244621 -0.01884333 -0.07236285
 -0.1236524  -0.17271196 -0.21954154 -0.26414114 -0.30428078 -0.34442042
 -0.38233008 -0.41800977 -0.45591943 -0.49828905 -0.54065867 -0.58971823
 -0.64323775 -0.70344721 -0.77034662 -0.84170598 -0.91975528 -1.00449452
 -1.09369373 -1.18512291 -1.28324203 -1.38359114 -1.48394024 -1.58651932
 -1.68909841 -1.79167749 -1.88756663 -1.97899582 -2.06373506 -2.1373244
 -2.19976385 -2.24882341 -2.28673307 -2.31126285 -2.32241275 -2.32241275
 -2.31126285 -2.29342301 -2.26666325 -2.23544353 -2.19976385 -2.15739422
 -2.10833466 -2.05481514 -1.99014572 -1.91655638 -1.83181713 -1.73146803
 -1.61996903 -1.49286016 -1.35237142 -1.19850279 -1.03348427 -0.85954582
 -0.67668745 -0.48490917 -0.2909009  -0.09243267  0.11049551  0.31565368
  0.52081185  0.72819999  0.93335816  1.13851633  1.34144451  1.53768276
  1.72946105  1.91231941  2.08402788  2.24235646  2.38730517  2.51887399
  2.63483296  2.73964202  2.8310712   2.91358047  2.99162977  3.06521911
  3.13657847  3.2123978   3.29490706  3.38633624  3.49114531  3.60933425
  3.74090308  3.88585178  4.03972041  4.20250895  4.36752748  4.52808604
  4.67749471  4.80906353  4.92056253  5.00530178  5.06551124  5.09896094
  5.10788086  5.092271    5.06105128  5.0142217   4.95624222  4.89157279
  4.82467339  4.75554401  4.68864461  4.62397518  4.56153574  4.50578624
  4.4544967   4.40543714  4.36306752  4.32292787  4.28724819  4.25825845
  4.23372867  4.21365885  4.20473893  4.20250895  4.20919889  4.22703873
  4.25602847  4.29393813  4.34076772  4.39651722  4.45672668  4.52585606
  4.59721542  4.67080477  4.74662409  4.82467339  4.90049271  4.97408206
  5.0476714   5.12126074  5.19485008  5.27512937  5.36209859  5.46690765
  5.59401652  5.7523451   5.94858335  6.18719122  6.47039869  6.79820576
  7.16615247  7.56308892  7.97786522  8.39264151  8.79626791  9.17090456
  9.49871163  9.77299918  9.98484729 10.12533603 10.19892537 10.20784529
 10.15209579 10.04282677  9.88672816  9.69494988  9.47418185  9.23780396
  8.99696611  8.76058822  8.54205018  8.34804191  8.18971332  8.07152438
  7.99793504  7.96448534  7.97117528  8.00685496  8.06260446  8.12950386
  8.19417329  8.24546283  8.27222259  8.27222259  8.24323285  8.1807934
  8.0915942   7.98232518  7.85967627  7.73033743  7.60545855  7.49172956
  7.39584042  7.32225108  7.27319151  7.25089171  7.25758165  7.29103135
  7.35124082  7.4315201   7.5318692   7.64782817  7.77270705  7.90427588
  8.04030466  8.17410346  8.30567229  8.42832119  8.54651014  8.65354918
  8.74943832  8.83417757  8.90776691  8.96797637  9.01480595  9.04825565
  9.06832547  9.07724539  9.07501541  9.06609549  9.05494559  9.04379569
  9.03710575  9.04379569  9.06386551  9.10400516  9.1664446   9.24895386
  9.35376292  9.47641183  9.61021063  9.75069938  9.88672816 10.00937707
 10.11195615 10.18331551 10.21453523 10.20338533 10.14094589 10.02944689
  9.86442836  9.65258025  9.39390257  9.0995452   8.7739681   8.42832119
  8.07152438  7.71249759  7.35570078  7.01451383  6.69116671  6.3901194
  6.11360187  5.86161413]","[nan nan nan nan nan nan nan nan nan nan nan nan nan nan nan nan nan nan
 nan nan nan nan nan nan nan nan nan nan nan nan nan nan nan nan nan nan
 nan nan nan nan nan nan nan nan nan nan nan nan nan nan nan nan nan nan
 nan nan nan nan nan nan nan nan nan nan nan nan nan nan nan nan nan nan
 nan nan nan nan nan nan nan nan nan nan nan nan nan nan nan nan nan nan
 nan nan nan nan nan nan nan nan nan nan nan nan nan nan nan nan nan nan
 nan nan nan nan nan nan nan nan nan nan nan nan nan nan nan nan nan nan
 nan nan nan nan nan nan nan nan nan nan nan nan nan nan]",8.906417184320368,,4.484344999999999,
056,2,2,csp,54b.png,1,1,268,120,266,1,1,435,pos_feedback_onset,5,"[nan nan nan nan nan nan nan nan nan nan nan nan nan nan nan nan nan nan
 nan nan nan nan nan nan nan nan nan nan nan nan nan nan nan nan nan nan
 nan nan nan nan nan nan nan nan nan nan nan nan nan nan nan nan nan nan
 nan nan nan nan nan nan nan nan nan nan nan nan nan nan nan nan nan nan
 nan nan nan nan nan nan nan nan nan nan nan nan nan nan nan nan nan nan
 nan nan nan nan nan nan nan nan nan nan nan nan nan nan nan nan nan nan
 nan nan nan nan nan nan nan nan nan nan nan nan nan nan nan nan nan nan
 nan nan nan nan nan nan nan nan nan nan nan nan nan nan nan nan nan nan
 nan nan nan nan nan nan nan nan nan nan nan nan nan nan nan nan nan nan
 nan nan nan nan nan nan nan nan nan nan nan nan nan nan nan nan nan nan
 nan nan nan nan nan nan nan nan nan nan nan nan nan nan nan nan nan nan
 nan nan nan nan nan nan nan nan nan nan nan nan nan nan nan nan nan nan
 nan nan nan nan nan nan nan nan nan nan nan nan nan nan nan nan nan nan
 nan nan nan nan nan nan nan nan nan nan nan nan nan nan nan nan nan nan
 nan nan nan nan nan nan nan nan]","[nan nan nan nan nan nan nan nan nan nan nan nan nan nan nan nan nan nan
 nan nan nan nan nan nan nan nan nan nan nan nan nan nan nan nan nan nan
 nan nan nan nan nan nan nan nan nan nan nan nan nan nan nan nan nan nan
 nan nan nan nan nan nan nan nan nan nan nan nan nan nan nan nan nan nan
 nan nan nan nan nan nan nan nan nan nan nan nan nan nan nan nan nan nan
 nan nan nan nan nan nan nan nan nan nan nan nan nan nan nan nan nan nan
 nan nan nan nan nan nan nan nan nan nan nan nan nan nan nan nan nan nan
 nan nan nan nan nan nan nan nan nan nan nan nan nan nan]",,,4.792505,-0.40127000000000024
056,2,2,csm,17a.png,1,0,148,NaN,146,1,1,550,neu_feedback_onset,6,"[ 0.40711866  0.39384666  0.37172665  0.33854665  0.29873064  0.25227864
  0.20140263  0.14610262  0.09080261  0.0332906  -0.0264334  -0.08394541
 -0.14145742 -0.19675743 -0.24984544 -0.29629744 -0.33832545 -0.37592945
 -0.40247346 -0.42238146 -0.43344146 -0.43786546 -0.43565346 -0.43122946
 -0.42459346 -0.42016946 -0.42016946 -0.42901746 -0.44892547 -0.47768147
 -0.51970948 -0.57058548 -0.62588549 -0.6856095  -0.74533351 -0.79620952
 -0.83381352 -0.85814553 -0.85814553 -0.83602552 -0.78957352 -0.7165775
 -0.62146149 -0.50643747 -0.37150545 -0.22551343 -0.07067341  0.08859061
  0.25006664  0.40711866  0.55753468  0.7035267   0.83845872  0.96454274
  1.08177876  1.19016677  1.29191879  1.3870348   1.47993882  1.57063083
  1.66132284  1.75643886  1.85597887  1.95994289  2.0727549   2.19220292
  2.31386294  2.44215896  2.57045498  2.69653899  2.81598701  2.92879903
  3.03055104  3.11681906  3.18539107  3.23405507  3.26502308  3.27608308
  3.27165908  3.25617508  3.23405507  3.20972307  3.18539107  3.16769506
  3.16105906  3.16548306  3.18096706  3.20751107  3.24290307  3.28271908
  3.32474709  3.36677509  3.4043791   3.4375591   3.46189111  3.48179911
  3.49507111  3.50170711  3.50613111  3.50834311  3.51055511  3.51055511
  3.51055511  3.51276711  3.51497911  3.51940311  3.52603911  3.53488712
  3.54815912  3.56585512  3.59018712  3.62115513  3.65654713  3.70078714
  3.74945115  3.80032715  3.85562716  3.90871517  3.95959118  4.00383118
  4.04143519  4.07240319  4.0945232   4.1100072   4.1188552   4.1232792
  4.1254912   4.1321272   4.1409752   4.15645921  4.18079121  4.21175921
  4.25378722  4.30466323  4.36438724  4.43074725  4.50374326  4.58116327
  4.66521928  4.75369929  4.84660331  4.94393132  5.05010734  5.16291935
  5.28457937  5.41729939  5.56107941  5.72034344  5.89287946  6.08311149
  6.28882752  6.51223955  6.74892359  7.00109162  7.26210766  7.5275477
  7.79077574  8.04515577  8.27962781  8.48755584  8.66230386  8.79723588
  8.8901399   8.94101591  8.95207591  8.9343799   8.8989879   8.85474789
  8.82156789  8.81050789  8.83705189  8.9056239   9.02728392  9.19318394
  9.40111197  9.63558401  9.87448004 10.09789207 10.2792761  10.40093612
 10.44075212 10.38545212 10.23061209  9.97844406  9.63779601  9.22415195
  8.76184388  8.27077981  7.77750374  7.30413567  6.8661596   6.47684755
  6.1450475   5.86854746  5.64292342  5.4593274   5.30669937  5.17619136
  5.05453134  4.93065932  4.8023633   4.66300728  4.51480326  4.35775124
  4.20069921  4.05028319  3.91756317  3.80917516  3.74060315  3.71627114
  3.74945115  3.84235516  3.99940718  4.21618322  4.48825926  4.8023633
  5.14743535  5.5013554   5.84863945  6.1649555   6.43481954  6.64053557
  6.77104359  6.8219196   6.78873959  6.68035158  6.50339155  6.27555552
  6.00790348  5.72255544  5.43278339  5.15407135  4.90190332  4.68291528
  4.50595526  4.37544724  4.29360323  4.25599922  4.26263522  4.30687523
  4.38208324  4.47941125  4.59664727  4.72494329  4.85323931  4.98153533
  5.10319535  5.21158336  5.30669937  5.38411939  5.44163139  5.4792354
  5.4969314   5.4969314   5.4770234   5.44384339  5.39517939  5.33766738
  5.27130737  5.19831136]","[nan nan nan nan nan nan nan nan nan nan nan nan nan nan nan nan nan nan
 nan nan nan nan nan nan nan nan nan nan nan nan nan nan nan nan nan nan
 nan nan nan nan nan nan nan nan nan nan nan nan nan nan nan nan nan nan
 nan nan nan nan nan nan nan nan nan nan nan nan nan nan nan nan nan nan
 nan nan nan nan nan nan nan nan nan nan nan nan nan nan nan nan nan nan
 nan nan nan nan nan nan nan nan nan nan nan nan nan nan nan nan nan nan
 nan nan nan nan nan nan nan nan nan nan nan nan nan nan nan nan nan nan
 nan nan nan nan nan nan nan nan nan nan nan nan nan nan]",8.32884481601133,,4.520795000000001,-0.20646500000000145
056,2,2,csp,36b.png,1,1,264,269,263,1,1,441,pos_feedback_onset,7,"[ 2.07280377e-01  3.11307903e-01  3.88775209e-01  4.37468944e-01
  4.55175757e-01  4.41895647e-01  3.99841967e-01  3.29014715e-01
  2.36053948e-01  1.25386368e-01  1.43867854e-03 -1.26935714e-01
 -2.50883404e-01 -3.63764336e-01 -4.54511751e-01 -5.12058893e-01
 -5.27552354e-01 -4.87712025e-01 -3.88111203e-01 -2.22109833e-01
  1.47187881e-02  3.13521254e-01  6.65444159e-01  1.05942074e+00
  1.47774420e+00  1.90049435e+00  2.30775105e+00  2.68623417e+00
  3.02487697e+00  3.31039932e+00  3.54280124e+00  3.72208272e+00
  3.85045711e+00  3.93235112e+00  3.97440480e+00  3.98104486e+00
  3.96112469e+00  3.91907101e+00  3.85488382e+00  3.77741651e+00
  3.68666909e+00  3.58706827e+00  3.47861404e+00  3.36351976e+00
  3.24621213e+00  3.12447779e+00  3.00495680e+00  2.88543581e+00
  2.76812818e+00  2.65746060e+00  2.55343307e+00  2.45383225e+00
  2.36308484e+00  2.28119083e+00  2.20815022e+00  2.14396303e+00
  2.08862924e+00  2.04436221e+00  2.00894858e+00  1.98681506e+00
  1.97574831e+00  1.97796166e+00  1.99124177e+00  2.02001534e+00
  2.06206902e+00  2.11297611e+00  2.17716330e+00  2.24799055e+00
  2.32545786e+00  2.40735187e+00  2.48924588e+00  2.56671318e+00
  2.64196714e+00  2.70836769e+00  2.76591483e+00  2.81460856e+00
  2.85002219e+00  2.87658241e+00  2.89428922e+00  2.90092928e+00
  2.89871592e+00  2.89207587e+00  2.87879576e+00  2.86108895e+00
  2.84116878e+00  2.81903527e+00  2.79247505e+00  2.76591483e+00
  2.73492791e+00  2.70172763e+00  2.66631401e+00  2.62647368e+00
  2.58220665e+00  2.53351291e+00  2.48481917e+00  2.43833879e+00
  2.39849846e+00  2.37193824e+00  2.36972489e+00  2.39849846e+00
  2.46932571e+00  2.58884670e+00  2.76591483e+00  3.00053010e+00
  3.29047916e+00  3.62912195e+00  4.00539172e+00  4.40600836e+00
  4.81547841e+00  5.21609505e+00  5.59457817e+00  5.93986102e+00
  6.24087684e+00  6.49762563e+00  6.70346733e+00  6.86504199e+00
  6.98013628e+00  7.05760358e+00  7.09744391e+00  7.10629732e+00
  7.08416380e+00  7.03547007e+00  6.96021611e+00  6.86282864e+00
  6.73888095e+00  6.59501310e+00  6.43122508e+00  6.25194360e+00
  6.06159536e+00  5.86460707e+00  5.66761878e+00  5.47948389e+00
  5.30684247e+00  5.15412121e+00  5.03017352e+00  4.93278605e+00
  4.86638550e+00  4.82875852e+00  4.81769176e+00  4.83097187e+00
  4.85974544e+00  4.90401247e+00  4.95934626e+00  5.01910676e+00
  5.08108060e+00  5.14305445e+00  5.20502829e+00  5.26921549e+00
  5.33782939e+00  5.41751005e+00  5.51932422e+00  5.65655202e+00
  5.84247355e+00  6.09036893e+00  6.42015832e+00  6.83626842e+00
  7.34533929e+00  7.94073087e+00  8.61358976e+00  9.33735573e+00
  1.00854686e+01  1.08203013e+01  1.15086537e+01  1.21217520e+01
  1.26330363e+01  1.30314396e+01  1.33169619e+01  1.35028834e+01
  1.36113377e+01  1.36755249e+01  1.37308587e+01  1.38105393e+01
  1.39411271e+01  1.41381154e+01  1.44037175e+01  1.47246535e+01
  1.50787898e+01  1.54329260e+01  1.57538620e+01  1.59995440e+01
  1.61434119e+01  1.61566920e+01  1.60283176e+01  1.57560754e+01
  1.53443920e+01  1.48109742e+01  1.41779557e+01  1.34718965e+01
  1.27237837e+01  1.19601774e+01  1.12032111e+01  1.04705918e+01
  9.77338600e+00  9.12266063e+00  8.51398894e+00  7.94294422e+00
  7.40288643e+00  6.88274881e+00  6.37810464e+00  5.87788718e+00
  5.38209642e+00  4.89073236e+00  4.41043507e+00  3.94563123e+00
  3.50517426e+00  3.09791757e+00  2.72607450e+00  2.38964506e+00
  2.08420253e+00  1.79868018e+00  1.51758453e+00  1.22099541e+00
  8.97846077e-01  5.28216360e-01  1.05466204e-01 -3.72617742e-01
 -9.01608775e-01 -1.46822678e+00 -2.05476496e+00 -2.64130313e+00
 -3.20128109e+00 -3.71035196e+00 -4.15080892e+00 -4.50273183e+00
 -4.75062721e+00 -4.88785501e+00 -4.90998852e+00 -4.82366781e+00
 -4.63553293e+00 -4.35665062e+00 -4.00915442e+00 -3.60853778e+00
 -3.17914757e+00 -2.74311731e+00 -2.32036715e+00 -1.93081727e+00
 -1.58996112e+00 -1.30886547e+00 -1.09417036e+00 -9.43662455e-01
 -8.57341743e-01 -8.28568172e-01 -8.44061633e-01 -8.94968720e-01
 -9.72436026e-01 -1.06539679e+00 -1.16278426e+00 -1.26238509e+00
 -1.35977256e+00 -1.44830662e+00 -1.53241398e+00 -1.60766794e+00
 -1.67628183e+00 -1.74046903e+00 -1.79801617e+00 -1.85113661e+00
 -1.89983035e+00 -1.94631073e+00 -1.98836441e+00 -2.02377804e+00]","[-1.13506024 -1.0555125  -0.967365   -0.86846781 -0.76312081 -0.64917405
 -0.52877747 -0.39978114 -0.26648493 -0.12888884  0.01300713  0.15705304
  0.30324888  0.44944472  0.59779051  0.74613629  0.89663201  1.04712774
  1.1997734   1.35241906  1.50721466  1.6641602   1.82110574  1.98235115
  2.14144663  2.30269205  2.45748765  2.60798337  2.7477294   2.87242585
  2.97562292  3.05302072  3.10246931  3.11751888  3.09816943  3.04227102
  2.94767371  2.82297726  2.66388178  2.48113697  2.2725929   2.04469938
  1.79960635  1.54161368  1.26857144  0.98692945  0.69453776  0.40214607
  0.11190432 -0.16328786 -0.40838089 -0.60402533 -0.73302166 -0.77602044
 -0.71367221 -0.53522729 -0.2428356   0.16135291  0.66013874  1.22127279
  1.81680586  2.41018899  2.96272328  3.44645953  3.83989835  4.12799016
  4.30643509  4.37953301  4.35588368  4.25268662  4.08499138  3.86569762
  3.60985489  3.32606296  3.02722145  2.71548031  2.39728936  2.07479852
  1.75015775  1.42336704  1.09657633  0.76978562  0.44084497  0.10975438
 -0.22348615 -0.56102655 -0.90501677 -1.25975669 -1.62739624 -2.01008536
 -2.41642381 -2.84641159 -3.30434857 -3.78808482 -4.2954704  -4.82220543
 -5.35539027 -5.8821253  -6.39381076 -6.87324713 -7.30753478 -7.69022391
 -8.01701462 -8.28360704 -8.49215111 -8.65124659 -8.76304341 -8.83829127
 -8.88129005 -8.89848956 -8.89203974 -8.86409054 -8.81464194 -8.7458439
 -8.65554647 -8.54374964 -8.41045343 -8.25995771 -8.09441242 -7.91811743
 -7.73322268 -7.54832794 -7.36558313 -7.18713821 -7.01729303 -6.85604762
 -6.70340196 -6.55935605 -6.42175996 -6.29061369 -6.16591723 -6.04552066
 -5.9315739  -5.82192701 -5.71658001 -5.61768282 -5.52523545 -5.44138783
 -5.36399003 -5.29734192]",12.419005164855955,1.582032530725313,4.518035,-0.007645000000001012
056,2,2,csp,57b.png,1,1,260,289,260,1,1,187,pos_feedback_onset,8,"[ 6.42058998e-01  5.24945232e-01  4.00942421e-01  2.72346914e-01
  1.43751407e-01  1.74522474e-02 -1.01957867e-01 -2.12182587e-01
 -3.04036521e-01 -3.72926972e-01 -4.14261242e-01 -4.23446635e-01
 -4.00483152e-01 -3.40778095e-01 -2.51220509e-01 -1.34106743e-01
  5.97050570e-03  1.57529497e-01  3.15977533e-01  4.74425568e-01
  6.25984559e-01  7.70654505e-01  9.08435406e-01  1.03703091e+00
  1.16103372e+00  1.28503653e+00  1.40903935e+00  1.53763485e+00
  1.66623036e+00  1.79712222e+00  1.92571772e+00  2.05201688e+00
  2.16913065e+00  2.27476267e+00  2.36891295e+00  2.44469245e+00
  2.50669386e+00  2.55491717e+00  2.58936240e+00  2.61232588e+00
  2.62840032e+00  2.63988206e+00  2.64906745e+00  2.65825285e+00
  2.66973459e+00  2.68580903e+00  2.70417981e+00  2.72943965e+00
  2.76158852e+00  2.79833010e+00  2.84196071e+00  2.89248038e+00
  2.94988909e+00  3.01189049e+00  3.07848459e+00  3.14737504e+00
  3.21856184e+00  3.28745229e+00  3.35175005e+00  3.40915876e+00
  3.45967842e+00  3.49871634e+00  3.52627252e+00  3.54234696e+00
  3.54693966e+00  3.53775426e+00  3.51938348e+00  3.49182730e+00
  3.45738207e+00  3.41834415e+00  3.37930623e+00  3.33797196e+00
  3.30123038e+00  3.27367420e+00  3.25759976e+00  3.25759976e+00
  3.28056325e+00  3.32878656e+00  3.40456606e+00  3.51019808e+00
  3.64568264e+00  3.80642702e+00  3.98783854e+00  4.18073180e+00
  4.37821776e+00  4.56881467e+00  4.74333715e+00  4.89719248e+00
  5.02349164e+00  5.12223462e+00  5.19342142e+00  5.24164474e+00
  5.26920092e+00  5.28297901e+00  5.28757170e+00  5.28757170e+00
  5.28986805e+00  5.29446075e+00  5.30364614e+00  5.31972058e+00
  5.34038772e+00  5.36564755e+00  5.39550008e+00  5.42764895e+00
  5.46209418e+00  5.49883575e+00  5.53557732e+00  5.57461525e+00
  5.61594952e+00  5.65728379e+00  5.70091441e+00  5.74454502e+00
  5.79506469e+00  5.84788070e+00  5.90758576e+00  5.97647621e+00
  6.05684840e+00  6.14870233e+00  6.25663071e+00  6.38063352e+00
  6.51841442e+00  6.67226976e+00  6.83760684e+00  7.00753662e+00
  7.17976274e+00  7.34280347e+00  7.48976977e+00  7.61836528e+00
  7.71940460e+00  7.79288775e+00  7.83651837e+00  7.85029646e+00
  7.83881472e+00  7.80207314e+00  7.74466443e+00  7.67347764e+00
  7.59080910e+00  7.49895516e+00  7.40480488e+00  7.31065460e+00
  7.22109701e+00  7.13842847e+00  7.06494532e+00  7.00524027e+00
  6.96160965e+00  6.93634982e+00  6.93175712e+00  6.94323886e+00
  6.97309139e+00  7.01672201e+00  7.06724167e+00  7.12694673e+00
  7.18665179e+00  7.24635684e+00  7.30376555e+00  7.36117426e+00
  7.41858297e+00  7.47599168e+00  7.54028943e+00  7.60688353e+00
  7.68266303e+00  7.76073887e+00  7.84111107e+00  7.91918691e+00
  7.99267006e+00  8.05237511e+00  8.09600573e+00  8.11667287e+00
  8.10978382e+00  8.07533860e+00  8.01104084e+00  7.91918691e+00
  7.80207314e+00  7.66658859e+00  7.52191864e+00  7.37495235e+00
  7.23257875e+00  7.10857594e+00  7.00294392e+00  6.92257173e+00
  6.86516302e+00  6.82612510e+00  6.79856892e+00  6.76642004e+00
  6.71819672e+00  6.63323183e+00  6.50233998e+00  6.31174307e+00
  6.05225570e+00  5.72387789e+00  5.32890597e+00  4.88341439e+00
  4.39658854e+00  3.89139191e+00  3.38849162e+00  2.90396212e+00
  2.45617419e+00  2.05890593e+00  1.72363907e+00  1.45496631e+00
  1.25977670e+00  1.14036659e+00  1.09903232e+00  1.14036659e+00
  1.26436940e+00  1.47333710e+00  1.76956604e+00  2.14846351e+00
  2.60543683e+00  3.13130061e+00  3.71227674e+00  4.33229079e+00
  4.97526833e+00  5.62054221e+00  6.24974166e+00  6.84219953e+00
  7.38184140e+00  7.85259281e+00  8.24067568e+00  8.53231192e+00
  8.72290883e+00  8.80787372e+00  8.78950293e+00  8.67468552e+00
  8.47949591e+00  8.21771219e+00  7.91229786e+00  7.58162370e+00
  7.24865319e+00  6.92716442e+00  6.63323183e+00  6.36685543e+00
  6.13262790e+00  5.92366020e+00  5.72847059e+00  5.53787367e+00
  5.34038772e+00  5.12912367e+00  4.90178518e+00  4.66296495e+00
  4.42414473e+00  4.19910259e+00  4.00850567e+00  3.87302112e+00
  3.80413067e+00  3.81790876e+00  3.91435539e+00  4.09117421e+00
  4.32999444e+00  4.61474164e+00  4.91556327e+00  5.20490316e+00
  5.45520513e+00  5.64350570e+00  5.74913772e+00  5.76521216e+00
  5.68254362e+00  5.50572480e+00  5.24623743e+00  4.91556327e+00]","[nan nan nan nan nan nan nan nan nan nan nan nan nan nan nan nan nan nan
 nan nan nan nan nan nan nan nan nan nan nan nan nan nan nan nan nan nan
 nan nan nan nan nan nan nan nan nan nan nan nan nan nan nan nan nan nan
 nan nan nan nan nan nan nan nan nan nan nan nan nan nan nan nan nan nan
 nan nan nan nan nan nan nan nan nan nan nan nan nan nan nan nan nan nan
 nan nan nan nan nan nan nan nan nan nan nan nan nan nan nan nan nan nan
 nan nan nan nan nan nan nan nan nan nan nan nan nan nan nan nan nan nan
 nan nan nan nan nan nan nan nan nan nan nan nan nan nan]",5.541375604513711,,4.35474,0.03640500000000024
056,2,2,csm,53a.png,1,1,320,3,318,1,1,307,neu_feedback_onset,9,"[-1.96403991 -1.50985234 -1.07923109 -0.68931534 -0.34867466 -0.06373623
  0.16549995  0.34117628  0.46757754  0.55327331  0.59826359  0.61540274
  0.60254838  0.57041246  0.51685261  0.4461536   0.36045783  0.2597653
  0.14407601  0.01338996 -0.13229284 -0.29511481 -0.47293353 -0.66360661
 -0.86713407 -1.07923109 -1.29561291 -1.50985234 -1.71552218 -1.90833766
 -2.0818716  -2.2296968  -2.34967087 -2.43536664 -2.4889265  -2.50820805
 -2.49321129 -2.44822101 -2.37537961 -2.28111426 -2.17185215 -2.04973568
 -1.92547682 -1.80550274 -1.69195585 -1.59340571 -1.51199473 -1.4477229
 -1.40487502 -1.37916629 -1.37059671 -1.3748815  -1.38987826 -1.40701741
 -1.42629896 -1.44129572 -1.4498653  -1.4477229  -1.43272614 -1.40059023
 -1.34917277 -1.27633136 -1.18206602 -1.06209194 -0.92069392 -0.75787196
 -0.57576845 -0.37866818 -0.17085594  0.03909869  0.24691094  0.44829599
  0.63468429  0.80179104  0.94747385  1.06959032  1.16599806  1.23669707
  1.28382974  1.30953847  1.31810805  1.30953847  1.28811453  1.25812101
  1.21741552  1.17028285  1.11672299  1.05459356  0.98389455  0.90034118
  0.80179104  0.68181696  0.53399176  0.35403065  0.13336404 -0.13229284
 -0.44936719 -0.8157166  -1.23134109 -1.69409824 -2.1932761  -2.72244747
 -3.26233082 -3.80221416 -4.31853117 -4.80056988 -5.22690633 -5.58468617
 -5.86319742 -6.0560129  -6.165275   -6.19098373 -6.14170867 -6.02816177
 -5.86319742 -5.65966996 -5.42614899 -5.17548887 -4.91197438 -4.6441751
 -4.37423342 -4.10643415 -3.84291965 -3.58154756 -3.32660264 -3.08022731
 -2.84456394 -2.62389734 -2.4160851  -2.2275544  -2.05830526 -1.91048006
 -1.7819364  -1.6705319  -1.57412416 -1.486286   -1.40273262 -1.31489446
 -1.21634433 -1.10279743 -0.96782659 -0.80928942 -0.62075873 -0.40223452
 -0.15371679  0.12265207  0.42687205  0.75465837  1.09529905  1.4487941
  1.80228915  2.15149941  2.48571291  2.80064486  3.08986808  3.34909778
  3.57619157  3.77329184  3.94468338  4.09036619  4.22105224  4.34102631
  4.458858    4.57883207  4.70523333  4.84234656  4.98588698  5.13585457
  5.28582217  5.42722019  5.55362145  5.65217158  5.71858581  5.74215214
  5.72715538  5.66716834  5.57504539  5.45507131  5.32224287  5.18941443
  5.07158275  4.98588698  4.93661191  4.93446952  4.98160219  5.07158275
  5.19798401  5.350094    5.51291596  5.67573792  5.82142073  5.93925241
  6.02066339  6.05922649  6.05279931  6.00138184  5.90925889  5.77428806
  5.60503891  5.40579625  5.17870246  4.92804233  4.65381587  4.35816547
  4.03680633  3.69188086  3.31481948  2.90776457  2.46643136  1.99296223
  1.49164198  0.964613    0.42472966 -0.12158087 -0.65932183 -1.17563884
 -1.65553514 -2.08615638 -2.44822101 -2.72887465 -2.91526295 -2.99667393
 -2.96882281 -2.84027915 -2.61961255 -2.33038933 -1.99617583 -1.65339275
 -1.33203361 -1.06209194 -0.87141885 -0.77072633 -0.77072633 -0.86713407
 -1.04709518 -1.29347052 -1.58269374 -1.88477133 -2.17399455 -2.4160851
 -2.58533424 -2.65817564 -2.61318537 -2.43750904 -2.12900427 -1.69195585
 -1.14564532 -0.50935423  0.18263911  0.90034118  1.60733127  2.27147349
  2.86491669  3.36623694  3.76472227  4.05394549  4.23176421  4.30674801
  4.28960885  4.19320111]","[nan nan nan nan nan nan nan nan nan nan nan nan nan nan nan nan nan nan
 nan nan nan nan nan nan nan nan nan nan nan nan nan nan nan nan nan nan
 nan nan nan nan nan nan nan nan nan nan nan nan nan nan nan nan nan nan
 nan nan nan nan nan nan nan nan nan nan nan nan nan nan nan nan nan nan
 nan nan nan nan nan nan nan nan nan nan nan nan nan nan nan nan nan nan
 nan nan nan nan nan nan nan nan nan nan nan nan nan nan nan nan nan nan
 nan nan nan nan nan nan nan nan nan nan nan nan nan nan nan nan nan nan
 nan nan nan nan nan nan nan nan nan nan nan nan nan nan]",4.734905493634389,,4.667675000000001,-0.1508900000000004
056,2,2,csm,4a.png,1,1,52,51,53,1,1,403,neu_feedback_onset,10,"[ 1.07525452  0.99989139  0.91566201  0.82256638  0.72503763  0.62307575
  0.5188973   0.4125023   0.30167417  0.18641291  0.06671853 -0.0618421
 -0.19926898 -0.34999523 -0.51402087 -0.69134587 -0.88418682 -1.09032714
 -1.3119834  -1.54472248 -1.78411124 -2.02793312 -2.27397157 -2.51779346
 -2.75274909 -2.97883848 -3.18719536 -3.38003631 -3.55292819 -3.70365445
 -3.83443164 -3.94082664 -4.02505602 -4.08933634 -4.13810072 -4.17134916
 -4.19351478 -4.20903072 -4.22233009 -4.23784603 -4.2577951  -4.28217729
 -4.31320916 -4.34424104 -4.37305635 -4.39522198 -4.3996551  -4.38635573
 -4.3464576  -4.27996072 -4.18686509 -4.0738204  -3.94304321 -3.80561633
