sub,run,cat_cond,trial_type,picture,old,response_old,target_pos,response_pos,dot_resp_loc,cat_corr,TN_corr,TN_rt,feedback_type,trial,SP_timeseries,FB_timeseries,SP_peak_response,FB_peak_response,preStim_bl,anticipation
016,1,1,csm,29b.png,1,0,112,70,111,1,1,410,neu_feedback_onset,1,"[ 2.58887449e+00  2.22730251e+00  1.85233898e+00  1.46589697e+00
  1.07754188e+00  6.93012956e-01  3.19962504e-01 -3.39571566e-02
 -3.59180628e-01 -6.46142515e-01 -8.85277420e-01 -1.06893303e+00
 -1.18563086e+00 -1.23345784e+00 -1.20858781e+00 -1.11293385e+00
 -9.57974432e-01 -7.53274953e-01 -5.16053126e-01 -2.63526666e-01
 -1.48263641e-02  2.12830066e-01  4.06051070e-01  5.55271251e-01
  6.60490609e-01  7.21709145e-01  7.54231492e-01  7.69536126e-01
  7.90579998e-01  8.36493900e-01  9.24495545e-01  1.07562881e+00
  1.29563292e+00  1.59216020e+00  1.96521065e+00  2.40713196e+00
  2.90261948e+00  3.43828167e+00  3.99690081e+00  4.55934611e+00
  5.11222601e+00  5.64214896e+00  6.13954957e+00  6.60060166e+00
  7.02339218e+00  7.40983418e+00  7.76566692e+00  8.09471655e+00
  8.40272231e+00  8.69351036e+00  8.97090685e+00  9.23682486e+00
  9.48935132e+00  9.72848623e+00  9.95231650e+00  1.01551029e+01
  1.03368454e+01  1.04918048e+01  1.06199812e+01  1.07194613e+01
  1.07883321e+01  1.08323330e+01  1.08514637e+01  1.08533768e+01
  1.08418983e+01  1.08246806e+01  1.08093760e+01  1.08017237e+01
  1.08055498e+01  1.08246806e+01  1.08610291e+01  1.09126823e+01
  1.09777270e+01  1.10504240e+01  1.11269472e+01  1.12034703e+01
  1.12761673e+01  1.13431251e+01  1.14043436e+01  1.14617360e+01
  1.15172153e+01  1.15803469e+01  1.16530439e+01  1.17448718e+01
  1.18577434e+01  1.19935721e+01  1.21504446e+01  1.23245348e+01
  1.25081904e+01  1.26937591e+01  1.28678493e+01  1.30228087e+01
  1.31490719e+01  1.32370736e+01  1.32849005e+01  1.32868136e+01
  1.32466390e+01  1.31662896e+01  1.30534180e+01  1.29137632e+01
  1.27588038e+01  1.25981051e+01  1.24412326e+01  1.22977517e+01
  1.21772277e+01  1.20873129e+01  1.20337467e+01  1.20222682e+01
  1.20509644e+01  1.21198353e+01  1.22231416e+01  1.23570571e+01
  1.25101034e+01  1.26708021e+01  1.28295877e+01  1.29749817e+01
  1.30955057e+01  1.31873335e+01  1.32485520e+01  1.32753351e+01
  1.32753351e+01  1.32542913e+01  1.32236820e+01  1.31949858e+01
  1.31758550e+01  1.31815943e+01  1.32141166e+01  1.32829875e+01
  1.33882068e+01  1.35278616e+01  1.36981257e+01  1.38951728e+01
  1.41094377e+01  1.43351810e+01  1.45628375e+01  1.47847547e+01
  1.49932803e+01  1.51807621e+01  1.53414607e+01  1.54677240e+01
  1.55595518e+01  1.56131180e+01  1.56341619e+01  1.56265095e+01
  1.55997264e+01  1.55672041e+01  1.55404210e+01  1.55327687e+01
  1.55557256e+01  1.56131180e+01  1.57068589e+01  1.58350352e+01
  1.59861684e+01  1.61506933e+01  1.63113919e+01  1.64510467e+01
  1.65581791e+01  1.66193977e+01  1.66270500e+01  1.65773099e+01
  1.64740036e+01  1.63209573e+01  1.61277363e+01  1.59019930e+01
  1.56571188e+01  1.53988531e+01  1.51386743e+01  1.48823217e+01
  1.46336214e+01  1.43963996e+01  1.41725693e+01  1.39678698e+01
  1.37823011e+01  1.36216025e+01  1.34876869e+01  1.33843807e+01
  1.33155098e+01  1.32791613e+01  1.32791613e+01  1.33135967e+01
  1.33824676e+01  1.34819477e+01  1.36082109e+01  1.37574311e+01
  1.39238690e+01  1.41056115e+01  1.42988325e+01  1.44977928e+01
  1.47024923e+01  1.49091048e+01  1.51195435e+01  1.53280692e+01
  1.55385079e+01  1.57489466e+01  1.59574722e+01  1.61679110e+01
  1.63764366e+01  1.65868753e+01  1.67954010e+01  1.70058397e+01
  1.72143653e+01  1.74248040e+01  1.76333297e+01  1.78437684e+01
  1.80542071e+01  1.82665589e+01  1.84769976e+01  1.86912625e+01
  1.89036143e+01  1.91178792e+01  1.93283179e+01  1.95330174e+01
  1.97262384e+01  1.99022417e+01  2.00514618e+01  2.01624204e+01
  2.02255520e+01  2.02293782e+01  2.01662466e+01  2.00342441e+01
  1.98352839e+01  1.95731920e+01  1.92613601e+01  1.89170058e+01
  1.85592600e+01  1.82072534e+01  1.78820300e+01  1.75950681e+01
  1.73597593e+01  1.71837560e+01  1.70670582e+01  1.70077528e+01
  1.70001004e+01  1.70383620e+01  1.71129721e+01  1.72143653e+01
  1.73368024e+01  1.74726310e+01  1.76180250e+01  1.77691583e+01
  1.79241177e+01  1.80790771e+01  1.82340365e+01  1.83851698e+01
  1.85343900e+01  1.86759579e+01  1.88079603e+01  1.89227451e+01
  1.90164860e+01  1.90815307e+01  1.91083138e+01  1.90891830e+01
  1.90183990e+01  1.88863966e+01  1.86931756e+01  1.84368229e+01
  1.81230780e+01  1.77538537e+01  1.73425416e+01  1.68967942e+01]","[nan nan nan nan nan nan nan nan nan nan nan nan nan nan nan nan nan nan
 nan nan nan nan nan nan nan nan nan nan nan nan nan nan nan nan nan nan
 nan nan nan nan nan nan nan nan nan nan nan nan nan nan nan nan nan nan
 nan nan nan nan nan nan nan nan nan nan nan nan nan nan nan nan nan nan
 nan nan nan nan nan nan nan nan nan nan nan nan nan nan nan nan nan nan
 nan nan nan nan nan nan nan nan nan nan nan nan nan nan nan nan nan nan
 nan nan nan nan nan nan nan nan nan nan nan nan nan nan nan nan nan nan
 nan nan nan nan nan nan nan nan nan nan nan nan nan nan]",18.38813508252546,,5.227175,0.3494999999999999
016,1,1,csp,46a.png,1,1,144,126,144,1,1,379,pos_feedback_onset,2,"[-1.92358904 -1.82329403 -1.68841454 -1.52759669 -1.34602814 -1.15235503
 -0.95003579 -0.74079966 -0.52983431 -0.31022283 -0.08196523  0.15839694
  0.41605135  0.69445645  0.99188302  1.30487261  1.63342521  1.96543627
  2.29571809  2.61389535  2.91305115  3.1810809   3.41452618  3.60647007
  3.75691257  3.86239525  3.92464732  3.95058569  3.94193957  3.90908431
  3.85720758  3.79668473  3.73616188  3.68601438  3.65488834  3.64797145
  3.67390981  3.73270343  3.82953999  3.96269026  4.12869578  4.32582735
  4.5437096   4.7788841   5.02443394  5.26825456  5.50169983  5.71785286
  5.90460907  6.05332236  6.15534659  6.20030642  6.1847434   6.10346986
  5.95821503  5.74897889  5.48267836  5.16968877  4.81519781  4.43131003
  4.02667155  3.61165774  3.19318547  2.77817166  2.37180396  1.98272851
  1.61440375  1.2754758   0.97804923  0.72904094  0.54228472  0.4264267
  0.39184221  0.44544816  0.590703    0.82587749  1.1475132   1.54350555
  2.00002075  2.49976655  3.02026305  3.54075954  4.04050535  4.49702055
  4.89474212  5.21983628  5.46365689  5.62274552  5.69883139  5.70056061
  5.63485009  5.51553362  5.35644499  5.16968877  4.96564031  4.75467496
  4.5437096   4.33966114  4.14252958  3.95750259  3.78285094  3.61857464
  3.46121523  3.3090435   3.15860099  3.00470003  2.84042373  2.65885518
  2.45480672  2.22136145  1.9533317   1.64725901  1.30487261  0.93136017
  0.53709705  0.13245858 -0.26353377 -0.63531698 -0.96386959 -1.2284409
 -1.41865556 -1.52067979 -1.52932591 -1.44459393 -1.27340073 -1.02439244
 -0.71313207 -0.35864111  0.02178823  0.41086368  0.79129301  1.14924243
  1.47260736  1.75274169  1.98964541  2.17813085  2.32511491  2.43059759
  2.50668345  2.55856018  2.59833234  2.63637527  2.6813351   2.7453164
  2.83523606  2.9597402   3.12228728  3.32633574  3.57015636  3.85201991
  4.16500949  4.50393744  4.86015764  5.22502395  5.58816104  5.94438123
  6.28676763  6.60667411  6.90237146  7.16694277  7.39347114  7.58195658
  7.72548219  7.82231875  7.86727858  7.86036168  7.80156806  7.69262693
  7.5335383   7.3260314   7.07702311  6.78824266  6.46141928  6.10346986
  5.71612363  5.30110982  4.86534531  4.40883011  3.93675189  3.45256911
  2.9597402   2.4599944   1.96024859  1.46223201  0.97113233  0.48867877
  0.02351745 -0.42435163 -0.84628234 -1.23708702 -1.58639031 -1.88727533
 -2.12590828 -2.29364303 -2.37491656 -2.36454122 -2.25560009 -2.04636396
 -1.74374972 -1.35986194 -0.91026364 -0.42089318  0.08922797  0.59243222
  1.06969811  1.49854572  1.86514126  2.1608386   2.37353319  2.50495423
  2.55337251  2.52051725  2.41503457  2.24038292  2.0103961   1.73199099
  1.41727218  1.07661501  0.72558249  0.37109152  0.02351745 -0.30676438
 -0.61629552 -0.89815907 -1.15062581 -1.37369573 -1.56909807 -1.74202049
 -1.892463   -2.02734249 -2.15011741 -2.26078777 -2.36454122 -2.46137778
 -2.54956821 -2.63084175 -2.70346917 -2.76745047 -2.82278564 -2.8694747
 -2.90751763 -2.93864367 -2.96458203 -2.98533272 -3.00262496 -3.01645876
 -3.02856333 -3.03893867 -3.04585557 -3.05104324 -3.04931402 -3.03893867
 -3.01818798 -2.98187427 -2.9265391  -2.84526556 -2.73632443 -2.59279882
 -2.41468872 -2.20545259]","[-1.12649617 -1.03148849 -0.93648082 -0.83983508 -0.74155128 -0.64162941
 -0.53843142 -0.42868118 -0.31401674 -0.18788587 -0.05192661  0.09549909
  0.25439124  0.4214737   0.59347035  0.76874313  0.94073978  1.10618418
  1.26016214  1.39775946  1.51897614  1.61889801  1.69916311  1.76140952
  1.80563723  1.84003656  1.86788364  1.89573072  1.93013005  1.97599582
  2.03824223  2.12178346  2.22498145  2.34947426  2.49362384  2.65251598
  2.82287457  2.99978541  3.17833432  3.35033097  3.51249924  3.65664882
  3.77622744  3.86795899  3.92692927  3.94986216  3.93675765  3.89089188
  3.81226484  3.70742878  3.5812979   3.43714833  3.28153231  3.11281178
  2.93426288  2.74260947  2.53785155  2.31507493  2.07427962  1.81055142
  1.52880452  1.22576281  0.90797852  0.57872778  0.24128673 -0.09779238
 -0.43523343 -0.76776029 -1.0937349  -1.40988113 -1.71783704 -2.01596457
 -2.30262565 -2.58109642 -2.84482462 -3.09381025 -3.32313912 -3.5295351
 -3.70480788 -3.84731939 -3.95215545 -4.01767798 -4.04388699 -4.03569668
 -3.99802122 -3.94232707 -3.87844259 -3.81619619 -3.76541622 -3.73756915
 -3.73265496 -3.75722591 -3.80800587 -3.88335678 -3.98000252 -4.09139083
 -4.21260752 -4.3387384  -4.46486927 -4.58608596 -4.70238846 -4.81050064
 -4.90878444 -4.99723986 -5.0758669  -5.14466556 -5.20527391 -5.26096806
 -5.31338609 -5.36416605 -5.41822214 -5.47555436 -5.5410769  -5.61478975
 -5.69996904 -5.79497671 -5.90145083 -6.01939139 -6.1487984  -6.28967185
 -6.43873561 -6.59926582 -6.76798635 -6.94325912 -7.12344609 -7.30690919
 -7.48873422 -7.66892119 -7.84091784 -8.00636224 -8.15870213 -8.29957558
 -8.42570646 -8.53709476 -8.63046437 -8.70581529 -8.75823332 -8.78608039
 -8.78444233 -8.750043  ]",5.411823397787269,2.652229322316808,5.782940000000001,0.4214299999999991
016,1,1,csp,3a.png,1,1,200,139,199,1,1,224,pos_feedback_onset,3,"[-0.14930879  0.01426961  0.15696566  0.27703916  0.37449012  0.45105874
  0.50326461  0.53110774  0.53284793  0.50326461  0.44061756  0.34664699
  0.2196127   0.06125489 -0.12494605 -0.33724993 -0.57043616 -0.81754396
 -1.07509293 -1.33786248 -1.60237223 -1.8634016  -2.11921037 -2.36979855
 -2.61168576 -2.84487199 -3.06587685 -3.27296014 -3.46264148 -3.63144046
 -3.77587671 -3.89072963 -3.97251883 -4.01776392 -4.0247247  -3.99166098
 -3.92031296 -3.81242082 -3.67494536 -3.51136696 -3.32690621 -3.1267837
 -2.91796021 -2.70739653 -2.49683284 -2.29497014 -2.1052888  -1.92952903
 -1.77291142 -1.63543595 -1.52058304 -1.42487227 -1.35004385 -1.29261739
 -1.2508527  -1.22300956 -1.20560761 -1.19690663 -1.19168604 -1.18820565
 -1.18472526 -1.17602428 -1.16210271 -1.14296056 -1.11511743 -1.08031351
 -1.03854882 -0.98982334 -0.93761746 -0.8819312  -0.82276454 -0.76185769
 -0.70095084 -0.6365636  -0.56869597 -0.49734794 -0.42077933 -0.34073033
 -0.25372054 -0.15974997 -0.06229901  0.04211274  0.15000487  0.2631176
  0.3831911   0.50848519  0.64074007  0.77995573  0.92787237  1.08274979
  1.2428478   1.40642619  1.57174479  1.73706338  1.89716139  2.05029862
  2.19995545  2.3426515   2.48534755  2.6280436   2.77944063  2.93779844
  3.11007782  3.29279837  3.4859601   3.68086202  3.87054336  4.04630313
  4.19595996  4.31255308  4.3839011   4.40478345  4.37345993  4.28645014
  4.14723448  3.95755315  3.72610711  3.45811697  3.15706311  2.8316465
  2.48708775  2.12686723  1.75794573  1.38554385  1.01314196  0.65118124
  0.30488229 -0.01879411 -0.3094068  -0.55825479 -0.75663711 -0.89411257
 -0.9637204  -0.96024001 -0.87497042 -0.70617143 -0.45384305 -0.11972547
  0.28922053  0.76603416  1.29331347  1.85713689  2.43314168  3.00218569
  3.53816597  4.02368058  4.43784717  4.76848436  5.00689118  5.15306762
  5.20701368  5.18265094  5.09042057  4.94424413  4.76326377  4.55792067
  4.3438766   4.12461194  3.90882766  3.69304339  3.47725912  3.25625426
  3.02306803  2.77596024  2.5079701   2.21735741  1.90238198  1.5682644
  1.21674486  0.85130375  0.47716167  0.10301959 -0.2693823  -0.63308321
 -0.98286255 -1.31872033 -1.63369576 -1.92778884 -2.20099957 -2.45332795
 -2.68477398 -2.89707786 -3.09720037 -3.28688171 -3.47308265 -3.66102379
 -3.85766591 -4.06996979 -4.29967563 -4.55026381 -4.82347454 -5.12104802
 -5.43950384 -5.77536161 -6.12340076 -6.4731801  -6.81773886 -7.14315546
 -7.43724854 -7.68261614 -7.87055728 -7.98715039 -8.02891509 -7.99411118
 -7.88621904 -7.71916025 -7.50859657 -7.27367014 -7.03700352 -6.82121925
 -6.64545948 -6.52538598 -6.46621932 -6.47143991 -6.53756735 -6.65416046
 -6.80555749 -6.97609667 -7.14315546 -7.2928123  -7.40418482 -7.46335148
 -7.46335148 -7.39896424 -7.27367014 -7.09617018 -6.87864571 -6.64023889
 -6.39835169 -6.17212624 -5.97374393 -5.81190572 -5.68835183 -5.60308223
 -5.54565578 -5.50737147 -5.47604795 -5.44472442 -5.40295972 -5.34553327
 -5.27418524 -5.19065584 -5.09668528 -4.99749412 -4.89656277 -4.7991118
 -4.70340104 -4.61291086 -4.51894029 -4.42322952 -4.31881778 -4.20222467
 -4.07345018 -3.92901394 -3.77065612 -3.60359733 -3.43479835 -3.26773956
 -3.11112194 -2.97016608]","[ -2.80030967  -2.30476591  -1.81734582  -1.34292359  -0.89124764
  -0.47369109  -0.10000236   0.22331964   0.48977596   0.6944924
   0.84071842   0.93170351   0.97232185   0.97069712   0.93820244
   0.8829615    0.81309795   0.73673547   0.65712352   0.57913631
   0.50277383   0.42641135   0.34842413   0.26718745   0.18107656
   0.08846675  -0.01064201  -0.11787443  -0.23160578  -0.35183607
  -0.47531583  -0.60529452  -0.73689794  -0.8701261   -1.004979
  -1.14145662  -1.27955898  -1.41603661  -1.55413897  -1.69061659
  -1.82871895  -1.96682131  -2.10492367  -2.24302603  -2.37950366
  -2.51760602  -2.65408365  -2.79218601  -2.92866363  -3.06351652
  -3.19674468  -3.32672338  -3.4534526   -3.57205816  -3.68416478
  -3.78327353  -3.86938441  -3.94087269  -3.99286417  -4.02860831
  -4.04648038  -4.05135458  -4.04485565  -4.03348251  -4.02373411
  -4.02048464  -4.03023304  -4.05785352  -4.10984499  -4.18783221
  -4.29506463  -4.43316699  -4.60538875  -4.80848046  -5.0424421
  -5.30727369  -5.59972574  -5.91654881  -6.2544934   -6.61193481
  -6.98074934  -7.35931228  -7.74112469  -8.11643816  -8.47875376
  -8.8183231   -9.12539776  -9.38860461  -9.60469418  -9.76229334
  -9.86302683  -9.90364517  -9.88902257  -9.82403322  -9.71842554
  -9.58357264  -9.42922295  -9.26999905  -9.11727409  -8.97917173
  -8.86381564  -8.77932949  -8.72733801  -8.70784121  -8.72083908
  -8.76145742  -8.82482203  -8.90768345  -9.00029326  -9.10265148
  -9.2050097   -9.30736792  -9.40647668  -9.50071123  -9.58844684
  -9.66805879  -9.73954707  -9.80291169  -9.8565279   -9.89714624
  -9.92639144  -9.93938931  -9.93776458  -9.91989251  -9.8857731
  -9.84028056  -9.78666435  -9.72979867  -9.67618246  -9.62906519
  -9.59819525  -9.58519738  -9.59657051  -9.63231465  -9.69567926
  -9.78828908  -9.9052699  -10.04824647 -10.21559403 -10.4024384 ]",2.486304659548105,0.0006803572139617298,5.74648,-0.20171000000000028
016,1,1,csm,9b.png,1,1,40,326,42,1,1,339,neu_feedback_onset,4,"[ 1.23784218  1.10315418  0.97242758  0.84764311  0.72087793  0.59411275
  0.46338616  0.32869815  0.18608732  0.04149579 -0.10903786 -0.26155222
 -0.41208587 -0.5546967  -0.687404   -0.79832353 -0.88349389 -0.93499224
 -0.94489577 -0.90924306 -0.83001483 -0.70523035 -0.53885105 -0.34078046
 -0.11696069  0.12072403  0.36831227  0.61590051  0.85952734  1.10315418
  1.34281959  1.58644643  1.83601537  2.09548785  2.36486386  2.65008552
  2.94323     3.24825871  3.55526813  3.86227755  4.16532556  4.46045075
  4.74171099  5.0091063   5.26461736  5.50428278  5.73404467  5.95390303
  6.16781927  6.38173551  6.59565176  6.81352941  7.03536848  7.25918825
  7.48498872  7.70484708  7.9088598   8.09108474  8.23765698  8.33867299
  8.38819064  8.3763064   8.30103957  8.16239016  7.96630027  7.71871203
  7.43150966  7.11657742  6.78381882  6.44709881  6.11632092  5.79544656
  5.49635996  5.21509971  4.95562724  4.71794252  4.49610346  4.28812933
  4.09402015  3.90585309  3.72560884  3.54932602  3.37502389  3.20468318
  3.03434247  2.86598246  2.69762246  2.53124316  2.36486386  2.19848456
  2.03606667  1.87562949  1.71915372  1.57060078  1.43591277  1.31508971
  1.21605441  1.14276829  1.09919276  1.09126994  1.11899982  1.18832453
  1.29528265  1.4438356   1.63200266  1.85384173  2.10935279  2.38863233
  2.68969964  3.00265117  3.32352554  3.64638061  3.96923568  4.29209074
  4.61890722  4.95166582  5.29828936  5.66471996  6.05491903  6.47482869
  6.92246824  7.39585696  7.88905274  8.39413275  8.89723206  9.39042784
  9.86183586 10.30155258 10.70363588 11.06610507 11.38896014 11.67814321
 11.93959639 12.18322322 12.42090794 12.65859265 12.9081616  13.17159549
 13.45285573 13.74996162 14.05697105 14.36794188 14.66900918 14.95225013
 15.20379979 15.41375462 15.5741918  15.68114992 15.73462898 15.73264827
 15.68114992 15.58607603 15.45534944 15.29491226 15.11268731 14.91461672
 14.70664259 14.49470706 14.28079082 14.07083599 13.86880398 13.6746948
 13.49841197 13.33797479 13.19734467 13.08048301 12.98937054 12.92400725
 12.88043171 12.85864395 12.85468254 12.86260536 12.88043171 12.90221948
 12.92202654 12.93985289 12.95173713 12.95767925 12.95767925 12.94975642
 12.93589148 12.91806513 12.89627736 12.87250889 12.84675971 12.81902983
 12.79129995 12.76357006 12.73584018 12.70612959 12.67839971 12.64868912
 12.62095924 12.59124865 12.56351876 12.53380817 12.50409759 12.4763677
 12.44665711 12.41892723 12.38921664 12.36148676 12.33177617 12.30404629
 12.2743357  12.24660581 12.21689522 12.18916534 12.16143546 12.13370557
 12.10597569 12.08220722 12.05843875 12.0425931  12.03070886 12.02872816
 12.03863169 12.06636157 12.11389851 12.18322322 12.27829711 12.39912017
 12.54569241 12.710091   12.89231595 13.08048301 13.27063079 13.45285573
 13.62319644 13.7757108  13.91039881 14.02329904 14.11639222 14.19363976
 14.25504164 14.30653999 14.35011552 14.38774894 14.42142094 14.45311223
 14.48480353 14.51451412 14.54620541 14.57789671 14.609588   14.64326
 14.67891271 14.71456542 14.75021813 14.78785154 14.82350425 14.85519554
 14.88490613 14.9086746  14.92452025 14.92848166 14.92055884 14.89679037
 14.85915695 14.80567789]","[-1.93576974 -1.78068661 -1.61267989 -1.43359581 -1.24897304 -1.05881158
 -0.86311145 -0.66187263 -0.4532489  -0.23539403 -0.00830802  0.22985535
  0.48094231  0.73941419  1.00711721  1.272974    1.53698456  1.7862253
  2.01700376  2.22193503  2.39178798  2.52471637  2.61887399  2.67241459
  2.68533818  2.66133722  2.60410416  2.52102392  2.41763517  2.29763037
  2.16839443  2.03361981  1.90069141  1.76776302  1.64037331  1.51852228
  1.40220993  1.29143627  1.18620129  1.08465877  0.98496248  0.88895864
  0.79849348  0.70987455  0.63048676  0.55848388  0.50125082  0.46248004
  0.45140267  0.4735574   0.53817537  0.65079526  0.81695576  1.03665685
  1.30805232  1.62191103  1.96346315  2.3197851   2.66502968  2.98442707
  3.25397631  3.45890759  3.58814353  3.63429922  3.59552844  3.47921609
  3.28905464  3.03612144  2.7333401   2.38994175  2.02069621  1.63668085
  1.24897304  0.86865013  0.51048196  0.18185343 -0.10615809 -0.34062901
 -0.51786687 -0.63417921 -0.68587359 -0.68218113 -0.62864053 -0.54186783
 -0.43294039 -0.32216673 -0.22247044 -0.1467751  -0.10615809 -0.10246564
 -0.13569774 -0.20216193 -0.29631955 -0.40709321 -0.52525178 -0.64156412
 -0.74495288 -0.82987935 -0.89449732 -0.9332681  -0.94988415 -0.94434547
 -0.92588319 -0.89818977 -0.8668039  -0.84280294 -0.82803312 -0.8335718
 -0.86126522 -0.91849828 -1.00527098 -1.12712201 -1.28220513 -1.46867413
 -1.68283654 -1.91915369 -2.17024066 -2.42317385 -2.67056836 -2.89580814
 -3.09150828 -3.24289895 -3.3462877  -3.39244339 -3.38136602 -3.31490183
 -3.20043571 -3.04350636 -2.85888359 -2.65764477 -2.45455972 -2.26439827
 -2.09823778 -1.96900184 -1.88407536 -1.84899704 -1.86561309 -1.93392351
 -2.05023586 -2.20716521]",13.871923592287548,1.3755781000470733,5.048704999999999,
016,1,1,csm,63b.png,1,1,312,141,313,1,1,420,neu_feedback_onset,5,"[ 2.69405493e+00  2.47318183e+00  2.24832903e+00  2.01750668e+00
  1.77673510e+00  1.52004473e+00  1.24743558e+00  9.56917805e-01
  6.48491397e-01  3.22156358e-01 -1.61177672e-02 -3.64341132e-01
 -7.20523887e-01 -1.08068634e+00 -1.43885894e+00 -1.79305185e+00
 -2.13928537e+00 -2.47158995e+00 -2.78996560e+00 -3.09043261e+00
 -3.37100115e+00 -3.63167121e+00 -3.87045295e+00 -4.08933621e+00
 -4.28832099e+00 -4.46939714e+00 -4.63256466e+00 -4.77782354e+00
 -4.90517380e+00 -5.01461543e+00 -5.10216874e+00 -5.16783371e+00
 -5.20962052e+00 -5.22553930e+00 -5.21559006e+00 -5.17579310e+00
 -5.10415858e+00 -4.99670680e+00 -4.85343776e+00 -4.66838192e+00
 -4.44352911e+00 -4.17688951e+00 -3.87045295e+00 -3.52819913e+00
 -3.15410774e+00 -2.75414834e+00 -2.34025999e+00 -1.91841226e+00
 -1.49855438e+00 -1.08864573e+00 -6.98635561e-01 -3.34493415e-01
 -6.16852817e-03  2.80369555e-01  5.21141138e-01  7.12166526e-01
  8.53445720e-01  9.48958414e-01  1.00069446e+00  1.01860309e+00
  1.01263354e+00  9.90745218e-01  9.66867044e-01  9.44978719e-01
  9.37019327e-01  9.48958414e-01  9.82785827e-01  1.04447111e+00
  1.13799395e+00  1.26932391e+00  1.44244067e+00  1.65734423e+00
  1.92199399e+00  2.23241024e+00  2.58859300e+00  2.98258286e+00
  3.40642044e+00  3.84816665e+00  4.29190271e+00  4.72767938e+00
  5.13957787e+00  5.51764896e+00  5.85194338e+00  6.13649162e+00
  6.36731396e+00  6.54441042e+00  6.66778098e+00  6.74339520e+00
  6.77921246e+00  6.78518200e+00  6.77523276e+00  6.77125307e+00
  6.78916170e+00  6.85084698e+00  6.97620739e+00  7.17917187e+00
  7.46968964e+00  7.85174042e+00  8.32333435e+00  8.87253234e+00
  9.47943592e+00  1.01181771e+01  1.07648776e+01  1.13857101e+01
  1.19548066e+01  1.24462990e+01  1.28382990e+01  1.31188675e+01
  1.32780554e+01  1.33218320e+01  1.32521873e+01  1.30830503e+01
  1.28283498e+01  1.25079843e+01  1.21398624e+01  1.17438827e+01
  1.13319842e+01  1.09200857e+01  1.05181365e+01  1.01360857e+01
  9.77990294e+00  9.45555774e+00  9.16503997e+00  8.91232930e+00
  8.69941558e+00  8.53027852e+00  8.40690796e+00  8.32930389e+00
  8.29945617e+00  8.31935465e+00  8.38501963e+00  8.49645111e+00
  8.64966939e+00  8.83870493e+00  9.05758819e+00  9.30233946e+00
  9.56101968e+00  9.83163898e+00  1.01062380e+01  1.03788471e+01
  1.06454867e+01  1.09001872e+01  1.11449385e+01  1.13757609e+01
  1.15926543e+01  1.17956188e+01  1.19806746e+01  1.21518015e+01
  1.23050198e+01  1.24403294e+01  1.25577305e+01  1.26532432e+01
  1.27288574e+01  1.27845731e+01  1.28223802e+01  1.28442685e+01
  1.28562076e+01  1.28601873e+01  1.28601873e+01  1.28562076e+01
  1.28482482e+01  1.28343193e+01  1.28084513e+01  1.27626848e+01
  1.26930401e+01  1.25895680e+01  1.24462990e+01  1.22612431e+01
  1.20344005e+01  1.17757203e+01  1.14931619e+01  1.12026441e+01
  1.09180959e+01  1.06614055e+01  1.04465019e+01  1.02893040e+01
  1.01997608e+01  1.01838420e+01  1.02415476e+01  1.03728776e+01
  1.05658928e+01  1.08146238e+01  1.11031517e+01  1.14215274e+01
  1.17598015e+01  1.21080249e+01  1.24542584e+01  1.27965122e+01
  1.31268269e+01  1.34432127e+01  1.37416899e+01  1.40182787e+01
  1.42709894e+01  1.44978321e+01  1.46948270e+01  1.48599844e+01
  1.49893245e+01  1.50828473e+01  1.51405529e+01  1.51624412e+01
  1.51524920e+01  1.51146849e+01  1.50529996e+01  1.49753955e+01
  1.48878422e+01  1.48002889e+01  1.47167153e+01  1.46470706e+01
  1.45973245e+01  1.45734463e+01  1.45814057e+01  1.46251823e+01
  1.47047762e+01  1.48221773e+01  1.49753955e+01  1.51604514e+01
  1.53733651e+01  1.56041874e+01  1.58449590e+01  1.60897103e+01
  1.63284920e+01  1.65553347e+01  1.67642687e+01  1.69572839e+01
  1.71284108e+01  1.72816291e+01  1.74209185e+01  1.75442890e+01
  1.76597002e+01  1.77691418e+01  1.78726139e+01  1.79721063e+01
  1.80715987e+01  1.81691012e+01  1.82666038e+01  1.83641063e+01
  1.84635987e+01  1.85611013e+01  1.86605937e+01  1.87580962e+01
  1.88575886e+01  1.89550911e+01  1.90545835e+01  1.91540759e+01
  1.92535683e+01  1.93530607e+01  1.94505632e+01  1.95500556e+01
  1.96495480e+01  1.97490404e+01  1.98465429e+01  1.99440455e+01
  2.00395582e+01  2.01350709e+01  2.02266039e+01  2.03121673e+01
  2.03917612e+01  2.04633958e+01  2.05230912e+01  2.05668678e+01]","[-2.57005333 -2.24366121 -1.90588331 -1.5605149  -1.21894175 -0.88685674
 -0.57374802 -0.28530846 -0.02723097  0.19668921  0.3883497   0.55154576
  0.69576554  0.82670191  0.96143354  1.10944858  1.28403041  1.49276956
  1.73946128  2.02600321  2.34670244  2.69396848  3.05641555  3.42076025
  3.76802629  4.09062315  4.37147219  4.60488051  4.78515523  4.91229635
  4.98440624  5.00907541  4.99009912  4.93317026  4.84777698  4.73961214
  4.61436865  4.47584176  4.33162199  4.1798117   4.02610378  3.87429349
  3.7224832   3.57636579  3.4378389   3.30880016  3.19684007  3.10195864
  3.02984875  2.98240803  2.96343175  2.96912463  2.99758906  3.04313215
  3.09816338  3.15319461  3.19684007  3.21961161  3.2120211   3.16647801
  3.07728947  2.93876258  2.75089734  2.51179613  2.21576607  1.86850003
  1.46430513  1.00887426  0.50220742 -0.04430963 -0.62498399 -1.22842989
 -1.84136394 -2.45050273 -3.04446049 -3.61374908 -4.15077798 -4.65364957
 -5.11856858 -5.54553502 -5.93454889 -6.28561019 -6.59492365 -6.86248929
 -7.08071658 -7.24201502 -7.33879408 -7.36725851 -7.31981779 -7.19647193
 -6.99342567 -6.72016714 -6.38049162 -5.98768249 -5.55312554 -5.09200178
 -4.61759462 -4.14318747 -3.68206371 -3.2437115  -2.83572134 -2.45999087
 -2.12221298 -1.8185924  -1.54533387 -1.30053978 -1.07851723 -0.87167571
 -0.67811759 -0.49025236 -0.30997764 -0.13349817  0.04108366  0.21376786
  0.38075918  0.54585287  0.70715131  0.86275686  1.01456715  1.16258218
  1.30680195  1.44532884  1.57626522  1.69961108  1.81157117  1.91404312
  1.9994364   2.07154629  2.12467989  2.16263247  2.18160875  2.18730164
  2.17971112  2.16073484  2.13037278  2.09431784  2.05257001  2.00323166
  1.94820043  1.88747632]",19.725446486312556,3.3265904262738095,5.02551,-0.25633000000000017
016,1,1,csm,15b.png,1,1,216,219,216,1,0,187,neu_feedback_onset,6,"[ 1.65033783e+00  1.47182644e+00  1.27744737e+00  1.07116753e+00
  8.54970402e-01  6.32822890e-01  4.12658838e-01  1.96461706e-01
 -7.83466671e-03 -1.98246820e-01 -3.70807833e-01 -5.21550788e-01
 -6.50475683e-01 -7.55599059e-01 -8.34937457e-01 -8.84523955e-01
 -9.02375094e-01 -8.84523955e-01 -8.28987077e-01 -7.27830620e-01
 -5.83038046e-01 -3.92625893e-01 -1.58577621e-01  1.09189469e-01
  4.06708458e-01  7.18111667e-01  1.03149834e+00  1.33100078e+00
  1.60273479e+00  1.83083269e+00  2.00339370e+00  2.11645092e+00
  2.16603741e+00  2.15215319e+00  2.08471556e+00  1.97165834e+00
  1.82686577e+00  1.66620551e+00  1.50356180e+00  1.35083538e+00
  1.21596011e+00  1.11083673e+00  1.03348180e+00  9.87862217e-01
  9.70011078e-01  9.77944917e-01  1.00769682e+00  1.05331639e+00
  1.11480365e+00  1.19017513e+00  1.27546391e+00  1.37463690e+00
  1.48372720e+00  1.60471825e+00  1.73761007e+00  1.88041918e+00
  2.02917868e+00  2.17992163e+00  2.32471421e+00  2.45958948e+00
  2.57463016e+00  2.66190240e+00  2.71743927e+00  2.73727387e+00
  2.71743927e+00  2.66190240e+00  2.57066324e+00  2.44967218e+00
  2.30091269e+00  2.13430206e+00  1.95182374e+00  1.75942813e+00
  1.56306560e+00  1.36670306e+00  1.17430745e+00  9.93812597e-01
  8.25218503e-01  6.78442468e-01  5.53484493e-01  4.56294956e-01
  3.86873859e-01  3.47204660e-01  3.35303901e-01  3.45221200e-01
  3.74973099e-01  4.18609218e-01  4.68195716e-01  5.23732594e-01
  5.81252932e-01  6.40756730e-01  7.02243987e-01  7.65714705e-01
  8.33152343e-01  9.02573440e-01  9.68027618e-01  1.02753142e+00
  1.06918407e+00  1.08703521e+00  1.07315099e+00  1.01761412e+00
  9.18441120e-01  7.73648545e-01  5.89186772e-01  3.71006179e-01
  1.32990988e-01 -1.14941503e-01 -3.54940154e-01 -5.77087666e-01
 -7.71466739e-01 -9.30143533e-01 -1.04915113e+00 -1.12848953e+00
 -1.17410910e+00 -1.18997678e+00 -1.18204294e+00 -1.16022488e+00
 -1.12848953e+00 -1.09477071e+00 -1.06105189e+00 -1.03129999e+00
 -1.00551501e+00 -9.81713491e-01 -9.57911972e-01 -9.34110453e-01
 -9.06342014e-01 -8.72623195e-01 -8.34937457e-01 -7.91301338e-01
 -7.47665220e-01 -7.04029101e-01 -6.66343363e-01 -6.36591464e-01
 -6.16756865e-01 -6.08823025e-01 -6.12789945e-01 -6.24690704e-01
 -6.38574924e-01 -6.46508763e-01 -6.36591464e-01 -6.00889185e-01
 -5.29484628e-01 -4.10477032e-01 -2.39899478e-01 -1.57685064e-02
  2.63899343e-01  5.89186772e-01  9.52159938e-01  1.34091808e+00
  1.73761007e+00  2.12240130e+00  2.47942408e+00  2.79082729e+00
  3.04272670e+00  3.22322156e+00  3.32437801e+00  3.34817953e+00
  3.29462611e+00  3.17561852e+00  2.99909058e+00  2.77892653e+00
  2.52306020e+00  2.24140889e+00  1.93992298e+00  1.61860247e+00
  1.27546391e+00  9.06540360e-01  5.03897995e-01  6.15864308e-02
 -4.26344711e-01 -9.63862352e-01 -1.54501611e+00 -2.16980599e+00
 -2.82633122e+00 -3.50467452e+00 -4.18896819e+00 -4.86532803e+00
 -5.52185327e+00 -6.14465968e+00 -6.72382998e+00 -7.24944686e+00
 -7.71952687e+00 -8.12613615e+00 -8.46729126e+00 -8.74695911e+00
 -8.96117278e+00 -9.11389919e+00 -9.21108873e+00 -9.25869177e+00
 -9.25869177e+00 -9.22497295e+00 -9.15951877e+00 -9.07423000e+00
 -8.97109008e+00 -8.85604940e+00 -8.73109143e+00 -8.59423269e+00
 -8.44745666e+00 -8.28481294e+00 -8.10630155e+00 -7.90398864e+00
 -7.67985767e+00 -7.42597480e+00 -7.14630695e+00 -6.83887066e+00
 -6.50366593e+00 -6.14069276e+00 -5.75590154e+00 -5.34929225e+00
 -4.92483183e+00 -4.48252026e+00 -4.02632448e+00 -3.55624448e+00
 -3.07228025e+00 -2.57443181e+00 -2.06468261e+00 -1.54104919e+00
 -1.00551501e+00 -4.62046990e-01  7.94375701e-02  6.12988291e-01
  1.12670441e+00  1.60670171e+00  2.03512906e+00  2.40603607e+00
  2.70355505e+00  2.92768603e+00  3.07842898e+00  3.16371776e+00
  3.19545312e+00  3.18950274e+00  3.16570122e+00  3.14189970e+00
  3.13396586e+00  3.14983354e+00  3.19743658e+00  3.27280805e+00
  3.36999759e+00  3.48305481e+00  3.59412856e+00  3.69528502e+00
  3.77462342e+00  3.82222645e+00  3.83412721e+00  3.81230915e+00
  3.75875574e+00  3.67743388e+00  3.57826088e+00  3.46917059e+00
  3.35611337e+00  3.24900653e+00  3.15380046e+00  3.07644552e+00
  3.01892518e+00  2.98520636e+00  2.97727252e+00  2.99314020e+00
  3.03479286e+00  3.09826358e+00  3.18553582e+00  3.28867573e+00]","[-0.07498414  0.27287127  0.60120418  0.89759119  1.15138366  1.3483834
  1.47616702  1.52408588  1.48326611  1.34660863  1.11588821  0.79465439
  0.38823148 -0.08918232 -0.61983929 -1.18599172 -1.7681171  -2.34491816
 -2.90042195 -3.41688075 -3.88364592 -4.29184359 -4.64147377 -4.93076169
 -5.16503166 -5.34783322 -5.48981502 -5.59807615 -5.67794091 -5.74005795
 -5.7879768  -5.8270218  -5.8589677  -5.88913884 -5.91398565 -5.93883247
 -5.96190451 -5.98320178 -6.0009495  -6.01514768 -6.02224677 -6.01869723
 -5.99917473 -5.95658019 -5.88381452 -5.76845431 -5.59985092 -5.36735572
 -5.06032008 -4.67341968 -4.20310496 -3.65292549 -3.0264308  -2.33959384
 -1.61016235 -0.85765881 -0.10515527  0.62250145  1.30578886  1.92873401
  2.47358917  2.93325524  3.30063315  3.57749766  3.76562354  3.87210989
  3.9040558   3.87210989  3.78692081  3.65736242  3.4976329   3.31483133
  3.11783158  2.91373275  2.70608436  2.50021075  2.29611192  2.09378785
  1.89146379  1.68913972  1.48326611  1.27206819  1.05377117  0.82660029
  0.59233032  0.35273603  0.1095922  -0.13355163 -0.37137114 -0.60386634
 -0.82748768 -1.0386856  -1.24100967 -1.43445987 -1.61903621 -1.79473869
 -1.96334207 -2.12484637 -2.27925158 -2.42478292 -2.56498995 -2.69454834
 -2.81523287 -2.92881831 -3.03352989 -3.13469192 -3.23407918 -3.33524121
 -3.43995279 -3.555313   -3.68132185 -3.81975411 -3.97238454 -4.13743838
 -4.31491563 -4.50304152 -4.69826649 -4.89704101 -5.0975903  -5.29459005
 -5.48449071 -5.66196796 -5.82347225 -5.96012974 -6.06839086 -6.1429313
 -6.17842675 -6.17310244 -6.12873312 -6.04531882 -5.9299586  -5.78975158
 -5.63534637 -5.47384207 -5.31588732 -5.17390552 -5.05322099 -4.96270759
 -4.90591487 -4.88639238]",3.238097504906587,0.8526450765592329,5.041695,0.0712199999999994
016,1,1,csp,57a.png,1,1,16,245,18,1,1,301,pos_feedback_onset,7,"[ 3.77306690e-01  4.02441135e-01  4.04374554e-01  3.85040365e-01
  3.44438569e-01  2.82569166e-01  2.05232411e-01  1.16295144e-01
  2.15576202e-02 -7.31799037e-02 -1.62117171e-01 -2.37520506e-01
 -2.97456491e-01 -3.32258030e-01 -3.43858543e-01 -3.30324611e-01
 -2.91656234e-01 -2.33653669e-01 -1.60183752e-01 -7.70467414e-02
  8.02368825e-03  8.53604424e-02  1.53030102e-01  2.05232411e-01
  2.38100532e-01  2.55501302e-01  2.57434721e-01  2.53567883e-01
  2.49701045e-01  2.49701045e-01  2.65168396e-01  2.99969935e-01
  3.59905920e-01  4.43042931e-01  5.53247805e-01  6.82786869e-01
  8.31660120e-01  9.92133885e-01  1.15840791e+00  1.32854877e+00
  1.49288937e+00  1.65529655e+00  1.81190348e+00  1.96271015e+00
  2.10964998e+00  2.25465640e+00  2.39966281e+00  2.54466923e+00
  2.68774222e+00  2.82694838e+00  2.95842086e+00  3.07635941e+00
  3.17883061e+00  3.25810078e+00  3.31416993e+00  3.34703805e+00
  3.35670514e+00  3.34510463e+00  3.32190361e+00  3.29096890e+00
  3.26003420e+00  3.23876659e+00  3.23103292e+00  3.24843369e+00
  3.29096890e+00  3.36443882e+00  3.47271028e+00  3.61384985e+00
  3.78399071e+00  3.98506627e+00  4.20547602e+00  4.44328654e+00
  4.68689732e+00  4.92664126e+00  5.15671810e+00  5.36359392e+00
  5.53760161e+00  5.67294093e+00  5.76187820e+00  5.80248000e+00
  5.79281290e+00  5.73287692e+00  5.63040572e+00  5.48926614e+00
  5.31525844e+00  5.11611630e+00  4.90344023e+00  4.68109706e+00
  4.46068731e+00  4.24994466e+00  4.05853619e+00  3.89419559e+00
  3.76852336e+00  3.68538635e+00  3.65445165e+00  3.67185242e+00
  3.73952208e+00  3.85166037e+00  3.99473337e+00  4.15907397e+00
  4.32921483e+00  4.48775518e+00  4.62116108e+00  4.71783202e+00
  4.77196775e+00  4.77583458e+00  4.73329937e+00  4.64436210e+00
  4.51868988e+00  4.36208295e+00  4.18614183e+00  3.99860020e+00
  3.80719174e+00  3.62158353e+00  3.44757583e+00  3.28903549e+00
  3.14789591e+00  3.02415710e+00  2.91588565e+00  2.82308154e+00
  2.74381137e+00  2.67420829e+00  2.61427230e+00  2.56400341e+00
  2.52533504e+00  2.50020059e+00  2.49053350e+00  2.49826717e+00
  2.52726846e+00  2.57947077e+00  2.65487410e+00  2.75347846e+00
  2.87335043e+00  3.01449001e+00  3.17303035e+00  3.34897147e+00
  3.53651310e+00  3.73758866e+00  3.94639790e+00  4.16294081e+00
  4.38528398e+00  4.60569373e+00  4.82223664e+00  5.02717904e+00
  5.21858750e+00  5.38679494e+00  5.53180136e+00  5.64973991e+00
  5.73867717e+00  5.80248000e+00  5.84114837e+00  5.86241598e+00
  5.86821624e+00  5.86434940e+00  5.85468231e+00  5.84114837e+00
  5.82374760e+00  5.79861316e+00  5.76767846e+00  5.72514324e+00
  5.66520726e+00  5.58400367e+00  5.47959905e+00  5.34812657e+00
  5.18765280e+00  4.99237750e+00  4.76036723e+00  4.49162201e+00
  4.18227500e+00  3.83039276e+00  3.43790874e+00  3.00675633e+00
  2.54273581e+00  2.05744767e+00  1.56249245e+00  1.07527090e+00
  6.11250371e-01  1.87831642e-01 -1.79517941e-01 -4.75331025e-01
 -6.91873937e-01 -8.19479582e-01 -8.62014796e-01 -8.19479582e-01
 -6.97674194e-01 -5.06265727e-01 -2.54921276e-01  4.66920653e-02
  3.88907203e-01  7.62057042e-01  1.16034133e+00  1.57795980e+00
  2.00911220e+00  2.45186512e+00  2.90235171e+00  3.36057198e+00
  3.82652593e+00  4.29634671e+00  4.77196775e+00  5.25145562e+00
  5.73094350e+00  6.21043137e+00  6.68411899e+00  7.14620610e+00
  7.58895902e+00  8.00657749e+00  8.39132784e+00  8.73160956e+00
  9.02355581e+00  9.26136633e+00  9.43924086e+00  9.55524599e+00
  9.61131514e+00  9.60938172e+00  9.55137916e+00  9.44504112e+00
  9.29423445e+00  9.10475940e+00  8.88434965e+00  8.64073888e+00
  8.37586049e+00  8.09938160e+00  7.81710244e+00  7.53095645e+00
  7.24674388e+00  6.97219840e+00  6.70925344e+00  6.46564266e+00
  6.24523291e+00  6.05189103e+00  5.88561701e+00  5.74834427e+00
  5.63427256e+00  5.54340187e+00  5.46413170e+00  5.38872836e+00
  5.30945819e+00  5.22052092e+00  5.11224947e+00  4.98077698e+00
  4.82610347e+00  4.65016236e+00  4.45488705e+00  4.24221098e+00
  4.02180123e+00  3.79365781e+00  3.56164754e+00  3.33350412e+00
  3.10922753e+00  2.88881778e+00  2.67420829e+00  2.46539905e+00
  2.26239007e+00  2.06324793e+00  1.86797263e+00  1.67849758e+00
  1.49095595e+00  1.30921458e+00  1.12940662e+00  9.55398927e-01]","[ -2.84912533  -2.43151186  -2.03090529  -1.64730559  -1.27882312
  -0.92545789  -0.58909953  -0.26785841   0.03448618   0.31604458
   0.57114782   0.79979592   0.99254059   1.1512715    1.27220934
   1.35346444   1.39881613   1.4082644    1.38558856   1.33645756
   1.26276107   1.17016804   1.06245778   0.9434096    0.8168028
   0.68452704   0.54847198   0.41052726   0.26880324   0.12896886
  -0.01464482  -0.15636884  -0.29809287  -0.43981689  -0.58154092
  -0.72326494  -0.86120966  -0.99726473  -1.12954048  -1.25236797
  -1.36385754  -1.46022988  -1.53014706  -1.57171944  -1.57171944
  -1.52636775  -1.42621611  -1.26937486  -1.05773364  -0.79507178
  -0.49461685  -0.16959642   0.15920332   0.46910652   0.739327
   0.95096821   1.08513362   1.13237496   1.08324397   0.93585098
   0.690196     0.35005834  -0.07322408  -0.57587196  -1.14654737
  -1.77013308  -2.43907048  -3.13446303  -3.84497281  -4.55359294
  -5.24331653  -5.89902636  -6.50560519  -7.0517151   -7.53168713
  -7.93796267  -8.27432102  -8.54076219  -8.74673444  -8.89979639
  -9.00750665  -9.08120314  -9.13033414  -9.15867894  -9.17568583
  -9.18135479  -9.18324444  -9.18135479  -9.17757548  -9.17190652
  -9.16623756  -9.1605686   -9.15300998  -9.14734102  -9.13978241
  -9.13411345  -9.12844448  -9.12088587  -9.11521691  -9.10765829
  -9.10009968  -9.09254106  -9.0830928   -9.07364453  -9.06041695
  -9.04152042  -9.01695492  -8.98483081  -8.93947912  -8.8790102
  -8.80342405  -8.70894137  -8.59367249  -8.46139674  -8.31400375
  -8.15905215  -8.00221089  -7.85292825  -7.7206525   -7.61483189
  -7.54491471  -7.52034921  -7.54491471  -7.62428016  -7.75844557
  -7.94930059  -8.19306592  -8.48407258  -8.81854128  -9.18513409
  -9.57440275  -9.97311968 -10.3718366  -10.75165699 -11.10502223
 -11.41492543 -11.67380798 -11.87222162 -12.00449738 -12.0687456 ]",7.048230100044764,0.11410699244635014,5.172185,-0.7420499999999999
016,1,1,csm,10b.png,1,1,92,142,86,1,1,373,neu_feedback_onset,8,"[-2.17897298e+00 -1.96959317e+00 -1.74598367e+00 -1.50407884e+00
 -1.24794432e+00 -9.79612912e-01 -7.05183065e-01 -4.26687591e-01
 -1.50224931e-01  1.16073661e-01  3.72208185e-01  6.08014571e-01
  8.19427194e-01  1.00441324e+00  1.15687426e+00  1.27681027e+00
  1.35812282e+00  1.40284472e+00  1.41097597e+00  1.38251658e+00
  1.32356499e+00  1.23615400e+00  1.12638206e+00  9.98314797e-01
  8.64149095e-01  7.27950578e-01  5.99883316e-01  4.88078564e-01
  4.00667576e-01  3.43748793e-01  3.23420656e-01  3.43748793e-01
  4.04733203e-01  5.04341074e-01  6.40539590e-01  8.07230312e-01
  9.96281984e-01  1.19753054e+00  1.40081191e+00  1.59596202e+00
  1.77484962e+00  1.92527783e+00  2.04318103e+00  2.12042795e+00
  2.15498578e+00  2.14685453e+00  2.09806700e+00  2.01268882e+00
  1.89681844e+00  1.75452149e+00  1.59189639e+00  1.41504160e+00
  1.23208837e+00  1.05116795e+00  8.74313163e-01  7.11688069e-01
  5.67358298e-01  4.47422291e-01  3.57978489e-01  3.03092519e-01
  2.80731569e-01  2.94961265e-01  3.37650352e-01  4.04733203e-01
  4.88078564e-01  5.75489552e-01  6.60867727e-01  7.29983392e-01
  7.74705293e-01  7.86902175e-01  7.62508411e-01  6.95425559e-01
  5.83620807e-01  4.29126968e-01  2.29911227e-01 -7.92797335e-03
 -2.80325006e-01 -5.81181431e-01 -8.98300364e-01 -1.22558337e+00
 -1.54880074e+00 -1.85982123e+00 -2.14441515e+00 -2.39648405e+00
 -2.60586385e+00 -2.77052176e+00 -2.88232651e+00 -2.94534374e+00
 -2.95754062e+00 -2.92298279e+00 -2.84980150e+00 -2.74002956e+00
 -2.60586385e+00 -2.45137001e+00 -2.28671211e+00 -2.12205420e+00
 -1.96349473e+00 -1.82119777e+00 -1.70126177e+00 -1.61385078e+00
 -1.56303044e+00 -1.55896481e+00 -1.60368671e+00 -1.70126177e+00
 -1.85575561e+00 -2.06716823e+00 -2.33549964e+00 -2.65668420e+00
 -3.02868910e+00 -3.43931746e+00 -3.88653647e+00 -4.35611643e+00
 -4.83992609e+00 -5.32576856e+00 -5.80144696e+00 -6.25679722e+00
 -6.67758965e+00 -7.05975862e+00 -7.39314007e+00 -7.67163554e+00
 -7.89524505e+00 -8.06600139e+00 -8.18187177e+00 -8.25302025e+00
 -8.28757809e+00 -8.29367653e+00 -8.27944683e+00 -8.25911869e+00
 -8.23879056e+00 -8.22659368e+00 -8.22659368e+00 -8.24488900e+00
 -8.27944683e+00 -8.32416873e+00 -8.37702189e+00 -8.42784223e+00
 -8.47053132e+00 -8.49492508e+00 -8.49289227e+00 -8.46240006e+00
 -8.39735002e+00 -8.30180778e+00 -8.17577333e+00 -8.02737793e+00
 -7.86272003e+00 -7.69196368e+00 -7.52527296e+00 -7.36874630e+00
 -7.22644935e+00 -7.10041490e+00 -6.98861014e+00 -6.88493665e+00
 -6.78126315e+00 -6.66335996e+00 -6.51903019e+00 -6.33404414e+00
 -6.09620494e+00 -5.79534852e+00 -5.42537643e+00 -4.98628867e+00
 -4.48011807e+00 -3.91702868e+00 -3.30718457e+00 -2.66888108e+00
 -2.01838070e+00 -1.37804439e+00 -7.66167475e-01 -1.96979645e-01
  3.13256588e-01  7.54377156e-01  1.11825080e+00  1.40487753e+00
  1.61425734e+00  1.75248867e+00  1.82770278e+00  1.84803092e+00
  1.82770278e+00  1.77891525e+00  1.71183240e+00  1.63865111e+00
  1.56953544e+00  1.51464947e+00  1.47805883e+00  1.46382913e+00
  1.47399320e+00  1.50855103e+00  1.56343700e+00  1.64068392e+00
  1.73216054e+00  1.83989966e+00  1.95577004e+00  2.08180449e+00
  2.21393738e+00  2.35420152e+00  2.49853129e+00  2.64692669e+00
  2.79735490e+00  2.95388156e+00  3.11244102e+00  3.27506612e+00
  3.43769121e+00  3.60234912e+00  3.76497421e+00  3.92556649e+00
  4.08006033e+00  4.22439011e+00  4.35652299e+00  4.47036056e+00
  4.56590280e+00  4.63705128e+00  4.68380600e+00  4.70616695e+00
  4.70210132e+00  4.67160911e+00  4.61672315e+00  4.53337778e+00
  4.41954022e+00  4.27521045e+00  4.09632284e+00  3.87881178e+00
  3.62267726e+00  3.32385365e+00  2.98640657e+00  2.61033604e+00
  2.20377331e+00  1.77281681e+00  1.32966343e+00  8.80411604e-01
  4.37258222e-01  8.33453608e-03 -3.98228200e-01 -7.78364357e-01
 -1.12597550e+00 -1.44309443e+00 -1.72768835e+00 -1.98179006e+00
 -2.20946519e+00 -2.41274655e+00 -2.58960134e+00 -2.74409518e+00
 -2.87419526e+00 -2.97786876e+00 -3.05511568e+00 -3.10187039e+00
 -3.11813290e+00 -3.10390321e+00 -3.05918130e+00 -2.98600001e+00
 -2.89045777e+00 -2.77662020e+00 -2.65465138e+00 -2.53064975e+00
 -2.41274655e+00 -2.30500743e+00 -2.21353081e+00 -2.14034952e+00
 -2.08952918e+00 -2.06106979e+00 -2.05497135e+00 -2.07326667e+00]","[ -2.10310534  -1.77616856  -1.47553705  -1.20121079  -0.95131085
  -0.72207932  -0.50787936  -0.31058993  -0.12269524   0.05580472
   0.2267889    0.39213623   0.55372567   0.71155721   0.86375192
   1.01030978   1.1512308    1.28463604   1.40676759   1.51386757
   1.60593597   1.67357806   1.71491489   1.72618857   1.70176226
   1.64163596   1.54393072   1.41052549   1.2470571    1.05352556
   0.83932561   0.61009408   0.36958887   0.12344682  -0.12269524
  -0.36695834  -0.6093425   -0.84796876  -1.08283713  -1.31582656
  -1.54505809  -1.77241067  -1.99976325  -2.22523689  -2.45071052
  -2.67430521  -2.8978999   -3.12149459  -3.34508928  -3.56492607
  -3.78476287  -4.00084177  -4.20940488  -4.41045221  -4.60022585
  -4.77121002  -4.92152578  -5.04365733  -5.13196784  -5.17894151
  -5.18082046  -5.13572573  -5.03989944  -4.89897842  -4.71296267
  -4.49500482  -4.25262066  -3.99708387  -3.74718393  -3.5141945
  -3.31314718  -3.15531563  -3.0500946   -3.00499988  -3.02566829
  -3.11022091  -3.25865772  -3.46909978  -3.73591025  -4.05157334
  -4.41045221  -4.80503107  -5.22591519  -5.66370983  -6.10902026
  -6.55433069  -6.99024639  -7.41113051  -7.81322516  -8.19465139
  -8.55165131  -8.88798282  -9.20176696  -9.49676163  -9.77296684
 -10.03038257 -10.263372   -10.47381406 -10.65043507 -10.7875982
 -10.87778765 -10.91536659 -10.88906133 -10.79699293 -10.63916139
 -10.41932459 -10.1393615   -9.81618262  -9.4591827   -9.08527225
  -8.70948286  -8.34872504  -8.01427248  -7.71551991  -7.45998313
  -7.25142001  -7.08983058  -6.96957797  -6.88502536  -6.82865695
  -6.7948359   -6.77416749  -6.75913591  -6.74786223  -6.73658855
  -6.72343592  -6.71216224  -6.70464645  -6.7027675   -6.71028329
  -6.73095171  -6.76477275  -6.81362537  -6.87187273  -6.93951482
  -7.01279375  -7.08419373  -7.15183583  -7.20632529  -7.24954107]",3.2089996727169954,0.3238365090668665,4.91929,0.1056499999999998
016,1,1,csp,60a.png,1,1,344,341,343,1,1,344,pos_feedback_onset,9,"[ 5.31504570e-01  6.18338523e-01  6.84978534e-01  7.21327631e-01
  7.21327631e-01  6.80939745e-01  6.00163975e-01  4.81019713e-01
  3.29565144e-01  1.55897237e-01 -2.98870351e-02 -2.13651913e-01
 -3.85300425e-01 -5.30696812e-01 -6.47821679e-01 -7.26578056e-01
 -7.68985335e-01 -7.75043518e-01 -7.48791393e-01 -6.98306536e-01
 -6.31666525e-01 -5.56948938e-01 -4.78192561e-01 -4.07513762e-01
 -3.44912540e-01 -2.94427683e-01 -2.58078587e-01 -2.35865250e-01
 -2.25768279e-01 -2.27787673e-01 -2.35865250e-01 -2.52020404e-01
 -2.72214347e-01 -2.94427683e-01 -3.20679809e-01 -3.44912540e-01
 -3.71164665e-01 -3.95397397e-01 -4.17610733e-01 -4.39824070e-01
 -4.62037407e-01 -4.82231350e-01 -5.04444687e-01 -5.30696812e-01
 -5.65026515e-01 -6.05414400e-01 -6.55899256e-01 -7.18500479e-01
 -7.87159884e-01 -8.63896865e-01 -9.40633847e-01 -1.01333204e+00
 -1.07391387e+00 -1.11632115e+00 -1.13651509e+00 -1.12843751e+00
 -1.09612721e+00 -1.03958417e+00 -9.70924761e-01 -9.00245962e-01
 -8.37644740e-01 -7.99276249e-01 -7.97256855e-01 -8.39664134e-01
 -9.36595059e-01 -1.09006902e+00 -1.29604724e+00 -1.55452970e+00
 -1.85340005e+00 -2.18660011e+00 -2.53999410e+00 -2.90752386e+00
 -3.27505361e+00 -3.63854458e+00 -3.98991918e+00 -4.32513863e+00
 -4.64420292e+00 -4.94509267e+00 -5.22780787e+00 -5.49234852e+00
 -5.74275340e+00 -5.97296435e+00 -6.18702014e+00 -6.38088199e+00
 -6.55253050e+00 -6.69792689e+00 -6.81505176e+00 -6.90188571e+00
 -6.95842875e+00 -6.98064209e+00 -6.97458390e+00 -6.94025420e+00
 -6.88371116e+00 -6.80697418e+00 -6.71812083e+00 -6.62118991e+00
 -6.52223959e+00 -6.41925048e+00 -6.32030016e+00 -6.22336924e+00
 -6.13047710e+00 -6.03758497e+00 -5.94469283e+00 -5.85180069e+00
 -5.75285038e+00 -5.64784187e+00 -5.53475579e+00 -5.40955335e+00
 -5.27021515e+00 -5.11472179e+00 -4.94509267e+00 -4.76132779e+00
 -4.56544655e+00 -4.35744894e+00 -4.14541254e+00 -3.93337614e+00
 -3.72537854e+00 -3.52343911e+00 -3.33361605e+00 -3.15590935e+00
 -2.99233842e+00 -2.84290324e+00 -2.70558443e+00 -2.57836259e+00
 -2.45921833e+00 -2.34209347e+00 -2.22698799e+00 -2.10986313e+00
 -1.98869947e+00 -1.86147763e+00 -1.72819761e+00 -1.58885941e+00
 -1.44144362e+00 -1.28796966e+00 -1.12843751e+00 -9.62847184e-01
 -7.91198672e-01 -6.13491977e-01 -4.31746493e-01 -2.43942827e-01
 -5.41197662e-02  1.35703294e-01  3.25526355e-01  5.11310627e-01
  6.86997928e-01  8.52588258e-01  9.97984645e-01  1.12520648e+00
  1.22819559e+00  1.30493257e+00  1.35137864e+00  1.36753379e+00
  1.35137864e+00  1.30089378e+00  1.21405983e+00  1.09087678e+00
  9.31344634e-01  7.39502179e-01  5.15349416e-01  2.64944527e-01
 -3.63490967e-03 -2.82311318e-01 -5.63007120e-01 -8.33605952e-01
 -1.08603023e+00 -1.30614421e+00 -1.48788969e+00 -1.62116971e+00
 -1.70396488e+00 -1.73223640e+00 -1.71002306e+00 -1.63934426e+00
 -1.52625818e+00 -1.38086180e+00 -1.21123268e+00 -1.02544841e+00
 -8.33605952e-01 -6.45802285e-01 -4.66076196e-01 -3.02505261e-01
 -1.61147662e-01 -4.40227949e-02  4.48305526e-02  1.09451169e-01
  1.49839054e-01  1.72052391e-01  1.80129968e-01  1.82149362e-01
  1.86188151e-01  2.00323911e-01  2.26576036e-01  2.75041499e-01
  3.45720298e-01  4.38612434e-01  5.57756695e-01  6.95075505e-01
  8.48549469e-01  1.01615919e+00  1.19184649e+00  1.37561137e+00
  1.56745383e+00  1.76939325e+00  1.98748783e+00  2.22779575e+00
  2.49637519e+00  2.79928433e+00  3.14056196e+00  3.52424687e+00
  3.94831966e+00  4.41076095e+00  4.90349315e+00  5.41843869e+00
  5.94146180e+00  6.46448491e+00  6.97337227e+00  7.45196871e+00
  7.89219666e+00  8.28395914e+00  8.61513980e+00  8.88573863e+00
  9.08565867e+00  9.21489990e+00  9.27144294e+00  9.25326839e+00
  9.15835686e+00  8.98670835e+00  8.73630346e+00  8.40512280e+00
  7.99316637e+00  7.50245356e+00  6.93298438e+00  6.29283640e+00
  5.58604841e+00  4.82069798e+00  4.00486270e+00  3.14863953e+00
  2.26212545e+00  1.35339803e+00  4.32554251e-01 -4.94347715e-01
 -1.41721089e+00 -2.33199649e+00 -3.22658815e+00 -4.09492769e+00
 -4.93297630e+00 -5.73063704e+00 -6.48387110e+00 -7.18863970e+00
 -7.83888465e+00 -8.43460596e+00 -8.97176483e+00 -9.45036127e+00
 -9.86837588e+00 -1.02258087e+01 -1.05226596e+01 -1.07609481e+01
 -1.09366354e+01 -1.10537603e+01 -1.11163615e+01 -1.11224197e+01]","[-1.89292814 -1.59033542 -1.31455471 -1.06558601 -0.84151419 -0.64425438
 -0.47189143 -0.31867993 -0.17887443 -0.04864465  0.07966998  0.21373005
  0.35736583  0.51632277  0.692516    0.88403038  1.08895077  1.30153173
  1.51411269  1.71903308  1.90480203  2.06567411  2.1920736   2.27825507
  2.32038824  2.31464281  2.26293392  2.16526159  2.02737124  1.85500829
  1.65008791  1.42218579  1.17513224  0.91467268  0.64463741  0.3688567
  0.0892457  -0.19228044 -0.47380658 -0.75341757 -1.03111343 -1.30306385
 -1.56735369 -1.82206782 -2.0614608  -2.28361748 -2.47896215 -2.64940994
 -2.78538515 -2.88880292 -2.96157838 -3.00562669 -3.02860842 -3.04201442
 -3.05733558 -3.08606273 -3.13968676 -3.22969852 -3.35801315 -3.5303761
 -3.74678735 -4.00150147 -4.29068819 -4.60860206 -4.94566737 -5.29805383
 -5.65427058 -6.01240247 -6.36095864 -6.69227852 -7.00061668 -7.27448224
 -7.5042995  -7.68240787 -7.79923164 -7.85094053 -7.83561938 -7.75518334
 -7.61920813 -7.44109975 -7.23426422 -7.02168326 -6.82059316 -6.65397565
 -6.53523673 -6.47778242 -6.48927328 -6.57162446 -6.71909054 -6.92209578
 -7.16914933 -7.44493004 -7.73220161 -8.01947318 -8.28950846 -8.53081658
 -8.73765211 -8.90043933 -9.01726311 -9.09003857 -9.12068087 -9.10919001
 -9.06322656 -8.98279052 -8.87745761 -8.74722783 -8.59784661 -8.43505939
 -8.2607813  -8.07884264 -7.89498883 -7.71305017 -7.53685694 -7.36832429
 -7.21319764 -7.07339214 -6.94890779 -6.84357488 -6.75739341 -6.69036338
 -6.6386545  -6.60609705 -6.58694561 -6.58120018 -6.58694561 -6.60035162
 -6.6214182  -6.64439993 -6.67121194 -6.69610881 -6.71717539 -6.73249654
 -6.73441169 -6.72292082 -6.69036338 -6.63099392 -6.54289731 -6.41649781
 -6.25562573 -6.05453564]",5.339076490615859,0.6592882559551383,4.951980000000001,-0.2899599999999998
016,1,1,csm,14b.png,1,1,252,50,255,1,1,374,neu_feedback_onset,10,"[ 4.04272684e-01  3.68446802e-01  3.57251214e-01  3.59490332e-01
  3.72925038e-01  3.88598861e-01  3.97555331e-01  3.93077096e-01
  3.72925038e-01  3.28142686e-01  2.60969157e-01  1.69165335e-01
  5.04921021e-02 -9.05723073e-02 -2.47310540e-01 -4.19722596e-01
 -5.98852004e-01 -7.80220531e-01 -9.59349939e-01 -1.12728376e+00
 -1.28178288e+00 -1.41836905e+00 -1.53480316e+00 -1.62884610e+00
 -1.70273699e+00 -1.75423669e+00 -1.78782345e+00 -1.80573640e+00
 -1.81021463e+00 -1.80125816e+00 -1.78558434e+00 -1.76095404e+00
 -1.72512816e+00 -1.67810669e+00 -1.61093316e+00 -1.52136846e+00
 -1.40269523e+00 -1.24595699e+00 -1.05339288e+00 -8.16046412e-01
 -5.38395829e-01 -2.22680246e-01  1.19904748e-01  4.78163565e-01
  8.38661500e-01  1.18572473e+00  1.50591855e+00  1.78133001e+00
  2.00524177e+00  2.17093648e+00  2.27841412e+00  2.32767471e+00
  2.32543559e+00  2.28513148e+00  2.21347971e+00  2.12391501e+00
  2.02091560e+00  1.91567707e+00  1.81043854e+00  1.70967825e+00
  1.61787443e+00  1.53054884e+00  1.45217973e+00  1.38276708e+00
  1.32678914e+00  1.28648502e+00  1.26409385e+00  1.26857208e+00
  1.30215885e+00  1.37381061e+00  1.48576649e+00  1.64250472e+00
  1.84626442e+00  2.09704560e+00  2.39484824e+00  2.73071588e+00
  3.10017028e+00  3.49649410e+00  3.90625262e+00  4.32272850e+00
  4.73472614e+00  5.13552819e+00  5.51617818e+00  5.87219788e+00
  6.19910906e+00  6.49467258e+00  6.75664934e+00  6.98727845e+00
  7.18655992e+00  7.36121109e+00  7.51123197e+00  7.64110079e+00
  7.75529579e+00  7.86053432e+00  7.95681638e+00  8.05085932e+00
  8.14714137e+00  8.24566255e+00  8.35314019e+00  8.47181343e+00
  8.60168225e+00  8.74722489e+00  8.91068048e+00  9.08980989e+00
  9.28237400e+00  9.49061194e+00  9.71004547e+00  9.93619634e+00
  1.01690646e+01  1.04019328e+01  1.06325619e+01  1.08564737e+01
  1.10736681e+01  1.12751887e+01  1.14655137e+01  1.16424040e+01
  1.18013813e+01  1.19469240e+01  1.20790319e+01  1.21954660e+01
  1.23007045e+01  1.23925084e+01  1.24753557e+01  1.25514857e+01
  1.26186592e+01  1.26835936e+01  1.27440498e+01  1.28000278e+01
  1.28537666e+01  1.29007881e+01  1.29410922e+01  1.29702007e+01
  1.29836354e+01  1.29769181e+01  1.29478095e+01  1.28918316e+01
  1.28089842e+01  1.26970284e+01  1.25626813e+01  1.24104213e+01
  1.22469657e+01  1.20790319e+01  1.19155763e+01  1.17588381e+01
  1.16155346e+01  1.14856657e+01  1.13647534e+01  1.12483193e+01
  1.11274069e+01  1.09908207e+01  1.08251260e+01  1.06191272e+01
  1.03638678e+01  1.00503913e+01  9.67198047e+00  9.22639606e+00
  8.71363813e+00  8.13594579e+00  7.49779727e+00  6.80367081e+00
  6.05804465e+00  5.26987525e+00  4.44364085e+00  3.58605881e+00
  2.70608559e+00  1.80819942e+00  9.03595911e-01 -5.48583814e-03
 -9.07850234e-01 -1.79677992e+00 -2.66331844e+00 -3.50074843e+00
 -4.30011341e+00 -5.05693516e+00 -5.76673544e+00 -6.42727514e+00
 -7.03631513e+00 -7.59161630e+00 -8.09765688e+00 -8.55667599e+00
 -8.96867363e+00 -9.33364980e+00 -9.65384361e+00 -9.92925508e+00
 -1.01598842e+01 -1.03434918e+01 -1.04800780e+01 -1.05718818e+01
 -1.06166642e+01 -1.06233815e+01 -1.05920339e+01 -1.05270995e+01
 -1.04352957e+01 -1.03233398e+01 -1.01889927e+01 -1.00412110e+01
 -9.87999449e+00 -9.70534332e+00 -9.51949656e+00 -9.32469332e+00
 -9.11869450e+00 -8.90821745e+00 -8.69774039e+00 -8.48950246e+00
 -8.29469922e+00 -8.12004805e+00 -7.97674452e+00 -7.86926688e+00
 -7.80881070e+00 -7.79537600e+00 -7.83344100e+00 -7.91628835e+00
 -8.04391805e+00 -8.20513452e+00 -8.39098128e+00 -8.59250187e+00
 -8.80073980e+00 -9.00226039e+00 -9.19034627e+00 -9.35156274e+00
 -9.47919244e+00 -9.56875714e+00 -9.60906126e+00 -9.60010479e+00
 -9.53740950e+00 -9.42097538e+00 -9.25528068e+00 -9.04256451e+00
 -8.78730510e+00 -8.49398069e+00 -8.16930864e+00 -7.81776717e+00
 -7.44159542e+00 -7.04303248e+00 -6.62207837e+00 -6.18321132e+00
 -5.72419221e+00 -5.24726016e+00 -4.75689340e+00 -4.25757018e+00
 -3.75376871e+00 -3.25668461e+00 -2.77751344e+00 -2.32745080e+00
 -1.91769228e+00 -1.55943346e+00 -1.26610905e+00 -1.04219729e+00
 -8.96654646e-01 -8.25002883e-01 -8.29481118e-01 -9.01132882e-01
 -1.02652347e+00 -1.19893552e+00 -1.40045611e+00 -1.61988963e+00
 -1.83932316e+00 -2.05203933e+00 -2.24460345e+00 -2.41253727e+00]","[ -0.7627182   -0.63319658  -0.5511054   -0.50914769  -0.50002645
  -0.51097194  -0.52921442  -0.53833567  -0.52556593  -0.47995972
  -0.39422005  -0.26652267  -0.09504334   0.11656946   0.35737024
   0.62188624   0.89917197   1.17463346   1.44097371   1.68542298
   1.90068428   2.07581211   2.20533374   2.28195216   2.3020189
   2.26370968   2.16702452   2.00831492   1.79487788   1.53036188
   1.21841542   0.8663355    0.48141912   0.06913901  -0.36320783
  -0.81197291  -1.26985922  -1.73686678  -2.20934708  -2.68365163
  -3.15795619  -3.63226074  -4.10474104  -4.5717486   -5.02963491
  -5.47475149  -5.89980134  -6.29931171  -6.66233712  -6.97975632
  -7.24062382  -7.43764263  -7.56169152  -7.61094622  -7.5835825
  -7.48689734  -7.33001199  -7.13116892  -6.90678639  -6.6769311
  -6.4653183   -6.29201472  -6.16979008  -6.11323839  -6.12965662
  -6.21904479  -6.37957864  -6.60213692  -6.87942266  -7.20049036
  -7.55257027  -7.92654117  -8.31145756  -8.70184669  -9.09406007
  -9.4844492   -9.86936558 -10.25245772 -10.63007711 -11.00404801
 -11.37437041 -11.73922006 -12.10042122 -12.45250114 -12.79363556
 -13.12200025 -13.43212246 -13.72035369 -13.97939694 -14.20560373
 -14.39532555 -14.5449139  -14.65619305 -14.73098723 -14.77112069
 -14.78389043 -14.77659344 -14.7565267  -14.73281148 -14.71274475
 -14.7036235  -14.70544775 -14.72369024 -14.7601752  -14.81125415
 -14.87692709 -14.95536977 -15.04293368 -15.13961884 -15.24360099
 -15.35123164 -15.46251079 -15.57378993 -15.68506908 -15.79269972
 -15.89485763 -15.98789429 -16.06633696 -16.12836141 -16.17031912
 -16.1885616  -16.18308885 -16.15572513 -16.10282193 -16.029852
 -15.94046383 -15.83283319 -15.7160813  -15.58838392 -15.45338954
 -15.31292243 -15.16880681 -15.01921846 -14.86780585 -14.7109205
 -14.55038665 -14.38438006 -14.21472497 -14.03959713 -13.85899655]",12.131707136851524,0.026998874438821586,4.466044999999999,0.8702550000000002
016,1,1,csp,40a.png,1,1,100,326,94,1,0,225,neg_feedback_onset,11,"[-9.58620257e-01 -7.53500638e-01 -5.52567135e-01 -3.62098918e-01
 -1.88375160e-01 -3.34889173e-02  9.62806371e-02  1.98840446e-01
  2.74190510e-01  3.22330829e-01  3.45354459e-01  3.45354459e-01
  3.26516943e-01  2.93028026e-01  2.49073822e-01  1.96747389e-01
  1.40234841e-01  8.16292358e-02  2.09305733e-02 -4.18611466e-02
 -1.04652866e-01 -1.69537644e-01 -2.34422421e-01 -3.03493313e-01
 -3.72564205e-01 -4.43728154e-01 -5.16985160e-01 -5.92335224e-01
 -6.67685288e-01 -7.45128409e-01 -8.26757645e-01 -9.12572995e-01
 -1.00466752e+00 -1.10304121e+00 -1.20769408e+00 -1.31862612e+00
 -1.42955816e+00 -1.54049019e+00 -1.64514306e+00 -1.74351675e+00
 -1.82723905e+00 -1.89840300e+00 -1.95491555e+00 -1.99886975e+00
 -2.03026561e+00 -2.04910312e+00 -2.05538230e+00 -2.05119618e+00
 -2.03235867e+00 -1.99677669e+00 -1.93607803e+00 -1.84607656e+00
 -1.71002784e+00 -1.51955962e+00 -1.26002051e+00 -9.18852167e-01
 -4.85589300e-01  4.60472612e-02  6.78150575e-01  1.39816230e+00
  2.19771020e+00  3.04958453e+00  3.93076166e+00  4.80775268e+00
  5.65125479e+00  6.42987211e+00  7.12267409e+00  7.70663708e+00
  8.17129581e+00  8.51246416e+00  8.72595600e+00  8.82223664e+00
  8.80549218e+00  8.69246709e+00  8.49362664e+00  8.22362225e+00
  7.89501224e+00  7.52454110e+00  7.12267409e+00  6.70196957e+00
  6.27498587e+00  5.85218829e+00  5.43985600e+00  5.04845428e+00
  4.68216924e+00  4.34937313e+00  4.05215899e+00  3.79261988e+00
  3.57075580e+00  3.38865982e+00  3.23795969e+00  3.11865542e+00
  3.02446784e+00  2.94702472e+00  2.87795383e+00  2.81097599e+00
  2.73353287e+00  2.63515918e+00  2.50748268e+00  2.34213115e+00
  2.12654625e+00  1.85654185e+00  1.52583879e+00  1.13025096e+00
  6.73964460e-01  1.59072357e-01 -4.06053122e-01 -1.00885363e+00
 -1.63886389e+00 -2.27933943e+00 -2.92190803e+00 -3.54982523e+00
 -4.15890491e+00 -4.73658874e+00 -5.28496976e+00 -5.79986186e+00
 -6.28126504e+00 -6.73336543e+00 -7.15406995e+00 -7.54547167e+00
 -7.90966365e+00 -8.24664588e+00 -8.55641836e+00 -8.84107416e+00
 -9.10270632e+00 -9.34340792e+00 -9.56736505e+00 -9.78085690e+00
 -9.99016263e+00 -1.01973753e+01 -1.04024949e+01 -1.06097076e+01
 -1.08127342e+01 -1.10073885e+01 -1.11852984e+01 -1.13401846e+01
 -1.14657680e+01 -1.15578626e+01 -1.16143751e+01 -1.16373987e+01
 -1.16290265e+01 -1.15955376e+01 -1.15390251e+01 -1.14678611e+01
 -1.13778596e+01 -1.12711137e+01 -1.11434372e+01 -1.09885510e+01
 -1.08001758e+01 -1.05699395e+01 -1.02936559e+01 -9.96504594e+00
 -9.58620257e+00 -9.15921887e+00 -8.69246709e+00 -8.19222639e+00
 -7.67524122e+00 -7.15616301e+00 -6.65592231e+00 -6.19126358e+00
 -5.78521046e+00 -5.45450740e+00 -5.21799192e+00 -5.08403625e+00
 -5.06310568e+00 -5.14892103e+00 -5.33729619e+00 -5.60520753e+00
 -5.93381753e+00 -6.29382339e+00 -6.65173619e+00 -6.98243925e+00
 -7.25453670e+00 -7.45128409e+00 -7.56012307e+00 -7.57268142e+00
 -7.49314524e+00 -7.32779371e+00 -7.08290600e+00 -6.77104046e+00
 -6.39429014e+00 -5.95265504e+00 -5.44613517e+00 -4.86426523e+00
 -4.19867300e+00 -3.43889319e+00 -2.58283274e+00 -1.63049166e+00
 -5.88149109e-01  5.29543504e-01  1.69537644e+00  2.88632606e+00
  4.06890345e+00  5.21171275e+00  6.28754422e+00  7.27337422e+00
  8.15245830e+00  8.91851728e+00  9.56736505e+00  1.01031877e+01
  1.05343575e+01  1.08713398e+01  1.11225066e+01  1.12962304e+01
  1.14050694e+01  1.14511166e+01  1.14427444e+01  1.13841388e+01
  1.12773929e+01  1.11308789e+01  1.09445968e+01  1.07269188e+01
  1.04820311e+01  1.02141198e+01  9.93155703e+00  9.63643594e+00
  9.33503569e+00  9.02944932e+00  8.72595600e+00  8.42874186e+00
  8.13989995e+00  7.86152333e+00  7.59989116e+00  7.35709651e+00
  7.13104632e+00  6.92592670e+00  6.73755154e+00  6.56592084e+00
  6.40684848e+00  6.25614836e+00  6.10963434e+00  5.96102727e+00
  5.80614103e+00  5.63660339e+00  5.45241434e+00  5.24520167e+00
  5.01077925e+00  4.75124014e+00  4.46030517e+00  4.14425351e+00
  3.80099211e+00  3.43889319e+00  3.06004981e+00  2.67492727e+00
  2.28771166e+00  1.90886828e+00  1.54258325e+00  1.19304268e+00
  8.64432677e-01  5.58846307e-01  2.74190510e-01  1.04652866e-02
 -2.38608535e-01 -4.73030956e-01 -7.01174205e-01 -9.25131339e-01
 -1.15118153e+00 -1.38141784e+00 -1.61584026e+00 -1.85863491e+00]","[nan nan nan nan nan nan nan nan nan nan nan nan nan nan nan nan nan nan
 nan nan nan nan nan nan nan nan nan nan nan nan nan nan nan nan nan nan
 nan nan nan nan nan nan nan nan nan nan nan nan nan nan nan nan nan nan
 nan nan nan nan nan nan nan nan nan nan nan nan nan nan nan nan nan nan
 nan nan nan nan nan nan nan nan nan nan nan nan nan nan nan nan nan nan
 nan nan nan nan nan nan nan nan nan nan nan nan nan nan nan nan nan nan
 nan nan nan nan nan nan nan nan nan nan nan nan nan nan nan nan nan nan
 nan nan nan nan nan nan nan nan nan nan nan nan nan nan]",7.597850430123275,,4.7777,1.006569999999999
016,1,1,csm,35b.png,1,1,56,52,56,1,1,256,neu_feedback_onset,12,"[-2.35242095 -2.20062347 -2.01582654 -1.80683001 -1.57363388 -1.325038
 -1.06544231 -0.79264684 -0.51325148 -0.22725623  0.06533892  0.36233399
  0.66372898  0.96732394  1.26871894  1.56571401  1.85170926  2.1267047
  2.38190046  2.61949652  2.83289297  3.01988987  3.18488713  3.32788476
  3.44888275  3.554481    3.64687946  3.73047807  3.81407669  3.8976753
  3.99227373  4.10007194  4.22326989  4.36626752  4.52906482  4.71166179
  4.91185846  5.12745488  5.35625109  5.59384714  5.84024305  6.09323885
  6.35063458  6.61023027  6.87422589  7.13822151  7.40441709  7.67061267
  7.93900821  8.20740376  8.4757993   8.74419485  9.01259039  9.28098594
  9.54718152  9.81557706 10.08397261 10.35016819 10.61856373 10.88915924
 11.15975475 11.43035026 11.70314573 11.9759412  12.24653671 12.51713222
 12.78112783 13.0363236  13.28271951 13.51591564 13.73151206 13.93170873
 14.10990578 14.26830315 14.40250092 14.51689902 14.60709752 14.67309643
 14.71489573 14.73249544 14.72369559 14.68849617 14.62689719 14.54109862
 14.42670052 14.28590285 14.12530552 13.94270855 13.74471184 13.53791527
 13.32451881 13.11332232 12.90872572 12.71512893 12.53693189 12.37633455
 12.23773685 12.11673886 12.01114062 11.91654219 11.82854365 11.74054511
 11.64374671 11.5359485  11.40615066 11.25655314 11.08055606 10.88475931
 10.66476296 10.42496695 10.16977118  9.90137564  9.61758035  9.32058528
  9.0059905   8.67379601  8.31520197  7.92580843  7.50561541  7.05022297
  6.56183107  6.03823977  5.48604893  4.90745854  4.31126843  3.69747862
  3.07708892  2.45009933  1.82090977  1.19392018  0.57133052 -0.0424593
 -0.64524929 -1.23043957 -1.79803015 -2.34142113 -2.85621259 -3.34020455
 -3.79119707 -4.2047902  -4.58318392 -4.92417826 -5.22997318 -5.50276865
 -5.74036471 -5.94936124 -6.12975825 -6.28595565 -6.4157535  -6.52575167
 -6.61595018 -6.68634901 -6.74134809 -6.77874747 -6.79854714 -6.79854714
 -6.77654751 -6.72594835 -6.64674966 -6.53235156 -6.38055408 -6.19135722
 -5.96696095 -5.70956522 -5.43016986 -5.13757472 -4.84717954 -4.5721841
 -4.32578819 -4.12779148 -3.98479385 -3.90779513 -3.89679531 -3.94739447
 -4.05079276 -4.19159042 -4.34778783 -4.49738534 -4.61398341 -4.67558239
 -4.6623826  -4.55678436 -4.35218775 -4.0419929  -3.63059973 -3.12680809
 -2.54381777 -1.90142844 -1.21503983 -0.50445163  0.21273647  0.92112471
  1.61191324  2.26970232  2.89229199  3.47308235  4.00767347  4.49606537
  4.9338581   5.32325163  5.66204601  5.94804126  6.18563732  6.37703414
  6.52883162  6.64762965  6.74662801  6.83462655  6.92922497  7.04362308
  7.19102063  7.38461742  7.63101333  7.93240832  8.29100237  8.69799561
  9.1445882   9.61978031 10.10377228 10.58336432 11.04315668 11.47214956
 11.85714317 12.19373758 12.47753287 12.710729   12.89552593 13.03412363
 13.13312199 13.19692093 13.22552046 13.2167206  13.17052137 13.08472279
 12.95712491 12.7833278  12.56993134 12.31693554 12.03754018 11.73614518
 11.42815029 11.12015541 10.8253603  10.5481649  10.29296914 10.0663729
  9.86617622  9.69457907  9.55158144  9.43938331  9.35578469  9.30078561
  9.27658601  9.27658601  9.29858564  9.33378506  9.37778433  9.41958363
  9.45038312  9.45918298]","[-6.48348810e-01 -5.82526596e-01 -5.16704381e-01 -4.42903717e-01
 -3.61124602e-01 -2.69372425e-01 -1.67647185e-01 -5.59488821e-02
  5.97386459e-02  1.73431561e-01  2.83135252e-01  3.76882042e-01
  4.48688093e-01  4.88580344e-01  4.90574957e-01  4.46693481e-01
  3.50952078e-01  2.01356137e-01 -6.08356828e-03 -2.69372425e-01
 -5.86515821e-01 -9.51529918e-01 -1.36042549e+00 -1.80322948e+00
 -2.27196343e+00 -2.75665428e+00 -3.25331280e+00 -3.75196594e+00
 -4.24662985e+00 -4.73331532e+00 -5.21202233e+00 -5.68075628e+00
 -6.13951716e+00 -6.59029960e+00 -7.03310359e+00 -7.46992374e+00
 -7.90275466e+00 -8.33359097e+00 -8.76043806e+00 -9.18728514e+00
 -9.61213762e+00 -1.00369901e+01 -1.04618426e+01 -1.08847004e+01
 -1.13055637e+01 -1.17244323e+01 -1.21393117e+01 -1.25482073e+01
 -1.29471298e+01 -1.33340846e+01 -1.37010933e+01 -1.40421721e+01
 -1.43533317e+01 -1.46285882e+01 -1.48619579e+01 -1.50534407e+01
 -1.52030366e+01 -1.53147349e+01 -1.54005032e+01 -1.54723093e+01
 -1.55441153e+01 -1.56358675e+01 -1.57635227e+01 -1.59370540e+01
 -1.61664345e+01 -1.64576479e+01 -1.68047105e+01 -1.72036330e+01
 -1.76404531e+01 -1.81051979e+01 -1.85799156e+01 -1.90506442e+01
 -1.95054159e+01 -1.99362522e+01 -2.03351747e+01 -2.07021834e+01
 -2.10352837e+01 -2.13364702e+01 -2.16077375e+01 -2.18530748e+01
 -2.20764715e+01 -2.22759327e+01 -2.24574424e+01 -2.26170115e+01
 -2.27546397e+01 -2.28663380e+01 -2.29521064e+01 -2.30079555e+01
 -2.30298963e+01 -2.30159340e+01 -2.29680633e+01 -2.28862841e+01
 -2.27686020e+01 -2.26210007e+01 -2.24474694e+01 -2.22500027e+01
 -2.20345846e+01 -2.18052041e+01 -2.15658506e+01 -2.13205133e+01
 -2.10691921e+01 -2.08178709e+01 -2.05665497e+01 -2.03152286e+01
 -2.00619128e+01 -1.98085970e+01 -1.95552812e+01 -1.92979762e+01
 -1.90366819e+01 -1.87694038e+01 -1.84921527e+01 -1.82049285e+01
 -1.79037420e+01 -1.75846040e+01 -1.72475145e+01 -1.68884842e+01
 -1.65095078e+01 -1.61105853e+01 -1.56917167e+01 -1.52608804e+01
 -1.48180764e+01 -1.43732778e+01 -1.39324684e+01 -1.34996375e+01
 -1.30867527e+01 -1.26958086e+01 -1.23347837e+01 -1.20076673e+01
 -1.17204431e+01 -1.14731111e+01 -1.12676660e+01 -1.11041078e+01
 -1.09824364e+01 -1.08966681e+01 -1.08448082e+01 -1.08208728e+01
 -1.08168836e+01 -1.08268567e+01 -1.08428136e+01 -1.08567758e+01]",13.355263302629192,-1.4511216967676082,4.545529999999999,0.8139399999999997
016,1,1,csp,65a.png,1,1,120,144,114,1,1,276,pos_feedback_onset,13,"[  2.27818075   2.09588236   1.88722758   1.65441277   1.4062234
   1.14485584   0.8747028    0.60015704   0.32561128   0.05765461
  -0.20590932  -0.45849143  -0.7000917   -0.93071014  -1.15034675
  -1.36339426  -1.56985268  -1.77411473  -1.98057314  -2.19142429
  -2.40886453  -2.63948298  -2.88108325  -3.13805808  -3.40821111
  -3.68934598  -3.9792663   -4.2779721   -4.57887425  -4.87977641
  -5.1784822   -5.46840253  -5.75173376  -6.02188679  -6.27886162
  -6.5204619   -6.74449124  -6.95314602  -7.14422987  -7.31774279
  -7.47368479  -7.61644859  -7.74383782  -7.85804886  -7.96127807
  -8.05791817  -8.14577282  -8.22923473  -8.30830391  -8.38737309
  -8.46424591  -8.54111872  -8.6201879   -8.69925708  -8.77832626
  -8.85739544  -8.93426825  -9.01333743  -9.08801388  -9.16269033
  -9.23297404  -9.30325776  -9.36914874  -9.43064699  -9.48994888
  -9.54266167  -9.59098172  -9.63051631  -9.65906907  -9.67224727
  -9.6700509   -9.65028361  -9.61074902  -9.54925076  -9.46798522
  -9.37134511  -9.26372317  -9.14951213  -9.03749746  -8.93646462
  -8.85300271  -8.79370082  -8.7629517   -8.76075533  -8.78930809
  -8.84641361  -8.92548279  -9.01992653  -9.12315574  -9.22638495
  -9.32522142  -9.41307607  -9.48335978  -9.53167984  -9.55803623
  -9.55803623  -9.53167984  -9.47896705  -9.3977015   -9.29007956
  -9.14951213  -8.98039194  -8.78052263  -8.54990418  -8.28634025
  -7.99422356  -7.67575047  -7.32872463  -6.95973512  -6.57097832
  -6.16684695  -5.75173376  -5.33222783  -4.91052554  -4.49321597
  -4.08908461  -3.69813144  -3.32914193  -2.98211609  -2.66583937
  -2.37372268  -2.11015874  -1.8729512   -1.65331459  -1.44685618
  -1.24918323  -1.05370664  -0.84944459  -0.63639708  -0.41017137
  -0.16637473   0.09279647   0.36514587   0.64628073   0.93620106
   1.22612138   1.51604171   1.8015693    2.0805078    2.3528572
   2.61422477   2.8646105    3.10621077   3.33463285   3.5520731
   3.75633514   3.94522263   4.11873555   4.28126664   4.43061954
   4.56899061   4.70077257   4.82816181   4.95774741   5.08952937
   5.2300968    5.37725333   5.53539169   5.69792279   5.86484661
   6.02518134   6.17453423   6.2997271    6.39197448   6.44029453
   6.44029453   6.38318901   6.27117434   6.10644688   5.89339937
   5.64521      5.3728606    5.08733301   4.80619815   4.54043785
   4.29664121   4.08359369   3.90349167   3.75853151   3.64432047
   3.55646583   3.49057484   3.43786206   3.39393473   3.34561468
   3.28850916   3.21602908   3.1171926    2.987607     2.82507591
   2.62301023   2.38360632   2.11125693   1.80596204   1.47870349
   1.14265947   0.80441909   0.47716054   0.17406201  -0.09828738
  -0.33549492  -0.53536424  -0.69569897  -0.8230882   -0.92192468
  -0.99440476  -1.04931391  -1.0888485   -1.11959763  -1.13936492
  -1.15473948  -1.16352495  -1.16791768  -1.16572131  -1.15913222
  -1.14595402  -1.12838309  -1.11081216  -1.09104487  -1.07786667
  -1.07127757  -1.07786667  -1.1020267   -1.14815039  -1.21623773
  -1.30848511  -1.42269615  -1.56106721  -1.71920557  -1.8927185
  -2.08599872  -2.29245713  -2.51429011  -2.75369401  -3.01066885
  -3.28521461  -3.57733131  -3.88921529  -4.21867021  -4.56130332
  -4.91711463  -5.28171141  -5.65509365  -6.03067225  -6.41064359
  -6.79061493  -7.174979    -7.56153943  -7.95468897  -8.35003487
  -8.7497735   -9.1517085   -9.5536435   -9.95118576 -10.33994257
 -10.7133248  -11.06474338 -11.39200193 -11.69070772 -11.96086076]","[-4.70541421 -4.30855791 -3.88823161 -3.44443532 -2.97503539 -2.48856638
 -1.98502828 -1.46868836 -0.9438139  -0.41040489  0.12513775  0.66921494
  1.21969303  1.77870567  2.34838649  2.92660185  3.51335176  4.1022353
  4.68471794  5.25013149  5.78567413  6.28067769  6.72234034  7.09999392
  7.40723751  7.63980383  7.80196017  7.89157288  7.92144379  7.89584016
  7.82329653  7.71661473  7.58219566  7.42857387  7.25788298  7.07865756
  6.89303122  6.70313762  6.50897674  6.31481586  6.11852135  5.92222683
  5.72593232  5.5296378   5.33120965  5.13491514  4.93862063  4.74232611
  4.5460316   4.34973708  4.15344257  3.95928169  3.76512081  3.57522721
  3.39173451  3.21250908  3.04608547  2.89459731  2.76231188  2.65563008
  2.58095282  2.5382801   2.53401283  2.56601737  2.63216008  2.72390643
  2.83272187  2.94367094  3.04821911  3.12929728  3.1783709   3.18477181
  3.1485      3.0652882   2.93727003  2.76871279  2.56601737  2.33558467
  2.08594926  1.81924476  1.54187207  1.26023212  0.97645853  0.69268494
  0.41531225  0.14860775 -0.1031613  -0.33146036 -0.53202214 -0.69417848
 -0.81152846 -0.87767118 -0.88620572 -0.83713209 -0.73258393 -0.57896214
 -0.38480126 -0.16290311  0.07179685  0.30222954  0.51772678  0.70335312
  0.85484127  0.96792398  1.04046761  1.07887306  1.08314033  1.06180397
  1.01913125  0.96152307  0.88684581  0.7972331   0.6905513   0.56466677
  0.41744589  0.24675501  0.04832686 -0.17357129 -0.4168058  -0.68137666
 -0.95874935 -1.24679021 -1.54123198 -1.83994103 -2.13865007 -2.43522548
 -2.73180088 -3.02624266 -3.31641716 -3.60232438 -3.88396434 -4.15493611
 -4.41737334 -4.66487512 -4.89317418 -5.10227051 -5.28789684 -5.44578591
 -5.58020498 -5.68902042]",4.934465926125246,5.311526861944141,4.552974999999999,0.04660500000000045
016,1,1,csp,33a.png,1,1,332,226,331,1,1,202,pos_feedback_onset,14,"[ 3.12388974e+00  2.72158248e+00  2.31405045e+00  1.90390604e+00
  1.49637401e+00  1.09667914e+00  7.12658572e-01  3.49537085e-01
  7.31467742e-03 -3.03559113e-01 -5.88309056e-01 -8.39097996e-01
 -1.05592593e+00 -1.24401764e+00 -1.39814834e+00 -1.52093043e+00
 -1.61497628e+00 -1.68289828e+00 -1.72730883e+00 -1.75082029e+00
 -1.75604506e+00 -1.75082029e+00 -1.73775836e+00 -1.72208406e+00
 -1.70640975e+00 -1.69857259e+00 -1.69073544e+00 -1.68812305e+00
 -1.68028590e+00 -1.66199921e+00 -1.62542582e+00 -1.56011620e+00
 -1.45562081e+00 -1.30149010e+00 -1.09511171e+00 -8.31260841e-01
 -5.04712742e-01 -1.23304562e-01  3.15576083e-01  8.01479655e-01
  1.33179377e+00  1.89345650e+00  2.48124308e+00  3.08992873e+00
  3.71428870e+00  4.34648582e+00  4.98652009e+00  5.63177914e+00
  6.27703818e+00  6.92229723e+00  7.56494389e+00  8.20759055e+00
  8.84501243e+00  9.47720956e+00  1.00989571e+01  1.07102552e+01
  1.13084913e+01  1.18884407e+01  1.24527158e+01  1.29934795e+01
  1.35107317e+01  1.40044724e+01  1.44720893e+01  1.49109699e+01
  1.53211143e+01  1.57025225e+01  1.60525821e+01  1.63686806e+01
  1.66482058e+01  1.68911576e+01  1.70923112e+01  1.72516667e+01
  1.73692240e+01  1.74423708e+01  1.74763318e+01  1.74711070e+01
  1.74371460e+01  1.73770612e+01  1.72986896e+01  1.72098685e+01
  1.71132103e+01  1.70191645e+01  1.69251186e+01  1.68415223e+01
  1.67605384e+01  1.66873916e+01  1.66194696e+01  1.65515476e+01
  1.64836256e+01  1.64130912e+01  1.63347196e+01  1.62458986e+01
  1.61492403e+01  1.60369078e+01  1.59115133e+01  1.57704445e+01
  1.56110891e+01  1.54308345e+01  1.52349056e+01  1.50154653e+01
  1.47803507e+01  1.45295617e+01  1.42657109e+01  1.39887981e+01
  1.37092729e+01  1.34245230e+01  1.31423854e+01  1.28628602e+01
  1.25911722e+01  1.23273214e+01  1.20713077e+01  1.18231311e+01
  1.15854041e+01  1.13607390e+01  1.11465234e+01  1.09505946e+01
  1.07755648e+01  1.06266589e+01  1.05117139e+01  1.04333424e+01
  1.04019938e+01  1.04150557e+01  1.04803653e+01  1.05926979e+01
  1.07520533e+01  1.09532070e+01  1.11857092e+01  1.14417229e+01
  1.17134109e+01  1.19903237e+01  1.22672365e+01  1.25363121e+01
  1.27949382e+01  1.30457272e+01  1.32912914e+01  1.35368555e+01
  1.37876445e+01  1.40488829e+01  1.43310205e+01  1.46314448e+01
  1.49579929e+01  1.53002153e+01  1.56633367e+01  1.60369078e+01
  1.64130912e+01  1.67866622e+01  1.71471713e+01  1.74946185e+01
  1.78185542e+01  1.81163661e+01  1.83802169e+01  1.86127192e+01
  1.88008109e+01  1.89418797e+01  1.90254760e+01  1.90411503e+01
  1.89758407e+01  1.88243223e+01  1.85709210e+01  1.82130243e+01
  1.77480198e+01  1.71785199e+01  1.65149742e+01  1.57704445e+01
  1.49658300e+01  1.41194173e+01  1.32573304e+01  1.24056929e+01
  1.15827917e+01  1.08095258e+01  1.01015695e+01  9.46414763e+00
  8.90248490e+00  8.41396894e+00  7.99076261e+00  7.62502874e+00
  7.30109302e+00  7.01373069e+00  6.74726745e+00  6.49386612e+00
  6.24568957e+00  6.00012539e+00  5.75456122e+00  5.51160944e+00
  5.26865765e+00  5.02831825e+00  4.79842839e+00  4.58160045e+00
  4.37522205e+00  4.18713035e+00  4.01732534e+00  3.86580702e+00
  3.73257539e+00  3.62285523e+00  3.53403415e+00  3.46872453e+00
  3.43215114e+00  3.42431399e+00  3.45043784e+00  3.51052269e+00
  3.60195615e+00  3.72735062e+00  3.88409371e+00  4.06173588e+00
  4.26027712e+00  4.46926791e+00  4.68609584e+00  4.90292378e+00
  5.12236410e+00  5.33919204e+00  5.55601998e+00  5.78329746e+00
  6.01841209e+00  6.27442580e+00  6.54872620e+00  6.84915045e+00
  7.17569855e+00  7.52837050e+00  7.90716629e+00  8.30424878e+00
  8.71961796e+00  9.15066146e+00  9.58954210e+00  1.00362599e+01
  1.04882025e+01  1.09427574e+01  1.13973124e+01  1.18518673e+01
  1.23011975e+01  1.27426905e+01  1.31763464e+01  1.35917156e+01
  1.39887981e+01  1.43545320e+01  1.46863048e+01  1.49710548e+01
  1.52035570e+01  1.53759744e+01  1.54778574e+01  1.55092060e+01
  1.54700203e+01  1.53603001e+01  1.51852703e+01  1.49527681e+01
  1.46732429e+01  1.43545320e+01  1.40096972e+01  1.36439633e+01
  1.32703923e+01  1.28889841e+01  1.25049635e+01  1.21235554e+01
  1.17421472e+01  1.13633514e+01  1.09897804e+01  1.06162093e+01
  1.02530878e+01  9.89780351e+00  9.55819348e+00  9.23948254e+00]","[ -3.50586872  -3.12565257  -2.73558626  -2.33566979  -1.92787319
  -1.51022644  -1.08863961  -0.66705279  -0.2533461    0.14657037
   0.52481649   0.8774522    1.19856739   1.48619205   1.73441606
   1.94520947   2.12251234   2.26435464   2.38058652   2.46923795
   2.5401591    2.59137993   2.62881053   2.65442095   2.66427111
   2.66427111   2.65048088   2.62290044   2.58152977   2.52833891
   2.46529789   2.39043668   2.30572531   2.21510384   2.11463221
   2.01022053   1.89792871   1.77578673   1.6437946    1.49801224
   1.33449959   1.14734656   0.93458312   0.68832914   0.41055464
   0.09534954  -0.25531613  -0.63947235  -1.04923898  -1.48264599
  -1.93181326  -2.39083068  -2.85181814  -3.31083557  -3.76591293
  -4.2091701   -4.64060709  -5.05628381  -5.45029019  -5.82065618
  -6.15950166  -6.46091654  -6.71899071  -6.92781409  -7.08344661
  -7.18588827  -7.2371091   -7.24498922  -7.21346871  -7.15830782
  -7.08541664  -7.0085854   -6.93569422  -6.87068317  -6.81946234
  -6.78400177  -6.76233141  -6.75248126  -6.75445129  -6.76233141
  -6.77612164  -6.79188189  -6.80764215  -6.82143237  -6.8293125
  -6.8293125   -6.81552228  -6.78203173  -6.72687084  -6.64215947
  -6.52395756  -6.36832504  -6.17132185  -5.93491803  -5.6610836
  -5.35769869  -5.03461346  -4.70561814  -4.38056288  -4.07717797
  -3.80925363  -3.5905801   -3.43100751  -3.33841602  -3.32068573
  -3.37584662  -3.50783876  -3.71075204  -3.97867637  -4.30570167
  -4.68197775  -5.10159454  -5.55076181  -6.02159943  -6.50228721
  -6.98297498  -7.45775267  -7.91283003  -8.34426701  -8.74418348
  -9.11060941  -9.44157476  -9.73510951  -9.99712375 -10.23155755
 -10.44038093 -10.63344405 -10.81271695 -10.98804979 -11.15747253
 -11.3288653  -11.49828804 -11.66771078 -11.83319346 -11.99276604
 -12.14248847 -12.28236073 -12.4104128  -12.52861471 -12.6389365 ]",15.317065142427229,1.5562759305445373,3.8279199999999998,-0.2283350000000004
016,2,1,csm,3b.png,1,1,4,1,4,1,0,NaN,neu_feedback_onset,1,"[-1.04409240e+00 -7.88467441e-01 -5.44461798e-01 -3.23694788e-01
 -1.28102963e-01  3.45674661e-02  1.66253051e-01  2.65017240e-01
  3.30860033e-01  3.67654534e-01  3.79273851e-01  3.65717982e-01
  3.32796585e-01  2.82446215e-01  2.20476528e-01  1.50760629e-01
  7.71716260e-02  7.45572798e-03 -5.45139592e-02 -9.71181191e-02
 -1.14547094e-01 -9.90546718e-02 -3.70849846e-02  7.52350733e-02
  2.47588266e-01  4.81911145e-01  7.82076817e-01  1.14614873e+00
  1.57025378e+00  2.04664575e+00  2.56564188e+00  3.11562285e+00
  3.68496935e+00  4.25625240e+00  4.81591614e+00  5.35427780e+00
  5.85778150e+00  6.31674450e+00  6.72729368e+00  7.08749248e+00
  7.39734092e+00  7.66071209e+00  7.88535221e+00  8.07707093e+00
  8.24555101e+00  8.39853868e+00  8.54571668e+00  8.68902159e+00
  8.83232649e+00  8.97756794e+00  9.12474595e+00  9.26998740e+00
  9.41522886e+00  9.55853376e+00  9.70183866e+00  9.84901667e+00
  1.00020043e+01  1.01704844e+01  1.03544569e+01  1.05616681e+01
  1.07959909e+01  1.10535525e+01  1.13324161e+01  1.16287086e+01
  1.19327474e+01  1.22329131e+01  1.25195229e+01  1.27809575e+01
  1.30055976e+01  1.31856970e+01  1.33154460e+01  1.33929082e+01
  1.34161468e+01  1.33909716e+01  1.33212557e+01  1.32186184e+01
  1.30888694e+01  1.29494376e+01  1.28100058e+01  1.26841299e+01
  1.25834291e+01  1.25195229e+01  1.25001573e+01  1.25272691e+01
  1.26066677e+01  1.27344802e+01  1.29048969e+01  1.31101715e+01
  1.33406212e+01  1.35865634e+01  1.38325056e+01  1.40726382e+01
  1.42972783e+01  1.44986798e+01  1.46749061e+01  1.48240206e+01
  1.49460234e+01  1.50467242e+01  1.51299959e+01  1.51997118e+01
  1.52636181e+01  1.53217147e+01  1.53798112e+01  1.54398444e+01
  1.55018141e+01  1.55618472e+01  1.56180072e+01  1.56683576e+01
  1.57070887e+01  1.57322638e+01  1.57400101e+01  1.57264542e+01
  1.56915962e+01  1.56296265e+01  1.55444182e+01  1.54320982e+01
  1.52965395e+01  1.51396787e+01  1.49653890e+01  1.47814165e+01
  1.45935708e+01  1.44115349e+01  1.42488645e+01  1.41171789e+01
  1.40261609e+01  1.39874298e+01  1.40087319e+01  1.40958768e+01
  1.42488645e+01  1.44676949e+01  1.47407488e+01  1.50622166e+01
  1.54185423e+01  1.57942335e+01  1.61796075e+01  1.65572353e+01
  1.69193707e+01  1.72563308e+01  1.75603696e+01  1.78295504e+01
  1.80619368e+01  1.82575286e+01  1.84182625e+01  1.85460749e+01
  1.86448391e+01  1.87164916e+01  1.87649054e+01  1.87939537e+01
  1.88075096e+01  1.88075096e+01  1.87958902e+01  1.87784613e+01
  1.87552226e+01  1.87261743e+01  1.86951895e+01  1.86622681e+01
  1.86274102e+01  1.85925522e+01  1.85576943e+01  1.85208998e+01
  1.84860418e+01  1.84492473e+01  1.84143894e+01  1.83775949e+01
  1.83408004e+01  1.83059424e+01  1.82691479e+01  1.82342900e+01
  1.81974955e+01  1.81626375e+01  1.81277796e+01  1.80929216e+01
  1.80600002e+01  1.80270788e+01  1.79980305e+01  1.79709188e+01
  1.79476802e+01  1.79283146e+01  1.79147588e+01  1.79050760e+01
  1.79012029e+01  1.79031394e+01  1.79108857e+01  1.79225050e+01
  1.79399339e+01  1.79573629e+01  1.79786650e+01  1.80019036e+01
  1.80232057e+01  1.80464443e+01  1.80696830e+01  1.80929216e+01
  1.81142237e+01  1.81355258e+01  1.81568278e+01  1.81781299e+01
  1.81994320e+01  1.82207341e+01  1.82400996e+01  1.82614017e+01
  1.82827038e+01  1.83020693e+01  1.83233714e+01  1.83427369e+01
  1.83640390e+01  1.83853411e+01  1.84047066e+01  1.84260087e+01
  1.84473108e+01  1.84666763e+01  1.84879784e+01  1.85073439e+01
  1.85286460e+01  1.85499481e+01  1.85693136e+01  1.85906157e+01
  1.86099812e+01  1.86312833e+01  1.86525853e+01  1.86719509e+01
  1.86932530e+01  1.87126185e+01  1.87339206e+01  1.87552226e+01
  1.87745882e+01  1.87958902e+01  1.88152558e+01  1.88346213e+01
  1.88539868e+01  1.88714158e+01  1.88869082e+01  1.89004641e+01
  1.89082103e+01  1.89082103e+01  1.88965910e+01  1.88733524e+01
  1.88307482e+01  1.87668420e+01  1.86758240e+01  1.85538212e+01
  1.83969604e+01  1.82052417e+01  1.79747919e+01  1.77094842e+01
  1.74112551e+01  1.70801045e+01  1.67257154e+01  1.63480876e+01
  1.59549674e+01  1.55502279e+01  1.51416153e+01  1.47330026e+01
  1.43321362e+01  1.39428891e+01  1.35768807e+01  1.32399205e+01
  1.29397548e+01  1.26860664e+01  1.24846649e+01  1.23394235e+01]","[ 1.05091942  0.87341149  0.67054528  0.44775471  0.2140963  -0.0195621
 -0.24235267 -0.44340757 -0.61004767 -0.73140514 -0.79842344 -0.80566866
 -0.74770689 -0.62816073 -0.44521888 -0.20612656  0.08187101  0.40971729
  0.77197838  1.15778644  1.56170755  1.98011911  2.40577589  2.83867789
  3.2752025   3.71172712  4.15187434  4.59021026  5.03035748  5.4705047
  5.90884062  6.34536523  6.78188984  7.21298054  7.64044862  8.06067149
  8.47183782  8.87394763  9.25975569  9.63107331  9.98246656 10.31574677
 10.6272913  10.91891148 11.18698468 11.43513353 11.66154671 11.86622423
 12.05097738 12.21037226 12.34803147 12.46033241 12.54546377 12.60342554
 12.62878382 12.6233499  12.58168988 12.50742635 12.39693672 12.25203228
 12.07271305 11.858979   11.61445277 11.33913434 11.03302372 10.70155482
 10.34110504  9.95529698  9.54594195  9.11303995  8.66021359  8.18927417
  7.70565562  7.21479184  6.72392807  6.23849821  5.76755879  5.32197766
  4.91081132  4.54673893  4.238817    3.99972468  3.83489589  3.74795322
  3.74251931  3.81316022  3.95081943  4.14462912  4.37828752  4.63187028
  4.88907565  5.12997928  5.3382794   5.50129689  5.61359783  5.67155961
  5.67518222  5.62808828  5.54295692  5.42341076  5.28031763  5.12273406
  4.95790526  4.78764255  4.61737984  4.44892843  4.28228833  4.11927084
  3.95987596  3.80410369  3.65376534  3.51067221  3.37844691  3.26433467
  3.17195809  3.11218501  3.09226065  3.12305285  3.21180681  3.36757908
  3.59580357  3.89466897  4.26236397  4.68802075  5.15896017  5.65888047
  6.17147991  6.68045674  7.16950921  7.62414688  8.03531321  8.39576299
  8.70006231  8.94458854  9.1293417   9.25251047  9.31590616  9.32134008
  9.27062352  9.16556781]",18.1519380535515,10.712150961440912,5.163815,-0.8250700000000002
016,2,1,csp,35a.png,1,1,284,281,283,1,1,357,pos_feedback_onset,2,"[ -1.65046468  -1.47693451  -1.29288737  -1.1018289   -0.90901761
  -0.71445349  -0.52339502  -0.33408939  -0.15004224   0.02874641
   0.20052375   0.36353693   0.51778597   0.66151802   0.79648593
   0.91743119   1.02961231   1.12777079   1.21716511   1.2925368
   1.35563868   1.40471792   1.44152735   1.46256131   1.4678198
   1.45730282   1.4327632    1.39595377   1.34862736   1.29428963
   1.23644624   1.17860285   1.12777079   1.08570287   1.05941042
   1.05064627   1.06116325   1.09271419   1.14880475   1.22592926
   1.32058208   1.43451603   1.56071978   1.69393486   1.83065559
   1.9656235    2.09358009   2.21101969   2.31618949   2.40733665
   2.48446116   2.5510687    2.61066492   2.66324982   2.71758755
   2.77192527   2.82801583   2.88585922   2.94370261   2.99453468
   3.03484976   3.05763655   3.05763655   3.03134411   2.97525355
   2.89462337   2.78945357   2.66850831   2.53529323   2.39681967
   2.26185176   2.13214234   2.01294991   1.90427445   1.81137446
   1.73074429   1.66588958   1.61856317   1.59051789   1.5852594
   1.60454053   1.65186694   1.73074429   1.83941974   1.97438765
   2.13038951   2.29690836   2.46518003   2.61942907   2.74738565
   2.83502715   2.87008375   2.8437913    2.75089131   2.5861253
   2.35124609   2.04975934   1.68517071   1.26449152   0.79298027
   0.27940109  -0.27098751  -0.84766856  -1.4471364   -2.06237971
  -2.68638717  -3.31214746  -3.93440209  -4.54438691  -5.13333777
  -5.69424336  -6.21833951  -6.69686208  -7.12455259  -7.49790537
  -7.8099091   -8.06406944  -8.25688073  -8.39184864  -8.46897316
  -8.48825429  -8.45495052  -8.36730902  -8.22883545  -8.03952982
  -7.80640344  -7.52945631  -7.21920541  -6.8791564   -6.52157909
  -6.15699046  -5.79240183  -5.44183584  -5.11405664  -4.81432272
  -4.5496454   -4.32177751  -4.13247188  -3.98348133  -3.87305304
  -3.80118702  -3.76963608  -3.7766474   -3.82747947  -3.92037945
  -4.05885302  -4.24465299  -4.47076806  -4.73719821  -5.03342647
  -5.34893586  -5.6732094   -5.99047162  -6.28845271  -6.55488286
  -6.78099792  -6.95978658  -7.09300165  -7.18239598  -7.23498088
  -7.26477899  -7.28055446  -7.29983558  -7.33138652  -7.38747708
  -7.47687141  -7.60307516  -7.76784118  -7.97292228  -8.21130716
  -8.48124297  -8.77747123  -9.08947496  -9.41199567  -9.73451638
 -10.04652011 -10.33573705 -10.58814456 -10.78796717 -10.92293508
 -10.98077847 -10.94922753 -10.82302377 -10.59866154 -10.27964649
  -9.87824843  -9.40673718  -8.88614668  -8.33751091  -7.78186382
  -7.24374503  -6.74068283  -6.28669988  -5.89406597  -5.56628677
  -5.30511511  -5.10353966  -4.95630195  -4.85288498  -4.78452461
  -4.74070387  -4.71616425  -4.70564727  -4.70389444  -4.71616425
  -4.74070387  -4.78277179  -4.84937932  -4.94227931  -5.06497741
  -5.21747361  -5.39626227  -5.59783771  -5.81869428  -6.05182066
  -6.29020554  -6.53209607  -6.77048094  -7.00360732  -7.22796956
  -7.44181481  -7.64339025  -7.82919023  -7.99570907  -8.13593547
  -8.24461092  -8.31822978  -8.35328638  -8.3427694   -8.2901845
  -8.19553169  -8.06582227  -7.90982041  -7.73629024  -7.55399593
  -7.3769601   -7.21044126  -7.06320354  -6.93875262  -6.84059414
  -6.76522245  -6.71439038  -6.68459227  -6.67407529  -6.68108661
  -6.70212057  -6.73717717  -6.78450358  -6.8440998   -6.91246017
  -6.98958468  -7.07547335  -7.16311485  -7.25601484  -7.34716199
  -7.43480349  -7.52069216  -7.5995695   -7.67318836  -7.7397959 ]","[-1.80045532 -1.5786202  -1.33922979 -1.08707188 -0.83012617 -0.57158452
 -0.32102255 -0.084824    0.13062737  0.31894783  0.47694551  0.60142852
  0.69558875  0.7594262   0.79613273  0.80730428  0.80092054  0.77857743
  0.74506277  0.7019725   0.65409441  0.60142852  0.54716669  0.49130893
  0.43385523  0.37640153  0.3173519   0.2598982   0.20084856  0.14339486
  0.08434522  0.02529559 -0.03215811 -0.09120775 -0.15025738 -0.20771108
 -0.26676072 -0.32421442 -0.38326406 -0.44231369 -0.49976739 -0.55881703
 -0.61786666 -0.67532036 -0.73437    -0.7918237  -0.85087334 -0.90992297
 -0.96737667 -1.02642631 -1.08388001 -1.14292964 -1.20038334 -1.25943298
 -1.31688668 -1.37434038 -1.43019814 -1.48605591 -1.54191367 -1.5961755
 -1.64884139 -1.69991135 -1.74938537 -1.79726345 -1.8435456  -1.88823181
 -1.93291802 -1.97441236 -2.01750263 -2.05899697 -2.10208725 -2.14517752
 -2.18826779 -2.23295401 -2.27923615 -2.3255183  -2.37339638 -2.4228704
 -2.47394036 -2.52820219 -2.58565589 -2.64470552 -2.70854297 -2.77397635
 -2.84419754 -2.91441872 -2.98783179 -3.05805297 -3.12827416 -3.19689942
 -3.26073686 -3.32297837 -3.382028   -3.44267358 -3.50491508 -3.57354034
 -3.65014527 -3.73792176 -3.84006167 -3.95975688 -4.09541144 -4.25021725
 -4.42098241 -4.60770694 -4.80879488 -5.02265032 -5.24448544 -5.47430024
 -5.70730691 -5.93871765 -6.16693651 -6.38557976 -6.58666771 -6.76222068
 -6.90425899 -7.00001516 -7.0415095  -7.01757046 -6.92181429 -6.75264506
 -6.51165871 -6.21002679 -5.85892084 -5.48068399 -5.09606338 -4.72580621
 -4.3938515  -4.11615861 -3.90389911 -3.76664861 -3.70281116 -3.71079084
 -3.78579984 -3.91985847 -4.10179519 -4.32522624 -4.58057602 -4.86146078
 -5.15830489 -5.46632056]",2.3331042968872993,0.11033618280123465,5.705060000000001,0.6075799999999987
016,2,1,csp,9a.png,1,1,356,134,352,1,1,216,pos_feedback_onset,3,"[ 1.94977076e-01  7.60328250e-02 -1.72926642e-02 -8.49993916e-02
 -1.28917269e-01 -1.49046296e-01 -1.50876207e-01 -1.39896738e-01
 -1.19767711e-01 -9.23190378e-02 -6.30404529e-02 -3.55917797e-02
 -8.14310640e-03  1.74756553e-02  4.12645055e-02  6.50533556e-02
  9.25020289e-02  1.23610525e-01  1.63868579e-01  2.15106103e-01
  2.86472653e-01  3.77968231e-01  4.93252659e-01  6.35985760e-01
  8.06167534e-01  1.00013816e+00  1.21423781e+00  1.43931693e+00
  1.66439605e+00  1.88215553e+00  2.07612615e+00  2.23898828e+00
  2.35610262e+00  2.42380935e+00  2.43295890e+00  2.38172138e+00
  2.27009677e+00  2.09991500e+00  1.87666579e+00  1.60217906e+00
  1.28743427e+00  9.37921166e-01  5.60959386e-01  1.63868579e-01
 -2.46031608e-01 -6.63251442e-01 -1.07681145e+00 -1.47939199e+00
 -1.86001360e+00 -2.20586688e+00 -2.50780229e+00 -2.74935061e+00
 -2.91587256e+00 -2.99821858e+00 -2.98540920e+00 -2.87561451e+00
 -2.67066441e+00 -2.37970848e+00 -2.02104581e+00 -1.61297554e+00
 -1.17928650e+00 -7.45597462e-01 -3.35697274e-01  3.21149477e-02
  3.39540088e-01  5.77428590e-01  7.38460806e-01  8.17147003e-01
  8.15317092e-01  7.32971072e-01  5.73768767e-01  3.39540088e-01
  3.39448593e-02 -3.35697274e-01 -7.63896577e-01 -1.23967358e+00
 -1.75021890e+00 -2.28455308e+00 -2.82254707e+00 -3.35139151e+00
 -3.85278728e+00 -4.31209507e+00 -4.71833544e+00 -5.06235881e+00
 -5.33684554e+00 -5.53996573e+00 -5.67354927e+00 -5.74308591e+00
 -5.75223547e+00 -5.71197741e+00 -5.63146130e+00 -5.51800679e+00
 -5.38808307e+00 -5.24900979e+00 -5.11359633e+00 -4.99282217e+00
 -4.89766677e+00 -4.83361987e+00 -4.80617119e+00 -4.81532075e+00
 -4.86106854e+00 -4.93426500e+00 -5.02576058e+00 -5.12274589e+00
 -5.21607138e+00 -5.29475758e+00 -5.35148484e+00 -5.38076342e+00
 -5.38625316e+00 -5.36978395e+00 -5.33867546e+00 -5.30207722e+00
 -5.26730890e+00 -5.24352005e+00 -5.23620041e+00 -5.24534997e+00
 -5.27279864e+00 -5.31671652e+00 -5.36795404e+00 -5.42651121e+00
 -5.48140856e+00 -5.52898626e+00 -5.56558449e+00 -5.58571351e+00
 -5.58388360e+00 -5.56009475e+00 -5.51068714e+00 -5.43200094e+00
 -5.32586607e+00 -5.19045262e+00 -5.02759049e+00 -4.84093951e+00
 -4.63232960e+00 -4.41091030e+00 -4.18217135e+00 -3.95343241e+00
 -3.73567294e+00 -3.53621258e+00 -3.36603080e+00 -3.22878744e+00
 -3.13363204e+00 -3.08605434e+00 -3.08605434e+00 -3.13912177e+00
 -3.24159682e+00 -3.39347948e+00 -3.59110992e+00 -3.82899843e+00
 -4.10348516e+00 -4.40542056e+00 -4.72382517e+00 -5.04771952e+00
 -5.35880448e+00 -5.64244077e+00 -5.88032927e+00 -6.05234096e+00
 -6.14200663e+00 -6.13651689e+00 -6.02489229e+00 -5.80347299e+00
 -5.47774873e+00 -5.05503916e+00 -4.55364340e+00 -3.99369046e+00
 -3.40445895e+00 -2.80790778e+00 -2.22965573e+00 -1.69349165e+00
 -1.21405482e+00 -8.00494808e-01 -4.56471436e-01 -1.78324881e-01
  4.12645055e-02  2.18765926e-01  3.66988762e-01  5.06062039e-01
  6.50625052e-01  8.15317092e-01  1.01111763e+00  1.25083604e+00
  1.53630224e+00  1.87117606e+00  2.25362757e+00  2.67633714e+00
  3.13198512e+00  3.61325185e+00  4.10732797e+00  4.60323400e+00
  5.09182039e+00  5.56210766e+00  6.00494625e+00  6.41667635e+00
  6.79180822e+00  7.13034185e+00  7.43227726e+00  7.69944435e+00
  7.93367303e+00  8.14045303e+00  8.32344419e+00  8.48630631e+00
  8.63269924e+00  8.76445287e+00  8.88339712e+00  8.99136190e+00
  9.09200704e+00  9.18350262e+00  9.26950846e+00  9.35002457e+00
  9.42688085e+00  9.50007731e+00  9.57144386e+00  9.64098050e+00
  9.70502741e+00  9.76541449e+00  9.81665201e+00  9.85873998e+00
  9.88252883e+00  9.88435874e+00  9.85873998e+00  9.79469307e+00
  9.68672829e+00  9.52569608e+00  9.30244687e+00  9.00966102e+00
  8.64184880e+00  8.19718029e+00  7.67382559e+00  7.07361460e+00
  6.40386697e+00  5.67190235e+00  4.88504038e+00  4.05609045e+00
  3.19786193e+00  2.31950439e+00  1.43382720e+00  5.51809828e-01
 -3.13738335e-01 -1.15000791e+00 -1.94784935e+00 -2.69811309e+00
 -3.38981965e+00 -4.01747932e+00 -4.57560234e+00 -5.06235881e+00
 -5.48140856e+00 -5.83275157e+00 -6.12736733e+00 -6.36891566e+00
 -6.56837602e+00 -6.73123815e+00 -6.87031142e+00 -6.98742576e+00
 -7.09173072e+00 -7.18505621e+00 -7.27289196e+00 -7.35706790e+00
 -7.43941392e+00 -7.51993002e+00 -7.59861622e+00 -7.67730242e+00]","[ -1.14059512  -0.96279647  -0.78164313  -0.59881244  -0.41598175
  -0.2381831   -0.07044852   0.08218994   0.21805495   0.32875977
   0.4143044    0.47301151   0.49984904   0.49984904   0.47301151
   0.41933644   0.34721057   0.2566339    0.15431581   0.04193364
  -0.07715791  -0.20463618  -0.33546915  -0.47301151  -0.61726324
  -0.76990171  -0.93260425  -1.10369352  -1.28484686  -1.47606428
  -1.67399108  -1.87862726  -2.08829548  -2.30299574  -2.52105069
  -2.74078299  -2.96219263  -3.18527961  -3.4083666   -3.63145359
  -3.85454057  -4.07595022  -4.2990372   -4.52044684  -4.74017914
  -4.95655674  -5.17293435  -5.38427992  -5.59059344  -5.79522963
  -5.99651112  -6.19443792  -6.39404207  -6.59867825  -6.81170116
  -7.03982019  -7.28471267  -7.55476534  -7.84997819  -8.17202858
  -8.52259385  -8.89664195  -9.29249556  -9.70344527 -10.12110436
 -10.53876346 -10.94803583 -11.3355027  -11.69277735 -12.01147305
 -12.28152571 -12.49958066 -12.66060586 -12.76795599 -12.82834043
 -12.85014593 -12.84846858 -12.84008185 -12.8417592  -12.87027408
 -12.93904525 -13.05981415 -13.23929015 -13.47747325 -13.77604079
 -14.12492871 -14.51910497 -14.9417961  -15.38293804 -15.82575732
 -16.26018988 -16.67281693 -17.05357442 -17.39407561 -17.69264316
 -17.94759972 -18.16062263 -18.33506659 -18.47764098 -18.59337784
 -18.69066389 -18.77453118 -18.84665705 -18.91375088 -18.97581267
 -19.03284243 -19.08484015 -19.13012848 -19.16870744 -19.19889966
 -19.2223825  -19.23915596 -19.24586534 -19.24586534 -19.23747861
 -19.22070516 -19.19219028 -19.15193398 -19.09658157 -19.02781039
 -18.9439431  -18.8449797  -18.73427488 -18.61182864 -18.48602771
 -18.35687209 -18.23107115 -18.11030226 -18.00127478 -17.90566607
 -17.82515348 -17.75805965 -17.70606193 -17.66748297 -17.6389681
 -17.61883995 -17.60542118 -17.59200242 -17.5769063  -17.55510081]",7.77849652637042,-0.33835209165017566,5.464744999999999,0.8005549999999992
016,2,1,csp,30a.png,1,1,260,190,256,1,1,343,pos_feedback_onset,4,"[ 2.14350428  1.91192781  1.64581801  1.35939449  1.06078273  0.76623371
  0.47981019  0.21370039 -0.02803294 -0.24335843 -0.4302447  -0.5927545
 -0.73088783 -0.84667607 -0.94824469 -1.03356234 -1.10466037 -1.16357018
 -1.21232312 -1.24685645 -1.27123292 -1.28342116 -1.28545253 -1.27732704
 -1.26107606 -1.23669959 -1.20419763 -1.15950743 -1.10669175 -1.03762508
 -0.95433881 -0.84870744 -0.72276234 -0.57447215 -0.40383686 -0.21695058
 -0.01381333  0.19541804  0.40261803  0.60372391  0.78654744  0.94499449
  1.07703371  1.17657096  1.24563763  1.28423371  1.29642194  1.28626508
  1.25782586  1.21516704  1.1664141   1.11156704  1.05671998  1.0039043
  0.9592141   0.92671214  0.90842979  0.91249253  0.94093175  0.99781018
  1.08719057  1.20907292  1.36142586  1.54221802  1.74738664  1.96880624
  2.19631997  2.42383369  2.63915917  2.83620231  3.00277485  3.13481407
  3.22013171  3.25669642  3.23841407  3.16325328  3.02715133  2.83010819
  2.578218    2.27351212  1.92411605  1.53815527  1.12781802  0.70122979
  0.27057882 -0.15804078 -0.57447215 -0.97262116 -1.35045645 -1.70594664
 -2.04112311 -2.35598585 -2.65459761 -2.93492701 -3.20306819 -3.45698975
 -3.69872308 -3.92420543 -4.13140543 -4.31626032 -4.47267601 -4.59455836
 -4.67581326 -4.71237797 -4.70018973 -4.63721718 -4.52346032 -4.36095052
 -4.15781327 -3.91607994 -3.64793877 -3.35948387 -3.06087211 -2.76226035
 -2.47177408 -2.19753879 -1.94971134 -1.73235448 -1.55156233 -1.413429
 -1.31998586 -1.27529567 -1.27935841 -1.33014272 -1.42764861 -1.56984468
 -1.74657409 -1.95580546 -2.18535055 -2.42708388 -2.66881721 -2.90039368
 -3.11368779 -3.29651132 -3.44480151 -3.55043289 -3.61340543 -3.63168779
 -3.60527994 -3.53824465 -3.43667602 -3.30463681 -3.14822113 -2.97758584
 -2.80085643 -2.62615839 -2.45958584 -2.31129565 -2.18535055 -2.0858133
 -2.01471526 -1.97205644 -1.95580546 -1.95377409 -1.96189958 -1.97002507
 -1.96596232 -1.93955448 -1.88064468 -1.78517017 -1.65109958 -1.47640155
 -1.26717018 -1.03356234 -0.78573489 -0.53993882 -0.31039372 -0.11538196
  0.03697098  0.13041412  0.16291608  0.13041412  0.03493961 -0.11538196
 -0.31039372 -0.53993882 -0.78979763 -1.04778194 -1.30170351 -1.54546821
 -1.77298193 -1.98018193 -2.1670682  -2.33364075 -2.47989957 -2.61193878
 -2.72975839 -2.83335839 -2.92477015 -3.00196231 -3.06290348 -3.10353093
 -3.12181328 -3.11165642 -3.07509172 -3.00805642 -2.91664466 -2.80085643
 -2.66678584 -2.52865251 -2.39051918 -2.26863683 -2.17519369 -2.11831526
 -2.11018977 -2.15691134 -2.26254271 -2.42505251 -2.640378   -2.90242505
 -3.20103681 -3.52402504 -3.86123288 -4.20250346 -4.53564856 -4.85457404
 -5.15724855 -5.43757795 -5.69556226 -5.93526422 -6.15262108 -6.35575833
 -6.54061323 -6.71124852 -6.86563283 -7.00173479 -7.1195544  -7.21502891
 -7.28815832 -7.33487988 -7.35925636 -7.35722498 -7.33691126 -7.30034655
 -7.25159361 -7.19877793 -7.14393087 -7.09314656 -7.04642499 -7.00376616
 -6.96720146 -6.9346995  -6.90422891 -6.8757897  -6.84938185 -6.83313087
 -6.82703676 -6.83922499 -6.87375832 -6.93673087 -7.03220538 -7.16018185
 -7.32066028 -7.50754655 -7.71880929 -7.94429164 -8.17789948 -8.40947595
 -8.6349583  -8.84622104]","[ -2.58215751  -2.48321049  -2.3662731   -2.22414919  -2.05503973
  -1.84994954  -1.60528053  -1.31923368  -0.98821091  -0.61760933
