sub,run,cat_cond,trial_type,picture,old,response_old,target_pos,response_pos,dot_resp_loc,cat_corr,TN_corr,TN_rt,feedback_type,trial,SP_timeseries,FB_timeseries,SP_peak_response,FB_peak_response,preStim_bl,anticipation
036,1,2,csm,13a.png,1,1,332,324,332,1,1,394,neu_feedback_onset,1,"[-1.17734081 -1.3514763  -1.48092215 -1.5548912  -1.56105529 -1.49633237
 -1.35918141 -1.15114344 -0.87992357 -0.55939099 -0.20187388  0.17413549
  0.55168588  0.91690809  1.25439191  1.55335018  1.81070086  2.02027985
  2.1851692   2.30690994  2.39166615  2.44560192  2.47488134  2.4856685
  2.48412747  2.47642236  2.46409419  2.45330703  2.44251988  2.43481477
  2.42865068  2.42556864  2.42402762  2.42248659  2.42248659  2.42094557
  2.41786353  2.41324046  2.40553535  2.39320717  2.37471491  2.35159958
  2.31923812  2.27917155  2.22985884  2.17130001  2.10041299  2.02027985
  1.9324416   1.83689823  1.73827282  1.63656537  1.53793996  1.44547864
  1.36226345  1.29291746  1.23898169  1.20353819  1.18658694  1.18658694
  1.20353819  1.2328176   1.26980213  1.31295075  1.35455834  1.39462492
  1.42698638  1.45164273  1.47013499  1.48246317  1.49325032  1.5055785
  1.52561179  1.55643223  1.60266289  1.66584479  1.74751895  1.84460334
  1.95555693  2.07729766  2.20057942  2.32540221  2.44097886  2.5488504
  2.64131172  2.71990384  2.78462676  2.83548049  2.87554706  2.9063675
  2.93102386  2.95259816  2.97109043  2.99112371  3.00807496  3.0250262
  3.0388954   3.04660051  3.04814153  3.0388954   3.01578007  2.98033656
  2.92640079  2.85551378  2.76921654  2.66596807  2.55039142  2.42556864
  2.29766381  2.17284103  2.05572336  1.95247488  1.86925969  1.80761881
  1.77063428  1.75830611  1.76601122  1.78912655  1.82148801  1.85384947
  1.88004685  1.89237502  1.88004685  1.83998027  1.76909326  1.66430377
  1.53177587  1.37459163  1.20045614  1.02015657  0.84139802  0.67496764
  0.52857055  0.40991185  0.32361462  0.26813783  0.2450225   0.25118659
  0.28354805  0.3359428   0.40682981  0.490045    0.58250632  0.68575479
  0.79516735  0.91074401  1.02786168  1.14497935  1.25593293  1.35764039
  1.4423966   1.50403748  1.53948098  1.54718609  1.52407076  1.47475806
  1.400789    1.31140973  1.2112433   1.1064538   1.00320533  0.90920298
  0.82752882  0.75972385  0.70887012  0.67342662  0.65339333  0.64722924
  0.65339333  0.67188559  0.69654195  0.72736239  0.76280589  0.79670838
  0.82752882  0.85372619  0.87067743  0.87992357  0.87838254  0.86913641
  0.85218517  0.83215188  0.81365962  0.79979042  0.79362633  0.80287247
  0.8259878   0.86605437  0.9246132   0.99550022  1.08025643  1.17425877
  1.27288418  1.36996856  1.46397091  1.54872712  1.62269617  1.68125501
  1.72440362  1.74905998  1.75676509  1.74597793  1.71978056  1.67817296
  1.62423719  1.56259631  1.49479135  1.4285274   1.36688652  1.31449177
  1.27750724  1.25439191  1.24976885  1.260556    1.28675337  1.32219688
  1.36380448  1.40695309  1.44547864  1.47475806  1.4917093   1.49325032
  1.4778401   1.44856069  1.40695309  1.35301732  1.29445848  1.23127658
  1.16809468  1.10799482  1.05251803  1.00474635  0.96159773  0.92769525
  0.89841583  0.87375948  0.84910313  0.82444677  0.79516735  0.75972385
  0.71657523  0.66572151  0.60870369  0.54398077  0.47771682  0.41145288
  0.34827097  0.29125316  0.24039943  0.19725082  0.16180731  0.13098687
  0.10633052  0.08167417  0.05701781  0.02927942 -0.00308204 -0.04160759
 -0.08783825 -0.14177402]","[ -0.5983191   -0.61145454  -0.61145454  -0.59685961  -0.56183178
  -0.50783054  -0.4348559   -0.34582684  -0.24220284  -0.13128138
  -0.01452195   0.10223748   0.21899691   0.32991836   0.43792084
   0.53862584   0.63349288   0.72106245   0.80133456   0.87284971
   0.93414841   0.98523066   1.02755596   1.05820531   1.08155719
   1.09615212   1.10782806   1.11658502   1.12388248   1.13117995
   1.13701792   1.14285589   1.14285589   1.13409893   1.11366603
   1.07280023   1.00858255   0.91371551   0.78236115   0.60722201
   0.38537909   0.10953494  -0.22468893  -0.6202115   -1.08141124
  -1.60390969  -2.18770684  -2.82404573  -3.50270991  -4.20764497
  -4.92425597  -5.635029    -6.32099065  -6.96754599  -7.56447857
  -8.10157195  -8.57882612  -8.99478158  -9.35673582  -9.67198627
  -9.94637093 -10.18864675 -10.40027322 -10.58416932 -10.73741607
 -10.85125651 -10.91839319 -10.92860964 -10.86731094 -10.72865911
 -10.5053567  -10.19448472  -9.80334063  -9.34214089  -8.8283994
  -8.28546805  -7.73961772  -7.21711927  -6.74278408  -6.33558557
  -6.01011866  -5.77514031  -5.63065052  -5.57518979  -5.60146066
  -5.70070618  -5.86125039  -6.07287686  -6.32682862  -6.61580821
  -6.93105867  -7.26528253  -7.61410133  -7.9672986   -8.32195537
  -8.66639569  -8.99332209  -9.29251813  -9.55230786  -9.75955585
  -9.90550513  -9.97702028  -9.96826333  -9.87485578  -9.69533816
  -9.43846742  -9.10862203  -8.72331591  -8.2956845   -7.84616069
  -7.39079892  -6.94711309  -6.53115762  -6.15168947  -5.8189251
  -5.53724297  -5.30518361  -5.11982801  -4.97679771  -4.86879524
  -4.78852313  -4.72868392  -4.68198015  -4.64403334  -4.61192449
  -4.58565362  -4.56376123  -4.5491663   -4.54186884  -4.54624732
  -4.56376123  -4.59295109  -4.63673587  -4.68927762  -4.74911682
  -4.81187502  -4.87025473  -4.92279648  -4.96074329  -4.98263568]",2.5448052148184486,0.11730673942725942,6.489200000000001,0.5519399999999992
036,1,2,csp,28b.png,1,1,132,225,132,1,1,521,neg_feedback_onset,2,"[ 1.14991142  0.9399653   0.71784839  0.49573148  0.28274266  0.08801002
 -0.08085968 -0.21930242 -0.32123278 -0.38817212 -0.42012045 -0.42316314
 -0.40034291 -0.36078785 -0.30906199 -0.25277209 -0.19648219 -0.14323498
 -0.09759452 -0.06108215 -0.03674057 -0.02304843 -0.02609113 -0.04434731
 -0.08238103 -0.14019228 -0.22082376 -0.32275413 -0.44598337 -0.58442611
 -0.73351828 -0.88261045 -1.02257453 -1.14276108 -1.23252065 -1.28272516
 -1.28881056 -1.25077684 -1.16862401 -1.05148016 -0.90847338 -0.75633851
 -0.60724634 -0.48097439 -0.38969347 -0.34709571 -0.36383054 -0.44446202
 -0.5905115  -0.80045762 -1.06821499 -1.38465552 -1.74369382 -2.13315909
 -2.54240189 -2.96229413 -3.38370772 -3.79903592 -4.19915063 -4.57644511
 -4.91874857 -5.21693292 -5.46187006 -5.6413892  -5.74788361 -5.77678924
 -5.72658473 -5.60031279 -5.4101442  -5.16977111 -4.89744969 -4.61904287
 -4.35584955 -4.12764724 -3.95573484 -3.85228313 -3.8264202  -3.8796674
 -4.01050339 -4.21436412 -4.48060014 -4.79856202 -5.15760032 -5.54706558
 -5.95326569 -6.36555119 -6.77175129 -7.16273791 -7.52634025 -7.85038753
 -8.12727299 -8.3493899  -8.51065286 -8.61106188 -8.65213829 -8.6430102
 -8.59128435 -8.51217421 -8.4148079  -8.30983483 -8.20942582 -8.1151022
 -8.03294937 -7.96144598 -7.89907068 -7.84582348 -7.79714032 -7.75302121
 -7.71042344 -7.66934703 -7.62522792 -7.57654476 -7.52329755 -7.45940091
 -7.38637617 -7.30118064 -7.20381433 -7.09884126 -6.98930416 -6.87976705
 -6.78087939 -6.69568386 -6.63635126 -6.60744563 -6.61353103 -6.65917149
 -6.74436702 -6.86759626 -7.02125248 -7.20077163 -7.39550426 -7.59632229
 -7.79409762 -7.97818082 -8.14096513 -8.27636516 -8.37981688 -8.45132026
 -8.48935398 -8.49848207 -8.48478994 -8.45284161 -8.41024385 -8.36460339
 -8.32048428 -8.28092921 -8.25050224 -8.22920335 -8.21703256 -8.21246852
 -8.21094717 -8.20942582 -8.20486177 -8.19421233 -8.17595615 -8.15009322
 -8.11662355 -8.07554713 -8.03142802 -7.98730891 -7.94471115 -7.90667743
 -7.87625045 -7.85647292 -7.84734483 -7.85038753 -7.86407966 -7.88842124
 -7.92189091 -7.96296733 -8.01012914 -8.061855   -8.11358085 -8.16530671
 -8.21551122 -8.26115168 -8.30222809 -8.33874046 -8.36916743 -8.39503036
 -8.41632924 -8.43306408 -8.44523487 -8.45436296 -8.46044836 -8.46349105
 -8.4650124  -8.46196971 -8.45436296 -8.44219217 -8.42545734 -8.40111576
 -8.36916743 -8.32961237 -8.28245056 -8.227682   -8.16987075 -8.10901681
 -8.04816286 -7.99187296 -7.9401471  -7.89754934 -7.86407966 -7.83973808
 -7.82756729 -7.82300325 -7.82908864 -7.83973808 -7.85647292 -7.87929315
 -7.90363473 -7.93254036 -7.96296733 -7.996437   -8.03294937 -8.07250444
 -8.1151022  -8.15922131 -8.20638312 -8.25506628 -8.30222809 -8.3493899
 -8.39198766 -8.43002138 -8.46349105 -8.48783263 -8.50608882 -8.51521691
 -8.51673826 -8.51065286 -8.50000342 -8.48631128 -8.4710978  -8.45892701
 -8.45132026 -8.44979892 -8.46044836 -8.48022589 -8.51217421 -8.55629333
 -8.60801918 -8.66887313 -8.73124843 -8.79514507 -8.85752037 -8.91533162
 -8.96401478 -9.00509119 -9.03703952 -9.05681705 -9.06442379 -9.05681705
 -9.03399682 -8.9929204  -8.93206646 -8.84839228 -8.74341922 -8.61714727
 -8.4710978  -8.31287753]","[-0.16670222 -0.16354199 -0.17618291 -0.20304488 -0.24254778 -0.28995125
 -0.34051496 -0.38633832 -0.42268098 -0.43848214 -0.42742133 -0.38159797
 -0.29311149 -0.15722152  0.02291168  0.24886824  0.51116747  0.80190878
  1.1037109   1.40077268  1.67413271  1.90482962  2.07548213  2.1718692
  2.18293001  2.10550433  1.9427524   1.70099468  1.39445221  1.03892615
  0.65337789  0.25518871 -0.1350999  -0.50484701 -0.83825144 -1.12899276
 -1.37549082 -1.57458542 -1.732597   -1.85742615 -1.95539333 -2.03597924
 -2.1118248  -2.18767036 -2.27141649 -2.36780356 -2.47999178 -2.60956128
 -2.75493194 -2.91610375 -3.08833638 -3.27162981 -3.46124371 -3.65875819
 -3.85785278 -4.06168772 -4.26552266 -4.4693576  -4.67477266 -4.88018772
 -5.08402266 -5.28469737 -5.48063173 -5.67182574 -5.85195895 -6.01787111
 -6.16166165 -6.27859022 -6.36075624 -6.39867902 -6.38919833 -6.3259937
 -6.20748501 -6.0368325  -5.82035663 -5.56911822 -5.29575818 -5.01291745
 -4.73639718 -4.47567807 -4.24024081 -4.03482575 -3.85785278 -3.70932189
 -3.5797524  -3.46440394 -3.35379583 -3.24002749 -3.11835858 -2.98562885
 -2.84183831 -2.68698696 -2.52739526 -2.36622344 -2.21137209 -2.06758155
 -1.93801206 -1.82582383 -1.73417712 -1.65833156 -1.59828715 -1.5524638
 -1.51770125 -1.49399951 -1.48135858 -1.48451882 -1.50506032 -1.54772345
 -1.61882866 -1.72153619 -1.85742615 -2.02649854 -2.22401302 -2.44522924
 -2.68382672 -2.92716456 -3.16576205 -3.39171861 -3.59555355 -3.77094641
 -3.9099966  -4.01270413 -4.079069   -4.11067131 -4.11067131 -4.08696957
 -4.04430645 -3.99058251 -3.93369834 -3.8799744  -3.83257093 -3.79780838
 -3.77568676 -3.76936629 -3.77726687 -3.7993885  -3.83257093 -3.87523405
 -3.92579776 -3.98110181]",6.076736336346755e-15,0.05929384623893532,6.573115,0.10797000000000168
036,1,2,csm,25a.png,1,1,140,244,139,1,1,310,neu_feedback_onset,3,"[ 0.2529382   0.32352561  0.38783857  0.44587711  0.4976412   0.54156226
  0.57136583  0.5839147   0.57293444  0.53371921  0.45999459  0.35019196
  0.2011741   0.01137242 -0.21607589 -0.47803359 -0.76979487 -1.08665388
 -1.4207676  -1.76272436 -2.10624973 -2.44036345 -2.75251664 -3.03486626
 -3.27015761 -3.45054764 -3.56191888 -3.59642828 -3.54623279 -3.41290102
 -3.1995702  -2.91408336 -2.57055799 -2.18624879 -1.77684184 -1.35959185
 -0.9501849  -0.55803265 -0.19254675  0.14470418  0.45215154  0.73136394
  0.9854786   1.21763273  1.42782634  1.62076525  1.79331224  1.94546731
  2.07566185  2.17919005  2.25291467  2.29683572  2.30781599  2.28742407
  2.23565997  2.15566091  2.05370133  1.93605565  1.80742972  1.67880378
  1.55488367  1.44351243  1.35410172  1.28978875  1.25684796  1.25684796
  1.29292597  1.36351337  1.46861017  1.60194194  1.75880284  1.92978122
  2.10860264  2.28585546  2.45055941  2.59644004  2.71565433  2.80192782
  2.85369192  2.87094662  2.85369192  2.80663365  2.73290902  2.64036109
  2.53212707  2.41134418  2.28114963  2.14468065  2.00193723  1.85135077
  1.69448987  1.52664871  1.35253311  1.16743725  0.97763556  0.78155943
  0.5839147   0.39097579  0.20431132  0.03176433 -0.12352796 -0.25529111
 -0.36352513 -0.44666141 -0.50313134 -0.53450352 -0.54548378 -0.53920934
 -0.52038603 -0.49215107 -0.46077889 -0.42940671 -0.39803453 -0.37293679
 -0.35097626 -0.33372156 -0.3227413  -0.31489826 -0.31332965 -0.31803547
 -0.33058435 -0.35411348 -0.39019149 -0.44038698 -0.50313134 -0.57842457
 -0.66469806 -0.75410878 -0.8450881  -0.92979298 -1.001949   -1.05841892
 -1.09449693 -1.11018302 -1.10861441 -1.08822249 -1.05998753 -1.02547813
 -0.99567456 -0.97685125 -0.97841986 -1.00665482 -1.06626197 -1.16351572
 -1.30155332 -1.48194335 -1.70311722 -1.96664353 -2.26467924 -2.59722435
 -2.95643581 -3.33603918 -3.72662282 -4.1234809  -4.51563315 -4.89523653
 -5.2560166  -5.59169892 -5.89757768 -6.17051564 -6.4073756  -6.60972616
 -6.77599871 -6.91089909 -7.01442728 -7.09128912 -7.14305322 -7.17599401
 -7.1916801  -7.1916801  -7.18069983 -7.15873931 -7.12893574 -7.08972051
 -7.04423085 -6.99246676 -6.93442822 -6.87011525 -6.79952785 -6.72266601
 -6.63952973 -6.54855041 -6.45129665 -6.34463124 -6.23169139 -6.10777128
 -5.97600813 -5.83797053 -5.69365851 -5.54464065 -5.39719141 -5.25444799
 -5.12111622 -5.00347055 -4.90464818 -4.82935495 -4.78229668 -4.76190476
 -4.77131642 -4.80582581 -4.86229574 -4.93758897 -5.02386246 -5.117979
 -5.21366415 -5.30307487 -5.38464253 -5.45366133 -5.50699404 -5.54464065
 -5.56660118 -5.57444422 -5.56816979 -5.5524837  -5.52895456 -5.50542543
 -5.48189629 -5.46464159 -5.45679855 -5.45836716 -5.47248464 -5.49758238
 -5.53366039 -5.57444422 -5.61993388 -5.66542354 -5.70620738 -5.73914817
 -5.76424591 -5.77679478 -5.779932   -5.76895174 -5.74855982 -5.71875625
 -5.67954103 -5.63091415 -5.57287561 -5.50542543 -5.42856359 -5.33915287
 -5.2387619  -5.12739066 -5.00503916 -4.87484461 -4.74151284 -4.60818108
 -4.48112375 -4.36347808 -4.26151849 -4.17995082 -4.12034368 -4.08583428
 -4.07485402 -4.0889715  -4.12818673 -4.18622526 -4.26465571 -4.36034086
 -4.47014349 -4.59092638]","[ -1.56478019  -1.43246851  -1.30171344  -1.17095836  -1.03709008
  -0.89699536  -0.74756099  -0.58878697  -0.41600349  -0.23076714
  -0.0299647    0.18173398   0.40432893   0.63470691   0.8666415
   1.09234966   1.30716156   1.49706774   1.65739836   1.77570057
   1.84574793   1.8597574    1.81617238   1.71499286   1.55777545
   1.3538598    1.11258556   0.8464056    0.56777277   0.29069654
   0.02295997  -0.22609731  -0.45336208  -0.65572112  -0.83784425
  -1.00595792  -1.16473193  -1.32194934  -1.48383657  -1.65817667
  -1.84963945  -2.05822492  -2.28393308  -2.52832054  -2.78671746
  -3.05756726  -3.33775669  -3.62572917  -3.91681487  -4.21101378
  -4.50365608  -4.79474178  -5.08271426  -5.3629037   -5.6353101
  -5.89682024  -6.14587752  -6.38092533  -6.60040705  -6.80276609
  -6.98800244  -7.15611611  -7.31177691  -7.45342823  -7.58418331
  -7.70559873  -7.82078772  -7.93130689  -8.03871284  -8.14144897
  -8.2441851   -8.34380801  -8.4403177   -8.53371418  -8.62399745
  -8.70649767  -8.78432807  -8.85281882  -8.91196993  -8.96022477
  -9.00069658  -9.03338535  -9.05984769  -9.08475341  -9.10965914
  -9.13767809  -9.17192346  -9.21395188  -9.26531994  -9.32291444
  -9.38984858  -9.46145255  -9.53772634  -9.61711335  -9.69650036
  -9.77900058  -9.8599442   -9.94088781 -10.02183143 -10.10121843
 -10.18216205 -10.26154906 -10.34093607 -10.42032307 -10.49971008
 -10.57909709 -10.6584841  -10.73787111 -10.81725811 -10.89664512
 -10.97603213 -11.05541914 -11.13480614 -11.21419315 -11.29358016
 -11.37296717 -11.45235418 -11.53018457 -11.60957158 -11.68895859
 -11.76678899 -11.84461939 -11.91933657 -11.99094054 -12.05943129
 -12.1185824  -12.16683724 -12.20108262 -12.21509209 -12.20108262
 -12.15594099 -12.07344077 -11.95046873 -11.78546829 -11.57999603
 -11.33716518 -11.06475878 -10.77211648 -10.47169114 -10.17437901]",1.8217432736085488,0.09740474531947682,6.375075,0.08832499999999843
036,1,2,csp,11b.png,1,1,256,276,264,1,1,395,pos_feedback_onset,4,"[-3.96829135 -3.31706083 -2.69062335 -2.10220187 -1.5617136  -1.07246427
 -0.6344539  -0.24272386  0.10603157  0.41842387  0.69941166  0.95230067
  1.1770909   1.37378235  1.54402789  1.68452179  1.79856977  1.88617185
  1.95063375  1.99856696  2.03658296  2.07129321  2.10765634  2.15393668
  2.21343998  2.28947197  2.38368552  2.49608063  2.62500444  2.76880407
  2.92747953  3.09937794  3.28449931  3.48284363  3.6944109   3.91920114
  4.15225571  4.39357464  4.63654643  4.87290674  5.09439124  5.29108269
  5.45471675  5.57537621  5.64479673  5.65636681  5.61173934  5.50926144
  5.35719746  5.16546462  4.945633    4.71588416  4.48944106  4.28613813
  4.11754546  3.99523312  3.92581261  3.91424253  3.95391139  4.03820773
  4.15721432  4.29605534  4.43820211  4.57208452  4.6811739   4.76051163
  4.80348623  4.81009771  4.78034606  4.72249563  4.64481078  4.55390296
  4.45968941  4.36712873  4.28283239  4.20845327  4.14564423  4.09605815
  4.05473642  4.02663764  4.00680321  3.99523312  3.99523312  4.00349747
  4.02002616  4.04151347  4.06630651  4.08944668  4.10266963  4.10266963
  4.07952946  4.03159625  3.95391139  3.84316915  3.70102238  3.53077684
  3.33408539  3.11755951  2.88781067  2.64979748  2.40847856  2.17046537
  1.9374108   1.71427344  1.49940042  1.29444462  1.10105891  0.91924328
  0.74899774  0.59032228  0.44817552  0.32586319  0.22503816  0.15065904
  0.10768444  0.09942009  0.13247748  0.20520373  0.32255745  0.48288578
  0.68288297  0.92254902  1.19196672  1.48948321  1.80187551  2.12418503
  2.44153595  2.74731677  3.02665169  3.27292922  3.47623215  3.63325474
  3.73738551  3.78862446  3.78862446  3.74234412  3.65474204  3.52912397
  3.37705999  3.20350871  3.01838734  2.83491885  2.66467331  2.52087367
  2.41674291  2.36385109  2.37211543  2.44814742  2.59359992  2.80351433
  3.07127916  3.38036573  3.71589821  4.05969503  4.38861603  4.68778538
  4.94067439  5.13240723  5.25306669  5.29769416  5.26133104  5.14397732
  4.945633    4.67456242  4.33572421  3.9373827   3.49441371  3.02004021
  2.53409663  2.05476452  1.60187832  1.19196672  0.84651703  0.57544646
  0.38867223  0.29115293  0.28123572  0.35065623  0.49445586  0.69775879
  0.94734206  1.23328846  1.54072216  1.86303168  2.19360554  2.52748515
  2.8646705   3.20185584  3.54234693  3.88283801  4.22167622  4.55555583
  4.87786535  5.17868757  5.44975814  5.67950698  5.85966974  5.98528781
  6.05470832  6.06958415  6.03817963  5.96875912  5.8778513   5.77702627
  5.67950698  5.59355778  5.527443    5.47950979  5.44810527  5.42661797
  5.4034778   5.37042042  5.31422286  5.22992652  5.11091993  4.95555021
  4.76547024  4.54894435  4.3092783   4.05473642  3.79523593  3.53573545
  3.28284644  3.04152752  2.81343155  2.60351714  2.41509004  2.25145597
  2.11757355  2.02005426  1.96055097  1.94898088  1.98534401  2.07625182
  2.21839858  2.4117843   2.65145035  2.93078527  3.23821897  3.5654871
  3.8993667   4.22498196  4.53241566  4.81009771  5.04480516  5.22992652
  5.35885033  5.42827084  5.43818806  5.39025485  5.29108269  5.14563019
  4.9671203   4.76381737  4.54563861  4.32415412  4.10928111  3.90763105
  3.72746829  3.56879284]","[-1.76703065 -1.63905936 -1.50160873 -1.35309884 -1.19194982 -1.01658176
 -0.82383489 -0.61212931 -0.38304491 -0.1365817   0.12410055  0.38952247
  0.6533645   0.89982771  1.11943276  1.29954049  1.43225145  1.50650639
  1.52230532  1.47806833  1.380115    1.2347649   1.04991749  0.83821191
  0.60438784  0.35950451  0.10514184 -0.15396051 -0.41938244 -0.68954404
 -0.9676051  -1.25040583 -1.53794625 -1.82390677 -2.10354773 -2.36738976
 -2.60595351 -2.80975963 -2.96774887 -3.07202176 -3.11625875 -3.09414026
 -3.00882607 -2.86189608 -2.66282963 -2.42268599 -2.15410428 -1.86972365
 -1.58218324 -1.30096239 -1.03238068 -0.78117779 -0.54735372 -0.32774868
 -0.12236267  0.07354399  0.25997129  0.43691924  0.60438784  0.7560575
  0.88560868  0.9851419   1.04517781  1.05781695  1.01673975  0.91720653
  0.75921729  0.54435192  0.27893    -0.03072891 -0.37514545 -0.74642016
 -1.13191391 -1.52214733 -1.90448129 -2.26627664 -2.59647415 -2.88085478
 -3.10361961 -3.25054961 -3.31216541 -3.27740778 -3.14153703 -2.90455317
 -2.57277577 -2.15726407 -1.67697678 -1.15087261 -0.60264995 -0.05600719
  0.4669372   0.94722448  1.36589597  1.71505219  1.98521379  2.17638077
  2.29171291  2.33752979  2.32647054  2.26959442  2.18270034  2.08158722
  1.98047411  1.88884035  1.81774519  1.77192831  1.75770928  1.7750881
  1.82090498  1.89358003  1.98679368  2.09738615  2.21903786  2.34700915
  2.47814021  2.61085117  2.74356214  2.87311331  3.00424438  3.13537545
  3.26650652  3.40079737  3.53824801  3.67569865  3.81472918  3.94902003
  4.0801511   4.20180282  4.31239528  4.40560893  4.48302366  4.53989979
  4.5778172   4.59519602  4.59519602  4.5793971   4.55253893  4.5162014
  4.47828398  4.44194646]",4.5063003247061655,3.8221020099654277,6.050085000000001,-0.16953500000000155
036,1,2,csm,30a.png,1,1,212,127,211,1,1,640,neu_feedback_onset,5,"[ 2.48410398  1.97959543  1.49270465  1.03143969  0.6102151   0.23383571
 -0.08969041 -0.36036325 -0.57497958 -0.73514102 -0.84244919 -0.90331054
 -0.91772507 -0.89049762 -0.82483143 -0.72072649 -0.57497958 -0.38598908
 -0.14895014  0.13773884  0.47567948  0.86487179  1.2989093   1.76658071
  2.25507311  2.7419639   3.2080337   3.62765668  3.98161347  4.25548953
  4.43807358  4.52616237  4.52616237  4.44608165  4.30513958  4.12255554
  3.92075212  3.72215193  3.54757596  3.40983712  3.32495155  3.29612249
  3.32495155  3.40663389  3.53476304  3.69492448  3.87590691  4.06169419
  4.23947339  4.39803322  4.52776399  4.62546247  4.6847222   4.71034803
  4.70394157  4.67190928  4.62065762  4.55819466  4.48772363  4.41725259
  4.34998478  4.28431859  4.2186524   4.1513846   4.07290549  3.97841024
  3.85828916  3.70613578  3.52034851  3.29932572  3.04947387  2.77880103
  2.50492496  2.24386181  2.01643256  1.84185659  1.74095488  1.72333712
  1.80021462  1.96838413  2.22464244  2.5529734   2.93575925  3.35378061
  3.78461489  4.20583949  4.60303986  4.96019988  5.27251469  5.53517946
  5.74819418  5.91476208  6.04289123  6.13578487  6.19824783  6.23668658
  6.2494995   6.24149142  6.21106075  6.15660586  6.07652514  5.97081859
  5.84108782  5.6841296   5.50474879  5.30454698  5.08832904  4.8625014
  4.63347054  4.4076429   4.1962298   4.0072393   3.84867947  3.72535516
  3.64687605  3.61324215  3.62445345  3.67890834  3.77180198  3.89352467
  4.03766997  4.19302657  4.34998478  4.50213816  4.64308022  4.76800615
  4.87531432  4.96340311  5.03547576  5.09313388  5.1395807   5.17641783
  5.20524689  5.22766949  5.24528725  5.25329532  5.25329532  5.24208402
  5.2180598   5.18122267  5.13157263  5.06750805  4.99223217  4.90414338
  4.80484328  4.69273027  4.56460112  4.41565098  4.241075    4.03286513
  3.78781812  3.50112914  3.17119657  2.80122363  2.3976168   1.96838413
  1.53114339  1.09390265  0.67588129  0.28348575 -0.06886942 -0.37958262
 -0.64705223 -0.87127825 -1.05546391 -1.20761728 -1.32933997 -1.42543684
 -1.49430626 -1.53915146 -1.55356599 -1.53434662 -1.47829012 -1.38379487
 -1.24925925 -1.0762849  -0.86967663 -0.63584093 -0.38278585 -0.1217227
  0.14094207  0.39239553  0.62302801  0.82643304  0.99460256  1.12273171
  1.20921889  1.25246248  1.25566571  1.22043019  1.154764    1.06667521
  0.96096866  0.84885565  0.73994587  0.63744254  0.54775213  0.47567948
  0.41802137  0.37637939  0.34755033  0.32672934  0.31391643  0.30270513
  0.29309544  0.28508737  0.2770793   0.26907122  0.26426638  0.25946154
  0.25785992  0.25465669  0.24985185  0.24024216  0.22102279  0.19059212
  0.14895014  0.09289364  0.02562583 -0.05285328 -0.13613723 -0.22102279
 -0.30430674 -0.38118423 -0.45165527 -0.51251662 -0.56376828 -0.60701187
 -0.64064577 -0.66787322 -0.68709259 -0.70150712 -0.70951519 -0.71271842
 -0.70951519 -0.6999055  -0.68549097 -0.6662716  -0.64545061 -0.62462963
 -0.6102151  -0.60541025 -0.61822317 -0.65185707 -0.71271842 -0.80401044
 -0.92573314 -1.0762849  -1.25246248 -1.44785944 -1.6544677  -1.86588081
 -2.07248907 -2.26628441 -2.44566523 -2.60422506 -2.73876067 -2.84767045
 -2.92775117 -2.97900283]","[ 1.14444054  0.95302411  0.75395103  0.55181528  0.3481482   0.14601245
 -0.04999797 -0.23222641 -0.39148488 -0.52164805 -0.61352793 -0.65946788
 -0.65487388 -0.59821462 -0.49102142 -0.34095094 -0.15719117  0.0510699
  0.27158163  0.49056202  0.69729176  0.88258287  1.04184133  1.16894184
  1.26847838  1.34045096  1.38945357  1.4200802   1.43845617  1.4445815
  1.44151884  1.42467419  1.3909849   1.3373883   1.25622773  1.14444054
  0.99896405  0.82286094  0.6161312   0.38490015  0.13529313 -0.12962721
 -0.40373553 -0.68090652 -0.95960884 -1.23677982 -1.51241948 -1.78652781
 -2.05757347 -2.32555647 -2.58894547 -2.85080315 -3.10500416 -3.34848586
 -3.5797169  -3.79104064 -3.97173775 -4.11262024 -4.20450012 -4.23206409
 -4.18459282 -4.05442964 -3.83544925 -3.52458897 -3.12950546 -2.66091805
 -2.13567137 -1.57214141 -0.99636079 -0.4312995   0.1046665   0.58856723
  1.01121471  1.36035827  1.63140393  1.82588302  1.94838954  2.00351747
  2.00198614  1.95298353  1.8687603   1.75850444  1.63293526  1.49970943
  1.36495226  1.23785176  1.12147057  1.02040269  0.93924213  0.87798887
  0.84123692  0.82898627  0.84123692  0.87492621  0.93005414  1.00202672
  1.08624995  1.17353584  1.25775906  1.3327943   1.38792224  1.4200802
  1.42467419  1.39711022  1.3373883   1.24857108  1.13372122  0.99590139
  0.84123692  0.67279046  0.49668735  0.31292758  0.12763647 -0.06224862
 -0.25213372 -0.44048748 -0.62884125 -0.81260102 -0.99023547 -1.15715059
 -1.3087524  -1.43891557 -1.54304611 -1.61655002 -1.65177064 -1.64717665
 -1.6012367  -1.51548214 -1.3914443  -1.23677982 -1.05761405 -0.86160363
 -0.65640521 -0.44661281 -0.2368204  -0.03315333  0.16438843  0.35274219
  0.52884531  0.68810378]",4.605202043660002,-0.1229659133281729,6.2437000000000005,0.3769100000000005
036,1,2,csm,55a.png,1,1,272,273,279,1,1,584,neu_feedback_onset,6,"[-1.34174565e-02 -1.18028134e-01 -2.02929554e-01 -2.65089522e-01
 -3.09056328e-01 -3.31797780e-01 -3.36346070e-01 -3.22701199e-01
 -2.90863167e-01 -2.42348070e-01 -1.77155909e-01 -9.52866825e-02
  1.74351130e-03  1.09386383e-01  2.23093641e-01  3.32252609e-01
  4.29282803e-01  5.03571545e-01  5.49054448e-01  5.56634932e-01
  5.23280803e-01  4.50508158e-01  3.42865286e-01  2.09448770e-01
  5.93551889e-02 -9.83188761e-02 -2.49928554e-01 -3.90925554e-01
 -5.13729393e-01 -6.18340071e-01 -7.06273684e-01 -7.83594620e-01
 -8.56367265e-01 -9.33688201e-01 -1.02162181e+00 -1.12926469e+00
 -1.25964901e+00 -1.41429088e+00 -1.59470640e+00 -1.79786336e+00
 -2.01921349e+00 -2.25420850e+00 -2.49678398e+00 -2.74542385e+00
 -2.99254763e+00 -3.23512311e+00 -3.47163421e+00 -3.69904873e+00
 -3.91281837e+00 -4.10991095e+00 -4.28729428e+00 -4.44042005e+00
 -4.56322389e+00 -4.64964141e+00 -4.69967260e+00 -4.70876918e+00
 -4.67996334e+00 -4.61780337e+00 -4.52835366e+00 -4.42374299e+00
 -4.31458402e+00 -4.21300553e+00 -4.12962021e+00 -4.07200853e+00
 -4.04320269e+00 -4.04320269e+00 -4.07049244e+00 -4.11597534e+00
 -4.17207092e+00 -4.23119869e+00 -4.28577818e+00 -4.33126108e+00
 -4.36461521e+00 -4.38887276e+00 -4.40706592e+00 -4.42374299e+00
 -4.44648444e+00 -4.47832247e+00 -4.52380537e+00 -4.58596534e+00
 -4.66328628e+00 -4.74970379e+00 -4.84370179e+00 -4.93466760e+00
 -5.01502073e+00 -5.08021289e+00 -5.12266360e+00 -5.13934066e+00
 -5.13176018e+00 -5.10295434e+00 -5.05595534e+00 -4.99985976e+00
 -4.94376418e+00 -4.89373299e+00 -4.85734666e+00 -4.83915350e+00
 -4.84066960e+00 -4.86189495e+00 -4.89676518e+00 -4.94224808e+00
 -4.98924708e+00 -5.03321389e+00 -5.06505192e+00 -5.08021289e+00
 -5.07263241e+00 -5.04231047e+00 -4.98469879e+00 -4.90131347e+00
 -4.79215450e+00 -4.65722189e+00 -4.49954782e+00 -4.32064840e+00
 -4.12203973e+00 -3.90827008e+00 -3.68237166e+00 -3.45040885e+00
 -3.21844605e+00 -2.99254763e+00 -2.78181017e+00 -2.59381417e+00
 -2.43310792e+00 -2.30575579e+00 -2.21478998e+00 -2.15869440e+00
 -2.13443685e+00 -2.13746904e+00 -2.16021049e+00 -2.19356462e+00
 -2.22843485e+00 -2.25724069e+00 -2.27088556e+00 -2.26633727e+00
 -2.24056362e+00 -2.19204853e+00 -2.12685637e+00 -2.04498714e+00
 -1.95402133e+00 -1.86002333e+00 -1.76602533e+00 -1.67809172e+00
 -1.59925469e+00 -1.53103033e+00 -1.47341865e+00 -1.42490356e+00
 -1.38548504e+00 -1.35213091e+00 -1.32635727e+00 -1.30513191e+00
 -1.28693875e+00 -1.27329388e+00 -1.26116511e+00 -1.25206852e+00
 -1.24297194e+00 -1.23084317e+00 -1.21568220e+00 -1.19142465e+00
 -1.15807052e+00 -1.11107152e+00 -1.05042765e+00 -9.74622814e-01
 -8.88205298e-01 -7.91175104e-01 -6.89596620e-01 -5.89534232e-01
 -4.97052329e-01 -4.19731393e-01 -3.60603619e-01 -3.25733393e-01
 -3.16636812e-01 -3.33313877e-01 -3.74248490e-01 -4.36408458e-01
 -5.15245490e-01 -6.07727394e-01 -7.07789781e-01 -8.12400459e-01
 -9.18527233e-01 -1.02617010e+00 -1.13381298e+00 -1.24297194e+00
 -1.35364701e+00 -1.46583817e+00 -1.57954543e+00 -1.69476878e+00
 -1.80544385e+00 -1.90702233e+00 -1.99192375e+00 -2.05559982e+00
 -2.08895395e+00 -2.08592175e+00 -2.04498714e+00 -1.96615011e+00
 -1.85092675e+00 -1.70841365e+00 -1.54619130e+00 -1.37942065e+00
 -1.21871440e+00 -1.07923349e+00 -9.71590621e-01 -9.04882362e-01
 -8.86689201e-01 -9.17011136e-01 -9.95848169e-01 -1.12168420e+00
 -1.28693875e+00 -1.48403133e+00 -1.70992975e+00 -1.95705353e+00
 -2.22237046e+00 -2.50284837e+00 -2.79697114e+00 -3.10322269e+00
 -3.42008692e+00 -3.74907992e+00 -4.08565340e+00 -4.42980737e+00
 -4.77699353e+00 -5.12417970e+00 -5.46681757e+00 -5.80187496e+00
 -6.12328747e+00 -6.42347464e+00 -6.69637206e+00 -6.93288315e+00
 -7.12845964e+00 -7.27248883e+00 -7.36042245e+00 -7.39226048e+00
 -7.36800293e+00 -7.29371419e+00 -7.18152303e+00 -7.04507432e+00
 -6.90104512e+00 -6.76762860e+00 -6.66301793e+00 -6.60085796e+00
 -6.59024528e+00 -6.64027648e+00 -6.74791935e+00 -6.91165780e+00
 -7.12087915e+00 -7.36800293e+00 -7.63938425e+00 -7.92441045e+00
 -8.20943664e+00 -8.48688235e+00 -8.74916709e+00 -8.99325868e+00
 -9.21764100e+00 -9.42231406e+00 -9.60879397e+00 -9.77859681e+00
 -9.93778697e+00 -1.00878805e+01 -1.02319097e+01 -1.03713906e+01
 -1.05063233e+01 -1.06367076e+01 -1.07610275e+01 -1.08777670e+01]","[ -1.30633419  -1.16057645  -1.02422243  -0.89100299  -0.76091812
  -0.63083325  -0.49918109  -0.36282707  -0.22177119  -0.07758073
   0.0697443    0.21863662   0.36596165   0.51171939   0.6496407
   0.78286014   0.90824315   1.027357     1.14333629   1.25774828
   1.37686213   1.49911056   1.63076272   1.77025131   1.91757635
   2.06490138   2.20752455   2.33604213   2.43791582   2.50217461
   2.51784749   2.47709801   2.37522432   2.20752455   1.97713327
   1.69031965   1.35178553   0.97093465   0.55717073   0.1198975
  -0.3346159   -0.79696573  -1.26401743  -1.7342037   -2.20282268
  -2.66987438  -3.13535879  -3.59927591  -4.06319303  -4.52397558
  -4.98319084  -5.4424061   -5.90005407  -6.35456747  -6.80594629
  -7.25105596  -7.68676191  -8.10836226  -8.51272246  -8.89043876
  -9.23524203  -9.53929582  -9.79162912  -9.98754006 -10.11919222
 -10.18188372 -10.17874915 -10.10978849  -9.9828382   -9.80730199
  -9.59571817  -9.36375961  -9.12396461  -8.89043876  -8.67572036
  -8.48764586  -8.33405167  -8.21807239  -8.13814073  -8.0911221
  -8.07388194  -8.0785838   -8.09739125  -8.11933328  -8.13500615
  -8.13187158  -8.10052582  -8.02529602  -7.89677844  -7.70400207
  -7.43913047  -7.09589449  -6.67429413  -6.17746397  -5.61480773
  -4.99416185  -4.33433379  -3.64942912  -2.9582553   -2.2764852
  -1.61979171  -1.0022804   -0.43648959   0.07131158   0.51171939
   0.88473384   1.18878762   1.42701534   1.60568612   1.73577099
   1.82824095   1.89563432   1.9489221    2.00220988   2.06490138
   2.14326576   2.24357216   2.36582059   2.50687647   2.66517252
   2.83287229   3.00370664   3.17140641   3.32970245   3.47546019
   3.60554506   3.71995706   3.82026346   3.90803157   3.98796323
   4.06005846   4.1305864    4.20111434   4.27164228   4.3453048
   4.41896731   4.49419712   4.56785963   4.63682029   4.70107908]",-0.25603181532977093,3.8737005040321963,6.595885,0.06501999999999875
036,1,2,csp,49b.png,1,1,192,105,193,1,1,565,neg_feedback_onset,7,"[ 1.464525    1.31420718  1.16388937  1.01510541  0.86478759  0.71446978
  0.56108425  0.40616487  0.24817778  0.08865683 -0.07239797 -0.23345277
 -0.39297372 -0.55096081 -0.7089479  -0.86693499 -1.02185437 -1.17830761
 -1.33169313 -1.4835448  -1.62926105 -1.76884188 -1.89921957 -2.01732643
 -2.12009473 -2.20752448 -2.27961568 -2.33790218 -2.38085012 -2.41459494
 -2.43760277 -2.45600903 -2.47134758 -2.48361843 -2.49435541 -2.50816011
 -2.52196481 -2.54037107 -2.5633789  -2.59558986 -2.63853781 -2.69682431
 -2.77351707 -2.87014995 -2.99132451 -3.13550691 -3.30269713 -3.49136133
 -3.69689793 -3.91777309 -4.14631752 -4.38253123 -4.61874494 -4.85189094
 -5.07890151 -5.29210739 -5.49150858 -5.66943579 -5.82742288 -5.963936
 -6.07897514 -6.17714188 -6.26150391 -6.33973053 -6.41795715 -6.50385304
 -6.60201978 -6.71399121 -6.84283506 -6.98548359 -7.13886912 -7.30145778
 -7.47018185 -7.63890593 -7.80916386 -7.98095565 -8.15581515 -8.33220851
 -8.51166957 -8.69419835 -8.87365941 -9.04851891 -9.21264142 -9.35682382
 -9.47493067 -9.56389427 -9.61757921 -9.63751933 -9.62218077 -9.57769897
 -9.50560777 -9.4120426  -9.30313888 -9.18503203 -9.06232361 -8.9426829
 -8.82764375 -8.72640931 -8.64051341 -8.57455764 -8.53314354 -8.51780499
 -8.52854198 -8.56075294 -8.61137016 -8.66965666 -8.72487545 -8.76322183
 -8.77089111 -8.73561244 -8.64511498 -8.49479716 -8.28159128 -8.01316661
 -7.70026014 -7.36127813 -7.01462684 -6.68484796 -6.39494932 -6.16640489
 -6.01455322 -5.95166515 -5.9808084  -6.10198297 -6.30445186 -6.57594424
 -6.89805384 -7.2493067  -7.60976268 -7.95488011 -8.26932044 -8.5346774
 -8.740214   -8.87519327 -8.93501362 -8.91967507 -8.82917761 -8.66812281
 -8.44111223 -8.15734901 -7.81990085 -7.44257246 -7.03149925 -6.59895207
 -6.1556679  -5.71545144 -5.29210739 -4.89483888 -4.54051832 -4.23528112
 -3.98986428 -3.80580165 -3.68462709 -3.62480673 -3.61867131 -3.66008541
 -3.73677817 -3.84414804 -3.97145802 -4.1125727  -4.26442437 -4.42087761
 -4.58193241 -4.74298721 -4.90557587 -5.06356296 -5.21541463 -5.35652932
 -5.48230545 -5.5866076  -5.66636808 -5.7169853  -5.73845927 -5.72772229
 -5.69090976 -5.62802169 -5.54519351 -5.44856063 -5.34119076 -5.23075318
 -5.12338332 -5.02061501 -4.92704984 -4.84575552 -4.7813336  -4.73378408
 -4.70617469 -4.70157312 -4.7230471  -4.76906275 -4.84268781 -4.9423884
 -5.06663067 -5.21081307 -5.37186787 -5.54365966 -5.72158687 -5.89951407
 -6.07283972 -6.23542838 -6.38267848 -6.51305618 -6.62349375 -6.7109235
 -6.77227771 -6.80602253 -6.80755638 -6.77381157 -6.70325423 -6.59281665
 -6.44096498 -6.25230078 -6.02682406 -5.77373794 -5.497644   -5.21081307
 -4.92244828 -4.64175277 -4.37946352 -4.14324981 -3.93924706 -3.77359069
 -3.64781456 -3.56345252 -3.52203843 -3.52050458 -3.5573171  -3.63247601
 -3.73831202 -3.87482514 -4.03587994 -4.21687486 -4.41014062 -4.61414337
 -4.82121383 -5.02675044 -5.22615162 -5.41941738 -5.6004123  -5.77067023
 -5.92712347 -6.07130586 -6.2001497  -6.30905343 -6.39494932 -6.45323582
 -6.47777751 -6.46550666 -6.41182173 -6.31518885 -6.17867573 -6.0084178
 -5.80901661 -5.59581073 -5.37800329 -5.16786512 -4.97920092 -4.81814612
 -4.69390385 -4.6064741 ]","[-0.29325513 -0.37232472 -0.42968892 -0.45914622 -0.45914622 -0.42658816
 -0.3645728  -0.27775129 -0.17542595 -0.0637983   0.04782935  0.15015469
  0.23542581  0.3036427   0.35325499  0.38736344  0.41371997  0.43852611
  0.47108418  0.52069646  0.59356451  0.6912387   0.81526942  0.96100552
  1.11914468  1.28038462  1.43232225  1.56410489  1.66332947  1.72379444
  1.74084866  1.71139137  1.64162409  1.53309721  1.39666342  1.24007464
  1.07728432  0.91759477  0.77806021  0.66643256  0.59821566  0.57961106
  0.61682027  0.71139369  0.85868017  1.04782702  1.26643116  1.49588799
  1.71604252  1.90829014  2.05402623  2.14084773  2.16100273  2.10984005
  1.9889101   1.80286402  1.56100412  1.27108232  0.94550168  0.59201413
  0.21992197 -0.15992211 -0.5382158  -0.90720719 -1.25914436 -1.584725
 -1.87774757 -2.13201055 -2.34286277 -2.50875386 -2.63123419 -2.71650531
 -2.77076875 -2.80642758 -2.83743526 -2.87774525 -2.93976061 -3.03588441
 -3.17386859 -3.35526351 -3.57851881 -3.83743294 -4.11960282 -4.41417578
 -4.70564797 -4.98006594 -5.22192584 -5.42347576 -5.57851416 -5.68238989
 -5.73665333 -5.74440525 -5.71184718 -5.64518067 -5.55215763 -5.43742922
 -5.30874734 -5.16921278 -5.02192631 -4.87153906 -4.71960143 -4.5676638
 -4.41572616 -4.2668893  -4.12270359 -3.98471942 -3.85293678 -3.73200682
 -3.62192956 -3.52425537 -3.44208502 -3.37386812 -3.31960468 -3.27774432
 -3.24828702 -3.22813203 -3.21572896 -3.20952742 -3.20487627 -3.2017755
 -3.19867473 -3.1924732  -3.18162051 -3.16146552 -3.12735707 -3.07774478
 -3.00487673 -2.90255139 -2.76766798 -2.59712574 -2.38937429 -2.145964
 -1.8746468  -1.584725   -1.29170242 -1.00798215 -0.75216879 -0.53666542
 -0.37542548 -0.27465052]",2.653433028854124e-14,0.45596793185754264,6.519519999999998,0.24832999999999927
036,1,2,csm,24a.png,1,0,40,58,39,1,1,526,neu_feedback_onset,8,"[-1.68331674 -1.43156305 -1.19659293 -0.97688062 -0.7724261  -0.58322939
 -0.40623891 -0.24145468 -0.08582512  0.06217553  0.19949573  0.33223859
  0.45735254  0.57636338  0.69232266  0.80370459  0.91356075  1.01731379
  1.11648949  1.2065105   1.2827995   1.34077914  1.37587208  1.38044942
  1.34993382  1.27822216  1.16226288  0.99900443  0.78844679  0.53058998
  0.23306289 -0.09955714 -0.45964121 -0.8334573  -1.21032495 -1.57498636
 -1.91218373 -2.20971083 -2.45230984 -2.6308261  -2.73915647 -2.77272363
 -2.73305335 -2.62777454 -2.46451608 -2.25701001 -2.02203989 -1.77333776
 -1.52768718 -1.30034597 -1.10352036 -0.94636502 -0.8334573  -0.77090032
 -0.75564253 -0.78615812 -0.856344   -0.96467438 -1.1004688  -1.26372725
 -1.44682085 -1.6482238  -1.86793612 -2.10595779 -2.3638146  -2.64303234
 -2.94818833 -3.27928258 -3.63631509 -4.01776008 -4.42056599 -4.8386297
 -5.26279653 -5.68238601 -6.08366614 -6.45748223 -6.78857649 -7.06626844
 -7.27987763 -7.42482673 -7.49348683 -7.48585793 -7.40499159 -7.25393937
 -7.04033018 -6.77331869 -6.46358535 -6.12028486 -5.75714923 -5.38333314
 -5.01256861 -4.65248454 -4.31223561 -3.99945072 -3.71870721 -3.47458241
 -3.2701279  -3.10534366 -2.98022971 -2.89326025 -2.84138373 -2.82154859
 -2.82917749 -2.85969309 -2.90851805 -2.97260081 -3.04278668 -3.1175499
 -3.18926156 -3.2548701  -3.30979818 -3.34946846 -3.37235516 -3.37845828
 -3.3693036  -3.34794268 -3.31895286 -3.28843726 -3.26707634 -3.262499
 -3.28233414 -3.33573644 -3.43186057 -3.57375811 -3.76905795 -4.01776008
 -4.32139029 -4.67384546 -5.07207403 -5.50539554 -5.96312953 -6.43154397
 -6.89538108 -7.33785727 -7.74371474 -8.09616991 -8.38454232 -8.59815152
 -8.73242015 -8.78429667 -8.75835841 -8.6607085  -8.50202738 -8.29604709
 -8.05497385 -7.79559126 -7.53315711 -7.27987763 -7.04948486 -6.85113346
 -6.69245235 -6.57649307 -6.50325563 -6.47121425 -6.46968847 -6.48952361
 -6.51546187 -6.53377123 -6.52919389 -6.48952361 -6.40407994 -6.26675974
 -6.07756302 -5.84259291 -5.56795252 -5.27042543 -4.96374365 -4.66621656
 -4.39310195 -4.15965761 -3.97198668 -3.83771804 -3.75685171 -3.72328455
 -3.72938767 -3.76295483 -3.81177978 -3.86060474 -3.89569768 -3.90485236
 -3.88196566 -3.81940868 -3.71870721 -3.58138701 -3.41355121 -3.22588028
 -3.02752888 -2.83070327 -2.6460839  -2.48282544 -2.34703102 -2.24175221
 -2.16851477 -2.12579293 -2.10900935 -2.11206091 -2.12884449 -2.15325697
 -2.17766945 -2.20055615 -2.21581395 -2.22191707 -2.21886551 -2.20818505
 -2.18834991 -2.16546321 -2.13952495 -2.11511247 -2.09527733 -2.08154531
 -2.07544219 -2.07696797 -2.08764843 -2.10290623 -2.11968981 -2.13647339
 -2.15020541 -2.15325697 -2.14715385 -2.12731871 -2.09375155 -2.04950393
 -1.99457585 -1.93201887 -1.86793612 -1.80385336 -1.74587372 -1.6939972
 -1.64974958 -1.61465664 -1.5871926  -1.56583168 -1.54752232 -1.53226452
 -1.5185325  -1.50174893 -1.48496535 -1.46513021 -1.44376929 -1.41783103
 -1.38884121 -1.35527405 -1.31712955 -1.27440771 -1.22710853 -1.17523201
 -1.12182972 -1.06537586 -1.01044778 -0.95857126 -0.91127208 -0.87312758
 -0.84413776 -0.82430262 -0.81209638 -0.80751904 -0.80599326 -0.8029417
 -0.7953128  -0.780055  ]","[ 0.09076111 -0.06011854 -0.20322089 -0.32765772 -0.42720718 -0.49409197
 -0.52675664 -0.52364572 -0.48787013 -0.41942988 -0.3245468  -0.20477635
 -0.06789584  0.08453927  0.2478626   0.41740778  0.58695295  0.74716537
  0.88871226  1.00381632  1.07692296  1.0986994   1.05825743  0.95093067
  0.77205273  0.52473454  0.2167534  -0.13789156 -0.52675664 -0.92962086
 -1.32937417 -1.70735103 -2.05110776 -2.3513116  -2.60018526 -2.79928418
 -2.95171929 -3.06526789 -3.15237367 -3.22236939 -3.28769872 -3.35924989
 -3.44635567 -3.55057152 -3.67811926 -3.82899891 -3.99854409 -4.18675479
 -4.38740917 -4.59739631 -4.8136053  -5.03136975 -5.25224511 -5.47156502
 -5.69088492 -5.91020483 -6.12641382 -6.3426228  -6.55883179 -6.77348531
 -6.98813884 -7.20279236 -7.41589043 -7.62743303 -7.83430926 -8.03807456
 -8.23406256 -8.41605142 -8.57937475 -8.71781072 -8.81891564 -8.87180129
 -8.86557945 -8.7893619  -8.63070494 -8.38338675 -8.04740732 -7.62587757
 -7.12813027 -6.56972001 -5.9739787  -5.36423826 -4.76694149 -4.20697577
 -3.70611755 -3.27992142 -2.94083107 -2.69040195 -2.5239677  -2.43530646
 -2.40730817 -2.42752916 -2.47885935 -2.54418868 -2.61573986 -2.68418011
 -2.74639853 -2.8023951  -2.85372529 -2.90350002 -2.95794113 -3.01860408
 -3.08704434 -3.16170643 -3.24103491 -3.32191885 -3.39969186 -3.47124304
 -3.53657237 -3.59567986 -3.65478736 -3.71545031 -3.78544602 -3.87099634
 -3.9783231  -4.11053723 -4.26919419 -4.45740489 -4.67050295 -4.91004384
 -5.16825025 -5.44512219 -5.73288235 -6.02841982 -6.32551274 -6.61949474
 -6.90414398 -7.17479408 -7.42988957 -7.66165316 -7.87319576 -8.059851
 -8.22628526 -8.37405399 -8.50782358 -8.6322604  -8.75047539 -8.87024583
 -8.99157174 -9.11756402]",-0.13987587780029953,-0.6126180497171891,6.554025000000001,0.043275000000000396
036,1,2,csp,16b.png,1,1,0,65,3,1,1,505,pos_feedback_onset,9,"[ 1.03070488e+00  9.80916129e-01  9.20236092e-01  8.53332462e-01
  7.81761137e-01  7.03966218e-01  6.19947706e-01  5.25037906e-01
  4.13013223e-01  2.80761861e-01  1.25172024e-01 -5.53121871e-02
 -2.54467179e-01 -4.66069357e-01 -6.80783333e-01 -8.84606019e-01
 -1.06353433e+00 -1.20512108e+00 -1.29536319e+00 -1.32959295e+00
 -1.30469858e+00 -1.22223597e+00 -1.09154050e+00 -9.20391682e-01
 -7.22792589e-01 -5.14302207e-01 -3.04255927e-01 -1.06656833e-01
  7.07155810e-02  2.26305418e-01  3.53889085e-01  4.58134276e-01
  5.40596889e-01  6.02832824e-01  6.52621572e-01  6.88407235e-01
  7.17969304e-01  7.39751881e-01  7.58422661e-01  7.73981645e-01
  7.89540629e-01  8.06655511e-01  8.28438088e-01  8.59556056e-01
  9.03121210e-01  9.62245348e-01  1.04004027e+00  1.13806186e+00
  1.25942194e+00  1.40100869e+00  1.56282212e+00  1.74019453e+00
  1.93157003e+00  2.12761323e+00  2.32365642e+00  2.51347602e+00
  2.69084844e+00  2.84955007e+00  2.98646913e+00  3.09693791e+00
  3.18095643e+00  3.23852467e+00  3.26964263e+00  3.27742213e+00
  3.26341904e+00  3.23230107e+00  3.18562412e+00  3.12494408e+00
  3.05492866e+00  2.97246604e+00  2.87911214e+00  2.77642285e+00
  2.66128637e+00  2.53370270e+00  2.39522775e+00  2.24274971e+00
  2.08093628e+00  1.91134335e+00  1.73708274e+00  1.56593392e+00
  1.39945279e+00  1.24697475e+00  1.11316749e+00  1.00425460e+00
  9.20236092e-01  8.62667852e-01  8.31549885e-01  8.20658596e-01
  8.28438088e-01  8.43997072e-01  8.61111954e-01  8.72003242e-01
  8.70447344e-01  8.50220665e-01  8.03543714e-01  7.30416491e-01
  6.23059503e-01  4.83028650e-01  3.05656235e-01  8.78304631e-02
 -1.72004565e-01 -4.73848849e-01 -8.20814186e-01 -1.21134468e+00
 -1.64388442e+00 -2.11532163e+00 -2.61943270e+00 -3.15154995e+00
 -3.70078207e+00 -4.25934959e+00 -4.81480531e+00 -5.35470204e+00
 -5.86659261e+00 -6.33802981e+00 -6.75501058e+00 -7.10508771e+00
 -7.38048172e+00 -7.57808081e+00 -7.69632909e+00 -7.73833835e+00
 -7.71499987e+00 -7.63876085e+00 -7.52362437e+00 -7.38203762e+00
 -7.22800368e+00 -7.07085795e+00 -6.91215631e+00 -6.75656647e+00
 -6.59942074e+00 -6.43760731e+00 -6.26490259e+00 -6.07352709e+00
 -5.86192491e+00 -5.62854016e+00 -5.37337282e+00 -5.10109061e+00
 -4.81636120e+00 -4.52852001e+00 -4.24534650e+00 -3.97773198e+00
 -3.73190004e+00 -3.51563017e+00 -3.33203416e+00 -3.18422381e+00
 -3.07064323e+00 -2.98818062e+00 -2.93528007e+00 -2.90416211e+00
 -2.89171492e+00 -2.89171492e+00 -2.90105031e+00 -2.91660929e+00
 -2.93683597e+00 -2.96173035e+00 -2.98818062e+00 -3.01774269e+00
 -3.04886065e+00 -3.07997862e+00 -3.11109659e+00 -3.14377046e+00
 -3.17644432e+00 -3.21222998e+00 -3.25268334e+00 -3.29936029e+00
 -3.35226084e+00 -3.41294087e+00 -3.47984450e+00 -3.55297173e+00
 -3.62609895e+00 -3.69767028e+00 -3.75835031e+00 -3.80502726e+00
 -3.82992164e+00 -3.82680984e+00 -3.79258008e+00 -3.72567645e+00
 -3.62298715e+00 -3.49073579e+00 -3.33203416e+00 -3.15310585e+00
 -2.96173035e+00 -2.76724305e+00 -2.57897935e+00 -2.40627463e+00
 -2.25224069e+00 -2.12465702e+00 -2.02663542e+00 -1.95817590e+00
 -1.91772254e+00 -1.90060766e+00 -1.90216355e+00 -1.91461074e+00
 -1.93172562e+00 -1.94728461e+00 -1.95662000e+00 -1.95506410e+00
 -1.94106101e+00 -1.91616664e+00 -1.88193688e+00 -1.84303942e+00
 -1.80258606e+00 -1.76680040e+00 -1.73723833e+00 -1.71545575e+00
 -1.70300856e+00 -1.69367317e+00 -1.68589368e+00 -1.67033470e+00
 -1.64077263e+00 -1.59098388e+00 -1.51630076e+00 -1.41205557e+00
 -1.27824831e+00 -1.11799078e+00 -9.39062462e-01 -7.46131064e-01
 -5.50087869e-01 -3.57156471e-01 -1.73560463e-01 -7.07933759e-03
  1.42286906e-01  2.71426471e-01  3.86562950e-01  4.86140446e-01
  5.76382552e-01  6.58845166e-01  7.36640084e-01  8.09767308e-01
  8.76670938e-01  9.29571482e-01  9.65357145e-01  9.74692535e-01
  9.46686364e-01  8.73559141e-01  7.45975474e-01  5.59267670e-01
  3.10323930e-01 -8.55744104e-04 -3.68047760e-01 -7.88140320e-01
 -1.25024214e+00 -1.74346192e+00 -2.25535248e+00 -2.77191074e+00
 -3.27602182e+00 -3.75523852e+00 -4.18933416e+00 -4.56430567e+00
 -4.86303816e+00 -5.07619623e+00 -5.19133271e+00 -5.20689170e+00
 -5.12287318e+00 -4.95172436e+00 -4.70278062e+00 -4.39782454e+00
 -4.05863870e+00 -3.70544977e+00 -3.36315213e+00 -3.04886065e+00]","[ 0.40989518  0.16662469 -0.06728924 -0.28093063 -0.46494293 -0.60529129
 -0.69885686 -0.73784252 -0.72068883 -0.65051465 -0.53199826 -0.37293678
 -0.18268678  0.02783576  0.25083371  0.47695051  0.69838903  0.90735215
  1.100721    1.27537674  1.42820051  1.55451403  1.65587674  1.72916977
  1.77439313  1.78842797  1.7728337   1.72605092  1.64652018  1.53580092
  1.3923337   1.21767797  1.01183371  0.77480092  0.51125789  0.22120461
 -0.08912121 -0.41660072 -0.75187735 -1.09183227 -1.42554948 -1.74211301
 -2.03216628 -2.28167448 -2.48128104 -2.61695112 -2.67776874 -2.6574962
 -2.54989579 -2.35340809 -2.07271137 -1.71716219 -1.30079539 -0.83920522
 -0.35422367  0.13387674  0.59858576  1.01963084  1.37518002  1.65119846
  1.83521075  1.92097919  1.91006321  1.80402223  1.61533165  1.35490748
  1.0352251   0.67031936  0.2742251  -0.14370113 -0.57098391 -0.9982667
 -1.41931178 -1.82164374 -2.19590604 -2.53430153 -2.82435481 -3.05826874
 -3.22512735 -3.31869292 -3.33584661 -3.27346956 -3.13468063 -2.92415809
 -2.64813964 -2.31598186 -1.93704129 -1.52067448 -1.07623801 -0.61152899
 -0.13434457  0.34751813  0.82314313  1.2847333   1.72137264  2.12526403
  2.48237264  2.78646075  3.02661239  3.1997087   3.3010714   3.32914108
  3.29171485  3.19035214  3.03752837  2.84104067  2.61648329  2.37477223
  2.13150174  1.89602838  1.68238698  1.50149354  1.35958575  1.26757961
  1.22703452  1.24106936  1.31280297  1.43755707  1.61533165  1.83832961
  2.10187264  2.39504477  2.71160829  3.0390878   3.36968616  3.69092796
  3.99345665  4.27103452  4.51430501  4.71858984  4.88077017  5.00084599
  5.07569845  5.11156525  5.11312468  5.085055    5.03515337  4.97433574
  4.90883984  4.84802222]",2.2432553750454276,3.5965826733711506,6.427154999999999,0.3400949999999989
036,1,2,csp,26b.png,1,1,196,286,197,1,1,278,pos_feedback_onset,10,"[ 1.73532248e+00  1.70310591e+00  1.63867277e+00  1.54202306e+00
  1.41008854e+00  1.24286921e+00  1.04496743e+00  8.16383199e-01
  5.61718892e-01  2.87110995e-01 -2.83812632e-03 -3.01991981e-01
 -5.99611714e-01 -8.89560834e-01 -1.16416873e+00 -1.41729892e+00
 -1.64128078e+00 -1.83611431e+00 -1.99873128e+00 -2.13066580e+00
 -2.23652024e+00 -2.31936285e+00 -2.38533011e+00 -2.43902439e+00
 -2.48504806e+00 -2.52493524e+00 -2.55868593e+00 -2.58169777e+00
 -2.59090250e+00 -2.58016364e+00 -2.54334471e+00 -2.47737745e+00
 -2.37919362e+00 -2.25186147e+00 -2.09844923e+00 -1.92969578e+00
 -1.75633995e+00 -1.59218886e+00 -1.44798136e+00 -1.33905868e+00
 -1.27462554e+00 -1.26235256e+00 -1.30530799e+00 -1.40502594e+00
 -1.55997229e+00 -1.76554469e+00 -2.01714075e+00 -2.31169224e+00
 -2.64459678e+00 -3.00971790e+00 -3.40398734e+00 -3.82433686e+00
 -4.26923233e+00 -4.73407140e+00 -5.21578581e+00 -5.71130733e+00
 -6.21910182e+00 -6.73149868e+00 -7.24849790e+00 -7.76549713e+00
 -8.27482574e+00 -8.77341550e+00 -9.25512991e+00 -9.71383249e+00
 -1.01403185e+01 -1.05299856e+01 -1.08720949e+01 -1.11651122e+01
 -1.13998329e+01 -1.15731888e+01 -1.16821114e+01 -1.17250669e+01
 -1.17020550e+01 -1.16130759e+01 -1.14596637e+01 -1.12418183e+01
 -1.09641422e+01 -1.06312376e+01 -1.02492412e+01 -9.82889167e+00
 -9.38092794e+00 -8.91915712e+00 -8.45431806e+00 -8.00328609e+00
 -7.57526596e+00 -7.18099652e+00 -6.82814838e+00 -6.51672155e+00
 -6.24978426e+00 -6.01966591e+00 -5.82483238e+00 -5.65454480e+00
 -5.50420081e+00 -5.36459568e+00 -5.23266116e+00 -5.10532900e+00
 -4.98106510e+00 -4.86293768e+00 -4.75401499e+00 -4.65889941e+00
 -4.58219329e+00 -4.53003313e+00 -4.50395305e+00 -4.50395305e+00
 -4.53156725e+00 -4.57912504e+00 -4.64355818e+00 -4.71259369e+00
 -4.78162919e+00 -4.83839172e+00 -4.87521065e+00 -4.88748363e+00
 -4.86907416e+00 -4.81844813e+00 -4.73713964e+00 -4.62821696e+00
 -4.49781656e+00 -4.34900669e+00 -4.19252622e+00 -4.03451162e+00
 -3.87956526e+00 -3.73535776e+00 -3.60495736e+00 -3.49296643e+00
 -3.39938497e+00 -3.32881534e+00 -3.27818931e+00 -3.24750686e+00
 -3.23523388e+00 -3.23676800e+00 -3.25210923e+00 -3.27512106e+00
 -3.30273526e+00 -3.33341771e+00 -3.36256603e+00 -3.38864611e+00
 -3.41012383e+00 -3.42546505e+00 -3.43466978e+00 -3.43466978e+00
 -3.42699917e+00 -3.40858970e+00 -3.37944138e+00 -3.33648595e+00
 -3.27972343e+00 -3.21068792e+00 -3.13091356e+00 -3.04346859e+00
 -2.94988713e+00 -2.85630566e+00 -2.76732657e+00 -2.68755221e+00
 -2.62311907e+00 -2.57402716e+00 -2.54641295e+00 -2.53874234e+00
 -2.55408357e+00 -2.58936838e+00 -2.64766503e+00 -2.72437114e+00
 -2.81948673e+00 -2.93301178e+00 -3.06341218e+00 -3.21068792e+00
 -3.37177077e+00 -3.54512659e+00 -3.72768715e+00 -3.91791832e+00
 -4.10968361e+00 -4.30298302e+00 -4.49014595e+00 -4.67117238e+00
 -4.84299409e+00 -5.00407693e+00 -5.15288680e+00 -5.29249193e+00
 -5.42289233e+00 -5.54562211e+00 -5.66068129e+00 -5.76960397e+00
 -5.87392429e+00 -5.97364224e+00 -6.06875783e+00 -6.15620280e+00
 -6.23751129e+00 -6.30808091e+00 -6.36791168e+00 -6.41393535e+00
 -6.44461780e+00 -6.45842490e+00 -6.45075429e+00 -6.42467421e+00
 -6.37865054e+00 -6.31268328e+00 -6.22984067e+00 -6.13472509e+00
 -6.03500714e+00 -5.93835743e+00 -5.85858307e+00 -5.80488879e+00
 -5.79261581e+00 -5.83250299e+00 -5.93528919e+00 -6.10711089e+00
 -6.35103634e+00 -6.66706554e+00 -7.04752788e+00 -7.48475274e+00
 -7.96800128e+00 -8.48500050e+00 -9.01887507e+00 -9.56042026e+00
 -1.00927607e+01 -1.06066917e+01 -1.10884061e+01 -1.15271651e+01
 -1.19183663e+01 -1.22512708e+01 -1.25243446e+01 -1.27329852e+01
 -1.28802610e+01 -1.29661718e+01 -1.29953202e+01 -1.29707742e+01
 -1.28956022e+01 -1.27713383e+01 -1.25979825e+01 -1.23755347e+01
 -1.20993927e+01 -1.17664882e+01 -1.13737529e+01 -1.09196526e+01
 -1.04072558e+01 -9.84116464e+00 -9.22904983e+00 -8.58471845e+00
 -7.92197761e+00 -7.25463439e+00 -6.59956416e+00 -5.97057400e+00
 -5.37533453e+00 -4.82765286e+00 -4.33366547e+00 -3.89950885e+00
 -3.53285361e+00 -3.23676800e+00 -3.01432026e+00 -2.86704452e+00
 -2.79494077e+00 -2.79187253e+00 -2.85016918e+00 -2.96062598e+00
 -3.11250409e+00 -3.29046228e+00 -3.48529582e+00 -3.68319760e+00
 -3.87803114e+00 -4.06365994e+00 -4.23394752e+00 -4.38889387e+00]","[-0.52122137 -0.37967199 -0.25334296 -0.14527838 -0.05700026  0.01605748
  0.07237283  0.11651189  0.14695262  0.16521705  0.17434927  0.17282724
  0.16217298  0.14390854  0.11651189  0.08454912  0.04802025  0.00996934
 -0.02351546 -0.04939008 -0.06156637 -0.05547823 -0.02808157  0.02366767
  0.09824745  0.19109167  0.29611219  0.40265474  0.50006507  0.57464485
  0.61269576  0.60204151  0.53811598  0.41330899  0.22914258 -0.01133917
 -0.30052609 -0.62624189 -0.97478823 -1.33246679 -1.68253516 -2.01129503
 -2.3065701  -2.55922814 -2.75861492 -2.90625245 -3.00214074 -3.05388998
 -3.06911035 -3.05997813 -3.04019165 -3.01888314 -3.00518482 -3.00822889
 -3.0295374  -3.06911035 -3.12846977 -3.20304955 -3.28828359 -3.38112781
 -3.47549407 -3.56529422 -3.64596215 -3.70988768 -3.74793859 -3.75402674
 -3.71749786 -3.63226382 -3.4891924  -3.28676156 -3.02344925 -2.70229957
 -2.33244472 -1.92606099 -1.50141283 -1.0737206  -0.6642928  -0.29139387
  0.02975581  0.28545793  0.46658027  0.56855671  0.59138725  0.53354987
  0.4011327   0.19870186 -0.06765452 -0.39184828 -0.76626924 -1.18330722
 -1.63383    -2.11174944 -2.60488924 -3.10411718 -3.6018231  -4.08735271
 -4.55309586 -4.9853542  -5.3780396  -5.71440965 -5.9838101  -6.17254262
 -6.26690887 -6.25777665 -6.13753578 -5.9046642  -5.56677212 -5.1314697
 -4.61702139 -4.04473569 -3.43592113 -2.81340823 -2.19850551 -1.60795538
 -1.05545616 -0.5516621  -0.10113932  0.29306811  0.62943816  0.91253694
  1.14236444  1.32500881  1.46351412  1.56244649  1.62789406  1.66442293
  1.67812126  1.67355515  1.65681275  1.6339822   1.60962962  1.58984315
  1.57766686  1.57462278  1.583755    1.60354147  1.63246017  1.667467
  1.70856199  1.74965697]",-4.04121180963557e-15,1.554184007463209,6.518385,0.1520899999999985
036,1,2,csp,1b.png,1,1,92,123,96,1,0,257,neg_feedback_onset,11,"[ 4.71353768e-01  4.30797516e-01  3.81228764e-01  3.22647512e-01
  2.55053760e-01  1.75443340e-01  8.83225033e-02 -7.81083363e-03
 -1.05446254e-01 -2.01579591e-01 -2.87198344e-01 -3.54792097e-01
 -3.95348348e-01 -4.04360848e-01 -3.72817097e-01 -2.99215011e-01
 -1.83554590e-01 -3.03420845e-02  1.54414172e-01  3.63203764e-01
  5.82507939e-01  8.01812113e-01  1.00759754e+00  1.19085171e+00
  1.34106005e+00  1.44770797e+00  1.50929339e+00  1.51830589e+00
  1.47474547e+00  1.37711005e+00  1.22840380e+00  1.03163087e+00
  7.92799613e-01  5.17918353e-01  2.17501675e-01 -9.94379204e-02
 -4.20883766e-01 -7.37823361e-01 -1.03673796e+00 -1.31161922e+00
 -1.55495672e+00 -1.76224423e+00 -1.93348174e+00 -2.07017133e+00
 -2.17982342e+00 -2.26844634e+00 -2.34655467e+00 -2.42015676e+00
 -2.50126926e+00 -2.59590051e+00 -2.70705468e+00 -2.84074011e+00
 -2.99695678e+00 -3.17270054e+00 -3.36646929e+00 -3.57225472e+00
 -3.78705264e+00 -4.00485473e+00 -4.21815057e+00 -4.42243392e+00
 -4.60869226e+00 -4.77392143e+00 -4.90910893e+00 -5.00974852e+00
 -5.07133394e+00 -5.08935894e+00 -5.06382352e+00 -4.99172352e+00
 -4.87456102e+00 -4.71534018e+00 -4.51556309e+00 -4.27823391e+00
 -4.00785890e+00 -3.70894431e+00 -3.38749846e+00 -3.05253386e+00
 -2.71156094e+00 -2.37509426e+00 -2.05214633e+00 -1.75323173e+00
 -1.48736297e+00 -1.26054838e+00 -1.07579212e+00 -9.36098368e-01
 -8.36960865e-01 -7.75375446e-01 -7.46835861e-01 -7.42329611e-01
 -7.54346278e-01 -7.76877529e-01 -8.03915030e-01 -8.29450448e-01
 -8.50479615e-01 -8.63998366e-01 -8.70006699e-01 -8.67002533e-01
 -8.59492116e-01 -8.45973365e-01 -8.29450448e-01 -8.12927530e-01
 -7.94902530e-01 -7.75375446e-01 -7.57350445e-01 -7.36321278e-01
 -7.13790027e-01 -6.86752526e-01 -6.55208775e-01 -6.19158773e-01
 -5.77100438e-01 -5.35042103e-01 -4.91481685e-01 -4.52427517e-01
 -4.19381682e-01 -3.96850432e-01 -3.87837931e-01 -3.93846265e-01
 -4.13373349e-01 -4.46419183e-01 -4.91481685e-01 -5.44054604e-01
 -5.99631689e-01 -6.55208775e-01 -7.07781693e-01 -7.52844195e-01
 -7.88894196e-01 -8.15931697e-01 -8.35458781e-01 -8.48977532e-01
 -8.60994199e-01 -8.74512949e-01 -8.98546284e-01 -9.36098368e-01
 -9.94679621e-01 -1.08029837e+00 -1.19595879e+00 -1.34015880e+00
 -1.51440047e+00 -1.71117340e+00 -1.91996299e+00 -2.12875258e+00
 -2.32402342e+00 -2.48775051e+00 -2.60641510e+00 -2.66649843e+00
 -2.65898802e+00 -2.58087968e+00 -2.43217342e+00 -2.21887758e+00
 -1.95451091e+00 -1.65259215e+00 -1.32964422e+00 -1.00369212e+00
 -6.91258776e-01 -4.04360848e-01 -1.55015006e-01  5.07704186e-02
  2.06987091e-01  3.16639179e-01  3.76722514e-01  3.93245431e-01
  3.69212097e-01  3.06124595e-01  2.05485008e-01  7.17995860e-02
 -9.49316702e-02 -2.96210844e-01 -5.30535853e-01 -7.96404613e-01
 -1.09531921e+00 -1.42427547e+00 -1.78177132e+00 -2.15879425e+00
 -2.54933593e+00 -2.94438386e+00 -3.32891721e+00 -3.68941722e+00
 -4.01236515e+00 -4.27973599e+00 -4.47951308e+00 -4.60268392e+00
 -4.64173809e+00 -4.59367142e+00 -4.46599433e+00 -4.26321308e+00
 -4.00034848e+00 -3.69392347e+00 -3.35895888e+00 -3.01347970e+00
 -2.67250677e+00 -2.34955884e+00 -2.05214633e+00 -1.78777965e+00
 -1.55495672e+00 -1.35217547e+00 -1.17943588e+00 -1.02772546e+00
 -8.94040034e-01 -7.72371279e-01 -6.58212941e-01 -5.48560854e-01
 -4.40410850e-01 -3.32260846e-01 -2.27115009e-01 -1.23471255e-01
 -2.28316675e-02  7.33016694e-02  1.60422506e-01  2.41535009e-01
  3.12132928e-01  3.75220431e-01  4.29295433e-01  4.77362101e-01
  5.17918353e-01  5.55470437e-01  5.88516272e-01  6.20060023e-01
  6.48599608e-01  6.74135025e-01  6.93662109e-01  7.04176693e-01
  7.02674610e-01  6.84649609e-01  6.47097524e-01  5.88516272e-01
  5.07403769e-01  4.03760015e-01  2.83593344e-01  1.46903756e-01
 -3.00416678e-04 -1.53512922e-01 -3.08227512e-01 -4.62942101e-01
 -6.17656690e-01 -7.72371279e-01 -9.31592118e-01 -1.10132754e+00
 -1.29209213e+00 -1.51139631e+00 -1.76975465e+00 -2.07617966e+00
 -2.43818176e+00 -2.85726302e+00 -3.33642763e+00 -3.86966723e+00
 -4.44947142e+00 -5.06682769e+00 -5.70521313e+00 -6.34960690e+00
 -6.98498818e+00 -7.59182987e+00 -8.15811531e+00 -8.67032574e+00
 -9.11944868e+00 -9.49496952e+00 -9.79538620e+00 -1.00191966e+01
 -1.01648987e+01 -1.02369987e+01 -1.02445091e+01 -1.01934383e+01]","[ 7.74287482e-01  5.21751601e-01  2.75451174e-01  4.62982449e-02
 -1.57912869e-01 -3.26270123e-01 -4.55655790e-01 -5.39834418e-01
 -5.77247141e-01 -5.67893960e-01 -5.14892602e-01 -4.22919658e-01
 -2.99769444e-01 -1.51677415e-01  1.04443852e-02  1.78801639e-01
  3.44041166e-01  4.95250922e-01  6.29313180e-01  7.38433623e-01
  8.19494523e-01  8.72495881e-01  8.98996560e-01  9.00555423e-01
  8.81849061e-01  8.45995202e-01  7.97670434e-01  7.44669077e-01
  6.91667719e-01  6.41784088e-01  6.01253638e-01  5.74752959e-01
  5.65399778e-01  5.76311823e-01  6.10606819e-01  6.66725903e-01
  7.46227940e-01  8.49112929e-01  9.69145415e-01  1.10788426e+00
  1.26065288e+00  1.42433355e+00  1.59580853e+00  1.77196010e+00
  1.95434712e+00  2.13829301e+00  2.32068004e+00  2.50306706e+00
  2.68077750e+00  2.85225248e+00  3.00969769e+00  3.14531881e+00
  3.25132153e+00  3.31367607e+00  3.31367607e+00  3.23105630e+00
  3.04399269e+00  2.72910227e+00  2.26456095e+00  1.63633898e+00
  8.35083158e-01 -1.34529917e-01 -1.25847047e+00 -2.50400238e+00
 -3.83059519e+00 -5.18524754e+00 -6.50716376e+00 -7.74022476e+00
 -8.83298805e+00 -9.74024658e+00 -1.04354997e+01 -1.09093942e+01
 -1.11666067e+01 -1.12242846e+01 -1.11151642e+01 -1.08750992e+01
 -1.05430613e+01 -1.01595809e+01 -9.75895294e+00 -9.36767821e+00
 -9.00913962e+00 -8.69892579e+00 -8.44327218e+00 -8.24529652e+00
 -8.10499881e+00 -8.01614359e+00 -7.96937769e+00 -7.95846564e+00
 -7.96937769e+00 -7.99276064e+00 -8.01770245e+00 -8.03484995e+00
 -8.03484995e+00 -8.01302586e+00 -7.96002451e+00 -7.87584588e+00
 -7.75581339e+00 -7.59992705e+00 -7.41130457e+00 -7.18994595e+00
 -6.94052780e+00 -6.66772669e+00 -6.37621923e+00 -6.07379971e+00
 -5.76670361e+00 -5.46272524e+00 -5.16810004e+00 -4.89218121e+00
 -4.63808646e+00 -4.41205126e+00 -4.21407560e+00 -4.04260062e+00
 -3.89294973e+00 -3.76044633e+00 -3.63729612e+00 -3.51570477e+00
 -3.38943683e+00 -3.25225684e+00 -3.10104709e+00 -2.93580756e+00
 -2.75809713e+00 -2.57259237e+00 -2.38396990e+00 -2.19690628e+00
 -2.01919584e+00 -1.85239745e+00 -1.69962883e+00 -1.56088999e+00
 -1.43618091e+00 -1.31926615e+00 -1.20702798e+00 -1.09478981e+00
 -9.77875051e-01 -8.50048247e-01 -7.12868262e-01 -5.63217369e-01
 -4.02654433e-01 -2.35856042e-01 -6.59399245e-02  1.02417330e-01]",-0.09519453481978297,-0.5610739322174997,6.657419999999999,0.19870999999999928
036,1,2,csm,14a.png,1,1,160,181,160,1,1,318,neu_feedback_onset,12,"[ 3.5875662   3.15684532  2.68902113  2.19538596  1.68561892  1.17585188
  0.67576396  0.19987385 -0.23891297 -0.63253056 -0.96968661 -1.24392837
 -1.45041628 -1.58915035 -1.66013057 -1.67142288 -1.62948002 -1.54559431
 -1.43267123 -1.30200309 -1.16004265 -1.01646902 -0.87450858 -0.73254814
 -0.58736133 -0.43572176 -0.26956352 -0.07920747  0.14179912  0.39990902
  0.70318814  1.04841012  1.43396178  1.85177717  2.2889508   2.72451124
  3.13748707  3.50529367  3.80695961  4.02473983  4.14572885  4.16508709
  4.08281456  3.90859038  3.65532005  3.3423618   2.98907389  2.61481454
  2.23732882  1.87113541  1.52591343  1.21134199  0.92580792  0.67415078
  0.44991781  0.25310901  0.07888484 -0.07759429 -0.21955473 -0.35022286
 -0.47121187 -0.58413495 -0.6889921  -0.78739649 -0.87612177 -0.95678111
 -1.02292177 -1.07454375 -1.10680749 -1.11809979 -1.10680749 -1.06970419
 -1.00517672 -0.91645144 -0.80352836 -0.66963385 -0.51799429 -0.35506242
 -0.18245143 -0.00822725  0.16438374  0.3289288   0.48540792  0.62736836
  0.75481012  0.86612001  0.96291122  1.04841012  1.12745628  1.20166287
  1.28070903  1.36782112  1.47106507  1.59205409  1.73562772  1.90017277
  2.08891563  2.29540355  2.51641014  2.74709586  2.97778158  3.20362773
  3.4165684   3.611764    3.78276181  3.92794862  4.04409808  4.13282335
  4.19412445  4.23445412  4.25703874  4.26510467  4.26510467  4.26026511
  4.25381236  4.24735962  4.24252006  4.23929368  4.23445412  4.224775
  4.21025632  4.18283214  4.14411566  4.08765412  4.01506071  3.92794862
  3.82470467  3.71178159  3.59240576  3.47302994  3.35849367  3.2568629
  3.17297718  3.11328927  3.08425191  3.08747828  3.12619477  3.19878817
  3.30203213  3.43270027  3.58433983  3.74565851  3.91020357  4.06668269
  4.20219039  4.30866072  4.37318819  4.38770687  4.34253764  4.23284093
  4.0537772   3.80373324  3.48593543  3.10522334  2.67127608  2.19861234
  1.69852442  1.19198375  0.69189583  0.2176189  -0.22116792 -0.61155913
 -0.94871518 -1.23263606 -1.46493496 -1.65045145 -1.79725145 -1.91178772
 -2.00373937 -2.07955915 -2.14408662 -2.20054816 -2.24894377 -2.29249981
 -2.32960311 -2.35702728 -2.37638553 -2.38445146 -2.38445146 -2.37638553
 -2.36025366 -2.33928223 -2.31669761 -2.29249981 -2.26991519 -2.24894377
 -2.23442508 -2.22313278 -2.21829322 -2.21668003 -2.21829322 -2.22474596
 -2.2328119  -2.24087783 -2.24894377 -2.25539651 -2.26023607 -2.26346245
 -2.26507563 -2.26346245 -2.26023607 -2.25378333 -2.24571739 -2.23603827
 -2.2199064  -2.19893497 -2.16989761 -2.12956794 -2.07471959 -2.00373937
 -1.91178772 -1.80209101 -1.67142288 -1.52300969 -1.36330419 -1.19875914
 -1.03744045 -0.88902726 -0.7615855  -0.66802067 -0.61155913 -0.59865363
 -0.63414374 -0.7131899  -0.83417891 -0.99227122 -1.17778771 -1.38266244
 -1.59721628 -1.81499651 -2.03116354 -2.23765146 -2.43446025 -2.61997674
 -2.7958141  -2.95874597 -3.11361191 -3.2620251  -3.40237235 -3.53626686
 -3.66209543 -3.77824488 -3.88148884 -3.96537456 -4.02828884 -4.06055258
 -4.05732621 -4.01215698 -3.9234317  -3.78953719 -3.61369983 -3.40237235
 -3.16684707 -2.91680312 -2.66675916 -2.42962069 -2.21668003 -2.03277673
 -1.88113717 -1.76337453]","[ -0.16487831  -0.18125449  -0.20358564  -0.23187176  -0.25866914
  -0.27951154  -0.28993275  -0.28397777  -0.25866914  -0.2125181
  -0.14403591  -0.0576888    0.042057     0.14775777   0.25048105
   0.33980564   0.41126532   0.45592762   0.46932631   0.44997264
   0.39935537   0.3174745    0.20879624   0.07778683  -0.07406498
  -0.24378171  -0.43136335  -0.63680992  -0.85863266  -1.09980907
  -1.35885039  -1.63575664  -1.92903905  -2.2372089   -2.55877744
  -2.89076719  -3.23020065  -3.57558908  -3.92544374  -4.27678714
  -4.62961929  -4.98394018  -5.33826107  -5.69407071  -6.0483916
  -6.40420123  -6.76001087  -7.11433176  -7.47014139  -7.82446228
  -8.18027192  -8.53608155  -8.89040244  -9.24621208  -9.60202171
  -9.9563426  -10.31215224 -10.66647313 -11.02079402 -11.37362617
 -11.72645832 -12.07631298 -12.42319015 -12.76262361 -13.0961021
 -13.41618189 -13.71988552 -14.00423547 -14.26178806 -14.48956577
 -14.68012491 -14.8349542  -14.95107618 -15.02849082 -15.07464186
 -15.09399553 -15.09250678 -15.08059684 -15.06719815 -15.05677695
 -15.0552882  -15.06719815 -15.09548427 -15.13865782 -15.19671881
 -15.26966723 -15.35750308 -15.45724888 -15.57188211 -15.69842528
 -15.83538966 -15.98277524 -16.13611579 -16.28945635 -16.43833067
 -16.57082882 -16.67950708 -16.75096675 -16.77776413 -16.74798927
 -16.6527097  -16.48597046 -16.24628279 -15.93364671 -15.55401719
 -15.11483793 -14.63099638 -14.11589122 -13.58887611 -13.06781598
 -12.56908699 -12.11055407 -11.70412717 -11.36022748 -11.08183249
 -10.87043095 -10.72155663 -10.62478832 -10.57119356 -10.54886241
 -10.54290744 -10.54290744 -10.53844121 -10.52057629 -10.4863352
 -10.42976295 -10.34937082 -10.24367005 -10.11414939  -9.96080883
  -9.78215965  -9.57820182  -9.34893536  -9.09436027  -8.81447654
  -8.50779543  -8.17580569  -7.82297354  -7.45376522  -7.07264695]",2.481403988765771,-0.5725588969352766,6.19891,0.976180000000002
036,1,2,csm,17a.png,1,1,48,270,48,1,1,625,neu_feedback_onset,13,"[  1.68563155   1.665797     1.61239629   1.52542942   1.40184492
   1.24164279   1.04940023   0.82664299   0.58099972   0.31704764
   0.04088969  -0.23984547  -0.52058063  -0.79979006  -1.07442228
  -1.3444773   -1.60842938  -1.86627852  -2.12107619  -2.3728224
  -2.61999139  -2.86563466  -3.10670072  -3.34166384  -3.56899829
  -3.78870407  -3.9931525   -4.18386932  -4.3547516   -4.50427358
  -4.63243529  -4.74076244  -4.83078078  -4.90859324  -4.98030277
  -5.05353803  -5.13592769  -5.23052324  -5.34190186  -5.4715893
  -5.61653408  -5.77368474  -5.9354126   -6.10019194  -6.26039407
  -6.41449326  -6.56096378  -6.69675415  -6.82644159  -6.94850036
  -7.06445618  -7.17583481  -7.28416196  -7.38638618  -7.48098172
  -7.56642285  -7.64118385  -7.70679043  -7.76019114  -7.80443745
  -7.84258081  -7.87462124  -7.90513593  -7.93412488  -7.96158811
  -7.98599986  -8.00278294  -8.00736014  -7.99515427  -7.96158811
  -7.90208446  -7.81664332  -7.70373897  -7.56642285  -7.41079793
  -7.24449286  -7.07513632  -6.91188273  -6.76388647  -6.6372505
  -6.54112923  -6.47552264  -6.44348221  -6.44500795  -6.47552264
  -6.53044908  -6.60063287  -6.67997107  -6.75778353  -6.82796732
  -6.88136803  -6.91340846  -6.9195114   -6.89815111  -6.85085334
  -6.78219529  -6.69522842  -6.59910714  -6.49993439  -6.40686458
  -6.32752639  -6.26497127  -6.22377644  -6.20546762  -6.20851909
  -6.23140511  -6.27107421  -6.32294918  -6.3855043   -6.45568809
  -6.53502629  -6.62199316  -6.71964017  -6.83101879  -6.9591805
  -7.10717675  -7.27500755  -7.4626729   -7.67322427  -7.90055872
  -8.14467625  -8.40099966  -8.66495174  -8.93195529  -9.19590737
  -9.45223078  -9.69329684  -9.91300262 -10.1021937  -10.25324142
 -10.36156858 -10.41954649 -10.42412369 -10.37072298 -10.25934436
 -10.09303929  -9.87333352  -9.60938144  -9.30576026  -8.97162439
  -8.61765397  -8.25452914  -7.89445579  -7.54811404  -7.22923552
  -6.94850036  -6.71811444  -6.5441807   -6.43432781  -6.38855577
  -6.40533885  -6.47399691  -6.58690126  -6.72726884  -6.87831657
  -7.02173561  -7.14074291  -7.21855537  -7.2460186   -7.21397817
  -7.1224341   -6.97443784  -6.77761808  -6.54723216  -6.29548596
  -6.03763682  -5.79199356  -5.56923631  -5.38157096  -5.23510044
  -5.13287622  -5.07642404  -5.0611667   -5.07947551  -5.12829902
  -5.19543134  -5.2732438   -5.352582    -5.42734299  -5.48532091
  -5.5204128   -5.52651574  -5.49905252  -5.43344593  -5.32817025
  -5.1847512   -5.00624025  -4.80026609  -4.57293164  -4.33491705
  -4.09385098  -3.86193933  -3.64681076  -3.45609394  -3.29436607
  -3.16620437  -3.07008309  -3.00600224  -2.97243608  -2.96328167
  -2.97701328  -3.00447651  -3.0441456   -3.08686617  -3.128061
  -3.16467863  -3.19214186  -3.2073992   -3.21045067  -3.20129626
  -3.18756465  -3.17078157  -3.16162717  -3.16620437  -3.19214186
  -3.24859404  -3.33861237  -3.46372261  -3.62392474  -3.81464156
  -4.02519293  -4.24947591  -4.47223316  -4.68431026  -4.87197561
  -5.02912627  -5.1450821   -5.21526589  -5.23967764  -5.21374016
  -5.14203063  -5.02302333  -4.86434694  -4.66752718  -4.438667
  -4.18386932  -3.91076284  -3.62392474  -3.33556091  -3.05024854
  -2.77714206  -2.52234438  -2.2934842   -2.0951387   -1.92883364
  -1.79762046  -1.69997345  -1.63436687  -1.59927497  -1.59317203
  -1.60995511  -1.64962421  -1.70760213  -1.78083738  -1.86475279
  -1.95629686  -2.0508924   -2.14396221  -2.23092908  -2.30874154]","[-1.00017949 -0.84235414 -0.6675084  -0.48647344 -0.30698578 -0.13987659
  0.00711761  0.12780759  0.21909872  0.27944371  0.30884255  0.31348447
  0.29955871  0.27480179  0.25004487  0.22992988  0.22683526  0.24695026
  0.29182217  0.36764023  0.47285713  0.60592557  0.76220361  0.93550204
  1.12117892  1.31459235  1.50645846  1.69522996  1.87781223  2.04956335
  2.20893601  2.35747752  2.49209326  2.61433054  2.72109475  2.81238589
  2.88665664  2.94235971  2.97640047  2.98723162  2.97175855  2.92843394
  2.85106857  2.73811513  2.58338439  2.38378174  2.13466526  1.83294032
  1.47551231  1.06702317  0.60747288  0.10614529 -0.42767576 -0.98006449
 -1.53400053 -2.06782158 -2.55831801 -2.98228024 -3.31340401 -3.52847974
 -3.61048703 -3.54704743 -3.33970824 -2.99156408 -2.52582456 -1.96569929
 -1.34677634 -0.70464378 -0.07643698  0.50380328  1.00822549  1.41671463
  1.71379765  1.89483261  1.96136683  1.91958953  1.77878456  1.55442499
  1.2619839   0.91848166  0.53784404  0.13244951 -0.28377617 -0.70154916
 -1.11622754 -1.52471669 -1.92237468 -2.30765422 -2.68210261 -3.04262522
 -3.38767477 -3.71415662 -4.01742887 -4.28975497 -4.526493   -4.72145373
 -4.86690062 -4.95819175 -4.99068521 -4.96592829 -4.88237369 -4.74621064
 -4.56053376 -4.33462688 -4.07932117 -3.80080584 -3.51145936 -3.22366019
 -2.94823947 -2.69602837 -2.47785803 -2.3030123  -2.18077502 -2.11733541
 -2.1142408  -2.17149117 -2.28444461 -2.44226996 -2.63568338 -2.84611719
 -3.0596456  -3.25924826 -3.43099937 -3.5625205  -3.65071702 -3.69249432
 -3.69249432 -3.66464279 -3.61977087 -3.57489896 -3.54550012 -3.54395281
 -3.5826355  -3.6677374  -3.80080584 -3.98029349 -4.20310576 -4.46305339
 -4.75085257 -5.06031404]",1.4233059175694506e-14,1.238116679354588,6.554219999999999,-0.09593000000000007
036,1,2,csp,44b.png,1,1,124,138,125,1,1,252,pos_feedback_onset,14,"[ 1.92615904  1.56778061  1.20773531  0.85269063  0.50931409  0.18594006
 -0.11243081 -0.37579729 -0.5941581  -0.76251262 -0.87252646 -0.92253275
 -0.90753086 -0.8341883  -0.70417194 -0.52581617 -0.30578848 -0.05575702
  0.21761072  0.50598034  0.80101746  1.09605459  1.38775796  1.67112695
  1.94282781  2.19619302  2.4312226   2.6429159   2.83127294  2.99295995
  3.12964381  3.23965766  3.32466835  3.38800966  3.4346822   3.46635285
  3.48968912  3.50802476  3.5263604   3.55136355  3.5830342   3.62803986
  3.68971429  3.76805748  3.86640319  3.98641829  4.13143654  4.29979106
  4.49314872  4.70817578  4.94320535  5.19490369  5.45660329  5.72330352
  5.98833687  6.24670271  6.48839979  6.71176123  6.91011952  7.08180779
  7.22682604  7.34184051  7.43185184  7.49519315  7.53853193  7.5618682
  7.56853571  7.56520195  7.55353382  7.53519818  7.51519566  7.49519315
  7.4768575   7.46018874  7.44852061  7.44018622  7.43185184  7.42351746
  7.4135162   7.39518056  7.36684366  7.32517175  7.26849795  7.19182164
  7.09680968  6.98012833  6.84344447  6.68842496  6.51340294  6.3183784
  6.10668509  5.87665615  5.62662468  5.35825758  5.06988796  4.76151582
  4.43480805  4.09309838  3.73972058  3.37967528  3.01796309  2.65958466
  2.30954062  1.96949783  1.64279005  1.32775041  1.02604578  0.7343424
  0.45097341  0.17760568 -0.08742767 -0.34079288 -0.57915621 -0.79751702
 -0.99087469 -1.15589545 -1.28757869 -1.38759127 -1.4559332  -1.49427136
 -1.50927325 -1.50427262 -1.48260323 -1.4492657  -1.40592691 -1.34925311
 -1.27591055 -1.18256547 -1.06255037 -0.90753086 -0.71584008 -0.4808105
 -0.20577589  0.11093063  0.46264155  0.84268937  1.24440659  1.65445819
  2.06450978  2.46456012  2.84127419  3.18465074  3.48802224  3.73972058
  3.93474512  4.06809524  4.13810404  4.14643843  4.09809901  3.9997533
  3.86473631  3.70804993  3.54469604  3.39301029  3.2646608   3.17464948
  3.12964381  3.12964381  3.1729826   3.25465954  3.36133964  3.48302161
  3.60637047  3.72305182  3.82139753  3.90140759  3.96141514  4.00642081
  4.03809146  4.06809524  4.09976589  4.1414378   4.19477784  4.26311978
  4.34312984  4.43147429  4.52148562  4.60649632  4.68317263  4.74651394
  4.79318648  4.82319025  4.83985902  4.84319277  4.83985902  4.83485839
  4.826524    4.81818962  4.80318773  4.77818459  4.73151205  4.65650261
  4.53982126  4.3748005   4.15143906  3.86807007  3.52469352  3.12297631
  2.66958592  2.17285675  1.6461238   1.10105522  0.54931912  0.00925116
 -0.50748052 -0.97920655 -1.39425878 -1.73430157 -1.9859999  -2.14268629
 -2.19602633 -2.14935379 -2.01100305 -1.79430912 -1.51594076 -1.19923424
 -0.86419208 -0.52914992 -0.20744277  0.09092811  0.36096209  0.60599292
  0.82768748  1.03438016  1.23273845  1.42942987  1.62612129  1.82781333
  2.03283913  2.23786493  2.44122385  2.63791527  2.82460543  3.00296121
  3.16798197  3.32466835  3.47468723  3.62303923  3.77139123  3.92307699
  4.08143025  4.24478414  4.41313865  4.58316005  4.75151457  4.90986783
  5.05488607  5.1799018   5.27658064  5.34492257  5.37992697  5.37992697
  5.35159008  5.29491628  5.21823996  5.12989551  5.03655043  4.94987286
  4.87319654  4.81652275]","[ -1.24777717  -1.28401999  -1.31553548  -1.32656591  -1.30608084
  -1.24777717  -1.1406245   -0.98304703  -0.77819632  -0.52764815
  -0.24085716   0.072722     0.40048313   0.72982004   1.05127807
   1.35382681   1.6280116    1.86752935   2.06922851   2.2252302
   2.3371102    2.39698964   2.40802006   2.36547415   2.27250344
   2.13068372   1.94474231   1.72255808   1.47043413   1.19940089
   0.91576145   0.62897046   0.34533102   0.0664189   -0.20303857
  -0.46304139  -0.71516533  -0.95941041  -1.19735238  -1.43056703
  -1.66063014  -1.88911746  -2.11760479  -2.34294057  -2.56985212
  -2.7951879   -3.02052368  -3.24585946  -3.47119523  -3.69653101
  -3.92029101  -4.14247524  -4.36465947  -4.58211638  -4.79484596
  -4.99812089  -5.1903654   -5.36370061  -5.51182343  -5.62685498
  -5.70249217  -5.72770456  -5.69461329  -5.60006681  -5.44091357
  -5.21715357  -4.93666568  -4.60890455  -4.24962792  -3.87459355
  -3.5042865   -3.1560403   -2.85191579  -2.60294339  -2.4217293
  -2.3161524   -2.28621268  -2.32718282  -2.4343355   -2.59506452
  -2.79676367  -3.02840255  -3.27579917  -3.5294989   -3.78004707
  -4.02114059  -4.24805215  -4.4560544   -4.64042004  -4.79957328
  -4.9287868   -5.02018173  -5.0721823   -5.08006117  -5.03751526
  -4.9476961   -4.8106037   -4.62938962  -4.41350849  -4.17083919
  -3.91083637  -3.647682    -3.39083072  -3.14816143  -2.93070452
  -2.74161156  -2.58718564  -2.46585099  -2.38075916  -2.33191015
  -2.31772817  -2.33978902  -2.39809268  -2.49579071  -2.63445888
  -2.8140972   -3.03628142  -3.29943579  -3.60356031  -3.94550341
  -4.31896201  -4.72236032  -5.14939526  -5.59533949  -6.05704147
  -6.53134964  -7.01196092  -7.50045107  -7.99051699  -8.48373446
  -8.97852771  -9.47332095  -9.96653842 -10.45818012 -10.9450945
 -11.42413    -11.89213507 -12.34595818 -12.77614466 -13.1779672 ]",6.773143953947536,0.4054468227261313,5.999245,-0.11864499999999989
036,2,2,csm,38a.png,1,0,120,89,120,1,1,350,neu_feedback_onset,1,"[-1.52453089e+00 -1.35015385e+00 -1.14407189e+00 -9.12626007e-01
 -6.65327662e-01 -4.13273580e-01 -1.62804744e-01  7.33968806e-02
  2.87405064e-01  4.71293576e-01  6.20306682e-01  7.24932904e-01
  7.85172245e-01  7.96268965e-01  7.58223066e-01  6.71034547e-01
  5.37873900e-01  3.63496862e-01  1.57414908e-01 -7.40309789e-02
 -3.14988341e-01 -5.54360456e-01 -7.76294868e-01 -9.68109610e-01
 -1.11712272e+00 -1.21223746e+00 -1.25028336e+00 -1.22491943e+00
 -1.14090140e+00 -1.00457026e+00 -8.25437488e-01 -6.20940780e-01
 -4.03762105e-01 -1.91339168e-01  2.06081954e-03  1.62170645e-01
  2.81064080e-01  3.57155879e-01  3.93616532e-01  3.95201778e-01
  3.76178828e-01  3.49229650e-01  3.34962438e-01  3.47644404e-01
  4.03128007e-01  5.12509967e-01  6.82131268e-01  9.15162401e-01
  1.20684763e+00  1.54926072e+00  1.92971971e+00  2.33395739e+00
  2.74612130e+00  3.14877373e+00  3.52923273e+00  3.87481631e+00
  4.18076875e+00  4.43916381e+00  4.65158675e+00  4.81486707e+00
  4.93534575e+00  5.01777853e+00  5.06533591e+00  5.08435886e+00
  5.07960312e+00  5.05740968e+00  5.02094902e+00  4.97339165e+00
  4.91949329e+00  4.86400969e+00  4.80694084e+00  4.75304248e+00
  4.70548511e+00  4.66743921e+00  4.64207528e+00  4.63097856e+00
  4.63731954e+00  4.66268347e+00  4.70707035e+00  4.77365068e+00
  4.86083920e+00  4.97022116e+00  5.09704082e+00  5.24446868e+00
  5.40457851e+00  5.57895554e+00  5.76284406e+00  5.95148831e+00
  6.14013256e+00  6.32719156e+00  6.50473909e+00  6.67118990e+00
  6.82020301e+00  6.94702267e+00  7.04847840e+00  7.11981446e+00
  7.15786036e+00  7.15786036e+00  7.12139971e+00  7.04530791e+00
  6.93275546e+00  6.78532760e+00  6.60936532e+00  6.41120959e+00
  6.20195714e+00  5.98953421e+00  5.78662274e+00  5.60114899e+00
  5.44420965e+00  5.32373097e+00  5.24129819e+00  5.20166704e+00
  5.20166704e+00  5.23654245e+00  5.29995228e+00  5.38238507e+00
  5.47432932e+00  5.56310309e+00  5.63760964e+00  5.68992275e+00
  5.71211619e+00  5.69626373e+00  5.63760964e+00  5.53615391e+00
  5.39031129e+00  5.20166704e+00  4.97656214e+00  4.71975232e+00
  4.43757857e+00  4.13796711e+00  3.83201467e+00  3.52923273e+00
  3.23913274e+00  2.97281145e+00  2.73819507e+00  2.54796557e+00
  2.41004919e+00  2.33078690e+00  2.31493444e+00  2.36407706e+00
  2.47821476e+00  2.65100655e+00  2.87928195e+00  3.14877373e+00
  3.45314093e+00  3.77653107e+00  4.10943269e+00  4.44074906e+00
  4.76096871e+00  5.06216541e+00  5.33958343e+00  5.58846702e+00
  5.81040143e+00  6.00063093e+00  6.16074075e+00  6.29073091e+00
  6.38743090e+00  6.44767024e+00  6.46827844e+00  6.44291451e+00
  6.36523746e+00  6.22732108e+00  6.02599486e+00  5.75333258e+00
  5.40933424e+00  4.99558509e+00  4.51684086e+00  3.98102778e+00
  3.40399831e+00  2.80001966e+00  2.18970002e+00  1.59047711e+00
  1.02454436e+00  5.09339476e-01  5.91296684e-02 -3.13403095e-01
 -6.00332585e-01 -7.96903064e-01 -9.01529287e-01 -9.18966990e-01
 -8.50801421e-01 -7.06544053e-01 -4.95706362e-01 -2.27799822e-01
  8.60788470e-02  4.34832923e-01  8.05780440e-01  1.18623943e+00
  1.56194269e+00  1.92179348e+00  2.25152461e+00  2.53845410e+00
  2.77307048e+00  2.94744752e+00  3.05048849e+00  3.08060816e+00
  3.03939177e+00  2.92683932e+00  2.75087704e+00  2.52577213e+00
  2.26420658e+00  1.98361807e+00  1.70302956e+00  1.44146401e+00
  1.21477386e+00  1.03881157e+00  9.24673875e-01  8.80286993e-01
  9.07236172e-01  1.00869190e+00  1.17989845e+00  1.41451483e+00
  1.70937055e+00  2.05336889e+00  2.44016886e+00  2.86184424e+00
  3.30888356e+00  3.77177533e+00  4.23783760e+00  4.70072937e+00
  5.14618344e+00  5.56468833e+00  5.94514732e+00  6.28121943e+00
  6.56339319e+00  6.78849809e+00  6.95653415e+00  7.06908660e+00
  7.13408168e+00  7.15944561e+00  7.15468987e+00  7.13566692e+00
  7.11030299e+00  7.09128004e+00  7.08493906e+00  7.09762102e+00
  7.12932594e+00  7.17846856e+00  7.24029314e+00  7.30370298e+00
  7.35918658e+00  7.39564723e+00  7.40040297e+00  7.36235707e+00
  7.27516855e+00  7.13249643e+00  6.93275546e+00  6.68228662e+00
  6.38584566e+00  6.05928502e+00  5.71845718e+00  5.37762933e+00
  5.05582443e+00  4.77365068e+00  4.54220479e+00  4.37416874e+00
  4.27588350e+00  4.24893432e+00  4.29173596e+00  4.39794742e+00]","[ 0.42752943  0.33560356  0.21402418  0.06723933 -0.09585496 -0.26191459
 -0.42056085 -0.5554843  -0.65482355 -0.70671719 -0.70078649 -0.6340661
 -0.50359067 -0.3152909  -0.07806286  0.19623208  0.48831911  0.78633685
  1.07249319  1.33937474  1.57512012  1.78269466  1.95913302  2.10888323
  2.2363933   2.3446286   2.43210644  2.49586148  2.52996301  2.52403231
  2.470656    2.36093803  2.18894769  1.95616767  1.66408063  1.32306531
  0.94498311  0.5431781   0.13544239 -0.26487994 -0.64889285 -1.0062176
 -1.33240617 -1.62745855 -1.89137476 -2.12563746 -2.333212   -2.51706374
 -2.6816407  -2.83139091 -2.97076238 -3.10272049 -3.23171324 -3.36218867
 -3.49711212 -3.6364836  -3.78178578 -3.93005331 -4.07980352 -4.2251057
 -4.3629945  -4.48457388 -4.58391312 -4.65656421 -4.69363109 -4.69363109
 -4.65063351 -4.56760369 -4.44305897 -4.28589538 -4.10056097 -3.89743445
 -3.68541188 -3.47487199 -3.27174547 -3.08344571 -2.91442072 -2.76763587
 -2.64457382 -2.54819992 -2.47703151 -2.43403392 -2.41772449 -2.43106857
 -2.4711008  -2.53930387 -2.63122974 -2.74391306 -2.87290581 -3.01524264
 -3.16499285 -3.31622573 -3.46301059 -3.60089939 -3.72396144 -3.82774871
 -3.90929586 -3.96563752 -3.99529102 -3.99973905 -3.97898159 -3.93598401
 -3.87371165 -3.79661253 -3.70765201 -3.61276079 -3.51193887 -3.41111695
 -3.31177771 -3.21392114 -3.11902992 -3.0300694  -2.94852225 -2.87438849
 -2.81063345 -2.76022249 -2.72315561 -2.6994328  -2.68905408 -2.6875714
 -2.69201943 -2.69795013 -2.70091548 -2.69646745 -2.6816407  -2.65643522
 -2.62085101 -2.5793361  -2.53782119 -2.49927164 -2.47258348 -2.46368743
 -2.47999686 -2.52447712 -2.60157623 -2.71277688 -2.85807906 -3.03451742
 -3.23912662 -3.46745861]",6.380672749950108,0.5529637567433978,6.308169999999999,0.31069500000000083
036,2,2,csm,4a.png,1,0,56,61,62,1,1,610,neu_feedback_onset,2,"[ 5.40394690e-01  4.35463683e-01  3.24536617e-01  2.10611523e-01
  9.96844575e-02 -7.49507199e-04 -8.61933279e-02 -1.53648976e-01
 -1.98619408e-01 -2.21104624e-01 -2.24102653e-01 -2.07613494e-01
 -1.79132221e-01 -1.43155875e-01 -1.02682486e-01 -6.52071263e-02
 -3.37278240e-02 -9.74359359e-03  5.24655039e-03  9.74359359e-03
  5.24655039e-03 -6.74556479e-03 -2.77317664e-02 -5.77120543e-02
 -9.66864287e-02 -1.47652918e-01 -2.12110537e-01 -2.93057315e-01
 -3.90493251e-01 -5.05917359e-01 -6.34832598e-01 -7.77238965e-01
 -9.28639420e-01 -1.08003987e+00 -1.22994131e+00 -1.37234768e+00
 -1.50126292e+00 -1.61818604e+00 -1.72161804e+00 -1.81305791e+00
 -1.89850174e+00 -1.98394556e+00 -2.07388642e+00 -2.17881743e+00
 -2.30173661e+00 -2.45313706e+00 -2.63301879e+00 -2.84437982e+00
 -3.09021818e+00 -3.36603683e+00 -3.66883774e+00 -3.99562288e+00
 -4.33739816e+00 -4.68966654e+00 -5.04343394e+00 -5.38970627e+00
 -5.71948944e+00 -6.02079133e+00 -6.28761589e+00 -6.50647199e+00
 -6.67286259e+00 -6.77779360e+00 -6.82276403e+00 -6.80477586e+00
 -6.72982514e+00 -6.60690596e+00 -6.44201438e+00 -6.24714250e+00
 -6.03128443e+00 -5.80043621e+00 -5.55909490e+00 -5.31175752e+00
 -5.05842409e+00 -4.80059361e+00 -4.53976510e+00 -4.27743758e+00
 -4.01960711e+00 -3.77226973e+00 -3.54441954e+00 -3.34205260e+00
 -3.17266397e+00 -3.04075071e+00 -2.94931083e+00 -2.89384730e+00
 -2.87136208e+00 -2.87436011e+00 -2.89534631e+00 -2.92382758e+00
 -2.95230886e+00 -2.97329506e+00 -2.98228914e+00 -2.97779210e+00
 -2.95980393e+00 -2.92982364e+00 -2.89084927e+00 -2.84887686e+00
 -2.80540545e+00 -2.76643107e+00 -2.73195374e+00 -2.70796951e+00
 -2.68998134e+00 -2.68248627e+00 -2.68098725e+00 -2.68698331e+00
 -2.69897542e+00 -2.71246655e+00 -2.72895571e+00 -2.74694388e+00
 -2.76343304e+00 -2.77992220e+00 -2.79341333e+00 -2.80690446e+00
 -2.81739756e+00 -2.82489263e+00 -2.83088869e+00 -2.83388672e+00
 -2.83538573e+00 -2.83688475e+00 -2.83538573e+00 -2.83388672e+00
 -2.83388672e+00 -2.83388672e+00 -2.83688475e+00 -2.84288081e+00
 -2.85337391e+00 -2.87136208e+00 -2.89684532e+00 -2.92832463e+00
 -2.96879802e+00 -3.01676648e+00 -3.06923198e+00 -3.12769354e+00
 -3.18915313e+00 -3.25211174e+00 -3.31507034e+00 -3.37652993e+00
 -3.43499149e+00 -3.49195404e+00 -3.54591856e+00 -3.59688505e+00
 -3.64485351e+00 -3.69132296e+00 -3.73479437e+00 -3.77376875e+00
 -3.80824608e+00 -3.83522834e+00 -3.85471552e+00 -3.86370961e+00
 -3.86221060e+00 -3.84722045e+00 -3.82173721e+00 -3.78576086e+00
 -3.74079043e+00 -3.68982394e+00 -3.63735844e+00 -3.58489293e+00
 -3.53692447e+00 -3.49345305e+00 -3.45897572e+00 -3.43349248e+00
 -3.41700332e+00 -3.40950825e+00 -3.40800923e+00 -3.41250628e+00
 -3.42150036e+00 -3.43049445e+00 -3.43649051e+00 -3.43798952e+00
 -3.43049445e+00 -3.41250628e+00 -3.37952796e+00 -3.33006049e+00
 -3.26260484e+00 -3.17716102e+00 -3.07372902e+00 -2.95380787e+00
 -2.82039559e+00 -2.67649021e+00 -2.52808778e+00 -2.37968536e+00
 -2.23577997e+00 -2.10386671e+00 -1.98694358e+00 -1.89100666e+00
 -1.81755496e+00 -1.76958650e+00 -1.74710128e+00 -1.74710128e+00
 -1.76958650e+00 -1.80556284e+00 -1.85353130e+00 -1.90599681e+00
 -1.95546428e+00 -2.00043471e+00 -2.03341303e+00 -2.05739726e+00
 -2.07088839e+00 -2.08138149e+00 -2.09487262e+00 -2.12185488e+00
 -2.17432038e+00 -2.26576026e+00 -2.40666762e+00 -2.60603653e+00
 -2.87136208e+00 -3.20114525e+00 -3.58938998e+00 -4.02860119e+00
 -4.50528777e+00 -5.00445957e+00 -5.50962742e+00 -6.00730020e+00
 -6.48548579e+00 -6.93668913e+00 -7.35491414e+00 -7.73566380e+00
 -8.07743908e+00 -8.38023999e+00 -8.64256751e+00 -8.86292263e+00
 -9.03980633e+00 -9.17471762e+00 -9.26615750e+00 -9.31862301e+00
 -9.33511216e+00 -9.32312005e+00 -9.28564469e+00 -9.23168017e+00
 -9.16572354e+00 -9.08927380e+00 -9.00382998e+00 -8.90789306e+00
 -8.79696599e+00 -8.66505273e+00 -8.50765622e+00 -8.32177843e+00
 -8.10741937e+00 -7.86757707e+00 -7.60974659e+00 -7.34142301e+00
 -7.07309944e+00 -6.81826699e+00 -6.58591976e+00 -6.38505183e+00
 -6.22465729e+00 -6.10773416e+00 -6.03428246e+00 -6.00280316e+00
 -6.00730020e+00 -6.04177753e+00 -6.09724106e+00 -6.16619573e+00
 -6.24114645e+00 -6.31459815e+00 -6.38205380e+00 -6.44201438e+00
 -6.49298087e+00 -6.53495327e+00 -6.56943060e+00 -6.59941089e+00]","[-1.80728989 -1.61909642 -1.40718108 -1.17628826 -0.93432522 -0.6844549
 -0.43458458 -0.19104009  0.03827128  0.2470237   0.43205425  0.58861857
  0.71355373  0.80844119  0.8716995   0.90649157  0.92072469  0.91756177
  0.90807303  0.90174719  0.90649157  0.93495781  0.99347174  1.08835921
  1.22278311  1.39674346  1.60707734  1.84587746  2.10207361  2.36459559
  2.61921028  2.85484748  3.05885553  3.22174568  3.33244772  3.38621728
  3.37989145  3.31188877  3.18062778  2.98927139  2.74414544  2.44999431
  2.11156235  1.73833833  1.33664807  0.91439886  0.47949798  0.03827128
 -0.40295543 -0.8378563  -1.26168697 -1.66337723 -2.0350198  -2.36396301
 -2.63281082 -2.82891158 -2.93328779 -2.93012487 -2.80677117 -2.55531939
 -2.17893245 -1.68393619 -1.08930808 -0.42193292  0.2881416   1.0061234
  1.69563897  2.32822206  2.87856935  3.32612189  3.66455384  3.88912084
  4.00773017  4.02987057  3.96977518  3.84484002  3.67562404  3.47794183
  3.26602649  3.05569262  2.85484748  2.67139839  2.50692678  2.36301413
  2.23649751  2.12421402  2.01983781  1.92020597  1.81582976  1.70354626
  1.57544819  1.42679116  1.25599372  1.06147442  0.83848889  0.59178148
  0.32293367  0.0335269  -0.27011298 -0.58324161 -0.8979517  -1.20475449
 -1.49574272 -1.76142761 -1.99073898 -2.17260662 -2.29596032 -2.35605572
 -2.34656697 -2.26907554 -2.12990726 -1.93696942 -1.70923951 -1.46095065
 -1.2158247  -0.98967624 -0.79831986 -0.65440721 -0.56268266 -0.52630913
 -0.54054225 -0.59905619 -0.69394365 -0.81729735 -0.95804709 -1.10986703
 -1.2680128  -1.42615858 -1.57955998 -1.72663554 -1.86105945 -1.98125024
 -2.07771916 -2.14888476 -2.18683974 -2.18683974 -2.14888476 -2.06823041
 -1.94803963 -1.79305677]",1.1321586029788832e-14,1.2613311445958497,6.671049999999999,-0.2102750000000002
036,2,2,csp,12b.png,1,1,156,147,159,1,1,451,pos_feedback_onset,3,"[ -0.18524538  -0.18997908  -0.21680337  -0.25625085  -0.30200993
  -0.34461321  -0.3761712   -0.38879439  -0.3761712   -0.33514581
  -0.26571824  -0.16788849  -0.04639024   0.0893091    0.23447584
   0.37964257   0.51849771   0.64315176   0.75044891   0.83565548
   0.90034935   0.94295263   0.96977692   0.98240011   0.98555591
   0.98713381   0.99028961   1.0013349    1.02184759   1.05498348
   1.09758676   1.15123534   1.21277341   1.27746728   1.34373905
   1.41001082   1.4731268    1.53466487   1.59620294   1.65931892
   1.72716859   1.80290775   1.88653642   1.98121038   2.08535173
   2.19896048   2.31572503   2.43564538   2.55398782   2.66601868
   2.76700423   2.85536659   2.92794996   2.97844274   3.00368913
   3.00053333   2.96266375   2.88534668   2.76384843   2.59343531
   2.36937361   2.09481913   1.76977187   1.39896553   0.99028961
   0.5563673    0.10666599  -0.34619111  -0.78800292  -1.20930203
  -1.60219896  -1.95722631  -2.27438407  -2.55209435  -2.79193504
  -2.99863985  -3.18009827  -3.341044    -3.49094444  -3.63453327
  -3.77812211  -3.92802255  -4.08581248  -4.2562256   -4.43768402
  -4.63176564  -4.83373675  -5.04359736  -5.25503587  -5.46489647
  -5.66844549  -5.8625271   -6.04240762  -6.20493125  -6.34852009
  -6.47159623  -6.57415969  -6.66094415  -6.73037172  -6.7871761
  -6.83609098  -6.88027216  -6.92287544  -6.97021242  -7.02543889
  -7.09171066  -7.17218353  -7.27001329  -7.38835573  -7.52721087
  -7.6913124   -7.87750452  -8.08736513  -8.31931633  -8.57020232
  -8.8352894   -9.11142178  -9.39228786  -9.67157604  -9.94297472
 -10.20017231 -10.4368572  -10.64987361 -10.83448783 -10.98754406
 -11.10904231 -11.19740467 -11.25736485 -11.28892283 -11.29523443
 -11.28261123 -11.25263115 -11.20844997 -11.15637929 -11.09641912
 -11.03172524 -10.96229767 -10.8912922  -10.81870884 -10.74454757
 -10.6688084  -10.58833554 -10.50470687 -10.41318871 -10.31220316
 -10.19701651 -10.06447297  -9.90668303  -9.72206882  -9.50589661
  -9.25343272  -8.96467715  -8.64278569  -8.29091414  -7.916952
  -7.52721087  -7.13273605  -6.74299492  -6.36429908  -6.00769384
  -5.67633498  -5.37495621  -5.10513543  -4.86687264  -4.66332362
  -4.4929105   -4.35721116  -4.2562256   -4.18995383  -4.15997374
  -4.16470744  -4.20415492  -4.27200459  -4.36825645  -4.4834431
  -4.61283085  -4.75168599  -4.89211902  -5.02939626  -5.15878401
  -5.27712646  -5.38126781  -5.46805227  -5.53747984  -5.58481682
  -5.60848531  -5.60375161  -5.56745993  -5.49803236  -5.39389101
  -5.25188007  -5.07988904  -4.87949583  -4.65858993  -4.42979453
  -4.20415492  -3.99429432  -3.8081022   -3.65820176  -3.54932671
  -3.48463284  -3.46254225  -3.47989914  -3.53039192  -3.60613109
  -3.69607135  -3.7923232   -3.88699716  -3.96904793  -4.0353197
  -4.07792298  -4.09370197  -4.08265668  -4.0416313   -3.97378163
  -3.87910767  -3.76392102  -3.63137747  -3.48778864  -3.341044
  -3.19903306  -3.06806742  -2.95603657  -2.86925211  -2.81402563
  -2.79509084  -2.81244773  -2.86767421  -2.95761447  -3.07911272
  -3.22901315  -3.40100418  -3.59035209  -3.7923232   -4.00376171
  -4.22308972  -4.45030722  -4.68383632  -4.92998861  -5.1856083
  -5.45385118  -5.73629516  -6.03136233  -6.33431899  -6.64200936
  -6.94969973  -7.2479227   -7.53036667  -7.78914216  -8.02109336
  -8.21675287  -8.3761207   -8.49446315  -8.57335812  -8.6112277
  -8.6112277   -8.57493602  -8.50708635  -8.41241239  -8.29564784]","[-0.85654029 -0.81799906 -0.77483289 -0.72395846 -0.66229249 -0.58521003
 -0.49425273 -0.38633729 -0.2614637  -0.12271528  0.02836635  0.18407291
  0.33977948  0.48777781  0.62035964  0.72981673  0.80844084  0.84852372
  0.84389877  0.79456599  0.69590045  0.55561037  0.37523741  0.16557312
 -0.05950766 -0.28767174 -0.50658593 -0.70391702 -0.86887349 -0.99683037
 -1.08470437 -1.13095385 -1.14020374 -1.11707901 -1.06312128 -0.98758047
 -0.89353987 -0.78562443 -0.67308404 -0.5620853  -0.4587948  -0.37246245
 -0.31079648 -0.28304679 -0.29537999 -0.34779606 -0.44491996 -0.58058509
 -0.75170815 -0.95058089 -1.16487013 -1.38840926 -1.61040675 -1.82161269
 -2.01277719 -2.17773365 -2.31185713 -2.41206433 -2.4768136  -2.51072988
 -2.51997977 -2.51535483 -2.50764658 -2.51227153 -2.54002121 -2.60477048
 -2.71114427 -2.86839249 -3.07189019 -3.323179   -3.6145507  -3.93675538
 -4.28362645 -4.64283071 -5.00357663 -5.35815594 -5.69115217 -5.99485706
 -6.25231247 -6.45581017 -6.58993365 -6.65005797 -6.62693323 -6.52210108
 -6.33710318 -6.07964776 -5.76360968 -5.40286377 -5.01436817 -4.61508103
 -4.22041884 -3.84271478 -3.49276042 -3.17672233 -2.89922548 -2.66026985
 -2.4613971  -2.29952394 -2.17002541 -2.06827656 -1.99273575 -1.93723638
 -1.90177845 -1.88327866 -1.88482031 -1.9033201  -1.94340297 -2.00506894
 -2.08677635 -2.1854419  -2.29644064 -2.41052268 -2.52152142 -2.61402037
 -2.68031129 -2.70806098 -2.69110283 -2.62018697 -2.49839668 -2.32419033
 -2.10681779 -1.85552897 -1.57957376 -1.29282701 -1.00916356 -0.73629166
 -0.48346119 -0.25529711 -0.05179941  0.12857354  0.28890506  0.43382008
  0.56640191  0.69281715  0.81152414  0.92560618  1.02889667  1.11677068
  1.18768654  1.23393602]",1.4491427273043032,-0.15619108697720238,6.337539999999999,0.05861500000000053
036,2,2,csm,23a.png,1,1,328,21,326,1,0,341,neu_feedback_onset,4,"[ 1.20039047  1.09697607  0.99512856  0.89328104  0.7945673   0.69898732
  0.60184046  0.49999295  0.3918779   0.26966088  0.12864124 -0.03431478
 -0.21920719 -0.42603599 -0.64696675 -0.87259816 -1.09039515 -1.28625576
 -1.44451112 -1.55105929 -1.59336518 -1.56672814 -1.4680144  -1.3019246
 -1.07629319 -0.80052146 -0.49184515 -0.16279933  0.1740809   0.5046936
  0.82120434  1.12047934  1.39781796  1.65792084  1.90078799  2.12798629
  2.34421639  2.54947831  2.74220514  2.92083001  3.07908538  3.21383747
  3.32038564  3.40029677  3.4488702   3.47237347  3.47237347  3.45983839
  3.43946889  3.41909939  3.40499742  3.39872988  3.40186365  3.40813119
  3.40813119  3.39089546  3.34075514  3.24517517  3.08848669  2.8597215
  2.55574585  2.17655972  1.72999754  1.23016128  0.69428667  0.14901075
 -0.38373009 -0.87573193 -1.30505837 -1.65290681 -1.90674215 -2.06186375
 -2.12140537 -2.09320144 -1.99292081 -1.83779922 -1.64977304 -1.44921178
 -1.25335117 -1.07786007 -0.93370667 -0.82245785 -0.74411361 -0.69554018
 -0.66576936 -0.64539986 -0.62346347 -0.59055889 -0.53885169 -0.46364122
 -0.36492748 -0.24271046 -0.10169083  0.05186389  0.21011926  0.36837462
  0.52192934  0.66451586  0.79613418  0.91521743  1.02333248  1.12204623
  1.20979178  1.29126979  1.36334649  1.42602188  1.47772908  1.51533432
  1.53257005  1.5278694   1.4965317   1.43542319  1.34454387  1.22232686
  1.07190591  0.89328104  0.69585355  0.48119033  0.25869269  0.03306127
 -0.18630261 -0.3931314  -0.58272447 -0.75038114 -0.89296766 -1.00735026
 -1.09196204 -1.14993678 -1.17970759 -1.18597513 -1.17187316 -1.14210235
 -1.09979646 -1.05122303 -1.00108272 -0.95407617 -0.91177028 -0.87729882
 -0.85066177 -0.83342604 -0.82402473 -0.81932408 -0.81932408 -0.82089096
 -0.82245785 -0.82402473 -0.82559162 -0.82402473 -0.82245785 -0.81775719
 -0.81148965 -0.80208834 -0.78955327 -0.77388442 -0.75351491 -0.73314541
 -0.71277591 -0.69554018 -0.68613887 -0.68613887 -0.69710706 -0.7237441
 -0.76291622 -0.81305654 -0.86946439 -0.92430536 -0.97131191 -1.0026496
 -1.00891714 -0.98541387 -0.92587225 -0.83185916 -0.70494148 -0.548253
 -0.36962813 -0.18003507  0.009558    0.18818287  0.34487135  0.47022214
  0.55483392  0.59713981  0.59243915  0.54229884  0.44985263  0.32293496
  0.16781337 -0.00924462 -0.20040457 -0.39626517 -0.59212578 -0.78485261
 -0.96974502 -1.14836989 -1.31759345 -1.47898259 -1.6325373  -1.77982448
 -1.92084411 -2.05402932 -2.17938011 -2.29689647 -2.40187775 -2.49589084
 -2.58050263 -2.65257933 -2.71368784 -2.7685288  -2.81553535 -2.85784124
 -2.89701336 -2.9346186  -2.97065695 -3.00199464 -3.02863169 -3.04900119
 -3.0584025  -3.05683561 -3.04116677 -3.00982907 -2.96125564 -2.89858025
 -2.81866912 -2.72622291 -2.6243754  -2.51469346 -2.40501152 -2.29846336
 -2.20288338 -2.12453914 -2.07126506 -2.04776178 -2.06029686 -2.11357095
 -2.21071781 -2.35330433 -2.53662985 -2.75756061 -3.01139595 -3.28873457
 -3.57860826 -3.87161572 -4.15522188 -4.41845853 -4.65192437 -4.84308432
 -4.99037149 -5.08595147 -5.12825736 -5.12198982 -5.06871573 -4.97470264
 -4.84935186 -4.70206468 -4.54224243 -4.37928641 -4.22103104 -4.07687764
 -3.95309374 -3.85281311]","[ 3.04509932e+00  2.67097707e+00  2.26487855e+00  1.83639666e+00
  1.39832189e+00  9.66642365e-01  5.50950974e-01  1.64038218e-01
 -1.86101838e-01 -4.93073942e-01 -7.53680468e-01 -9.66322602e-01
 -1.13259916e+00 -1.25570776e+00 -1.33724723e+00 -1.38361281e+00
 -1.39640331e+00 -1.38041518e+00 -1.33884604e+00 -1.27329471e+00
 -1.18855761e+00 -1.08783239e+00 -9.69520228e-01 -8.40016372e-01
 -7.02518450e-01 -5.57026464e-01 -4.09935664e-01 -2.62844864e-01
 -1.22149316e-01  7.35453999e-03  1.20870266e-01  2.16799048e-01
  2.90344448e-01  3.36710026e-01  3.55895783e-01  3.49500531e-01
  3.15925457e-01  2.58368187e-01  1.78427535e-01  8.24987529e-02
 -2.94181600e-02 -1.52526764e-01 -2.83629434e-01 -4.21127355e-01
 -5.61822903e-01 -7.05716076e-01 -8.51208063e-01 -9.96700050e-01
 -1.14379085e+00 -1.28928284e+00 -1.43317601e+00 -1.57547037e+00
 -1.71296829e+00 -1.84407096e+00 -1.96398194e+00 -2.06790479e+00
 -2.15104307e+00 -2.20380390e+00 -2.21979203e+00 -2.18941458e+00
 -2.10787511e+00 -1.96877838e+00 -1.77212437e+00 -1.52270954e+00
 -1.22692913e+00 -9.02370080e-01 -5.63421716e-01 -2.34066229e-01
  6.65106225e-02  3.15925457e-01  4.96591331e-01  5.94118926e-01
  5.98915365e-01  5.07783022e-01  3.19123083e-01  3.93308008e-02
 -3.28396199e-01 -7.74465037e-01 -1.28928284e+00 -1.86165791e+00
 -2.48359618e+00 -3.14550478e+00 -3.83619201e+00 -4.54446619e+00
 -5.26073443e+00 -5.96900861e+00 -6.65809703e+00 -7.31680800e+00
 -7.92915340e+00 -8.48713915e+00 -8.97957356e+00 -9.40006139e+00
 -9.74380620e+00 -1.00108080e+01 -1.01978691e+01 -1.03113848e+01
 -1.03545528e+01 -1.03321694e+01 -1.02538276e+01 -1.01259225e+01
 -9.95804715e+00 -9.76139314e+00 -9.54235576e+00 -9.31212668e+00
 -9.07869997e+00 -8.85166852e+00 -8.63422995e+00 -8.43597713e+00
 -8.25850888e+00 -8.10662164e+00 -7.97871660e+00 -7.87799138e+00
 -7.79964954e+00 -7.74369108e+00 -7.70372076e+00 -7.67494212e+00
 -7.65095993e+00 -7.62058248e+00 -7.57741453e+00 -7.51026438e+00
 -7.41113797e+00 -7.27364005e+00 -7.08977655e+00 -6.85794866e+00
 -6.57975519e+00 -6.25839377e+00 -5.90025965e+00 -5.51654452e+00
 -5.11524244e+00 -4.71074274e+00 -4.31103948e+00 -3.92892317e+00
 -3.57078905e+00 -3.24303237e+00 -2.94725196e+00 -2.68344781e+00
 -2.45002110e+00 -2.24217541e+00 -2.05351547e+00 -1.87764604e+00]",2.346645064547823,-2.120525977034049e-15,6.38209,0.6296949999999999
036,2,2,csp,15b.png,1,1,4,98,5,1,1,386,pos_feedback_onset,5,"[-4.22240369e-01 -2.00467149e-01 -4.03944078e-03  1.60706379e-01
  2.89018028e-01  3.76143221e-01  4.23666054e-01  4.28418337e-01
  3.96736449e-01  3.31788577e-01  2.39911101e-01  1.30608585e-01
  1.33855979e-02 -1.02253295e-01 -2.08387622e-01 -2.98681004e-01
 -3.63628875e-01 -4.00063047e-01 -4.06399425e-01 -3.84222103e-01
 -3.35115176e-01 -2.63830926e-01 -1.76705733e-01 -7.69077843e-02
  2.76424477e-02  1.32192680e-01  2.35158817e-01  3.31788577e-01
  4.22081959e-01  5.06038964e-01  5.85243685e-01  6.62864312e-01
  7.37316750e-01  8.11769188e-01  8.87805720e-01  9.60674064e-01
  1.03195831e+00  1.09690618e+00  1.15234949e+00  1.19670413e+00
  1.22838602e+00  1.24739515e+00  1.25056334e+00  1.24105878e+00
  1.21888146e+00  1.18403138e+00  1.13492445e+00  1.06997658e+00
