sub,run,cat_cond,trial_type,picture,old,response_old,target_pos,response_pos,dot_resp_loc,cat_corr,TN_corr,TN_rt,feedback_type,trial,SP_timeseries,FB_timeseries,SP_peak_response,FB_peak_response,preStim_bl,anticipation
010,1,1,csp,23a.png,1,1,112,126,113,1,1,278,pos_feedback_onset,1,"[-1.94629916 -1.74828561 -1.54809608 -1.34573058 -1.1411891  -0.93664763
 -0.72993018 -0.52538871 -0.31867126 -0.11412979  0.09258766  0.2993051
  0.5103745   0.72144389  0.93251328  1.14575865  1.35682804  1.56572146
  1.76808696  1.96174857  2.14670628  2.31860816  2.47527823  2.61889245
  2.74945084  2.86477741  2.96922412  3.06496694  3.14982989  3.2303409
  3.30649996  3.37830707  3.45011418  3.51756935  3.58502452  3.64812774
  3.70687901  3.75692639  3.80044586  3.83090948  3.85266921  3.86354908
  3.86354908  3.8613731   3.85702116  3.85919713  3.870077    3.8940127
  3.93753216  4.00063538  4.08549834  4.18776907  4.30527162  4.43583001
  4.57726826  4.72088249  4.86449671  5.00811094  5.14302127  5.27357966
  5.39325818  5.50423281  5.60650355  5.70007039  5.78493334  5.86326838
  5.92854757  5.98512287  6.02864233  6.05475401  6.06563388  6.0634579
  6.05040207  6.03517025  6.03081831  6.05040207  6.11132931  6.22883186
  6.41596555  6.67490635  7.00130232  7.38427359  7.79553251  8.20679143
  8.58105881  8.87916712  9.06630081  9.11852417  9.01625343  8.76166458
  8.36346149  7.84340392  7.23413144  6.57481159  5.90243589  5.2539959
  4.66213121  4.14860156  3.72863874  3.40659472  3.18246949  3.0519111
  2.99968775  3.01927151  3.09978251  3.23251687  3.40659472  3.61766411
  3.85919713  4.12248988  4.40319041  4.69041886  4.97547134  5.24529201
  5.49552892  5.71095026  5.88720408  6.01993844  6.10915334  6.15484878
  6.16355267  6.14832086  6.12003321  6.08956958  6.07651374  6.09174555
  6.14832086  6.25494354  6.41378958  6.622683    6.87944783  7.16885225
  7.47566446  7.78247667  8.0718811   8.32211801  8.52013156  8.65504189
  8.72249706  8.72467303  8.66374579  8.55277116  8.40915693  8.24595895
  8.08058499  7.92391492  7.79118056  7.68673385  7.61710271  7.5779352
  7.57140728  7.59316701  7.63886244  7.70631761  7.78900459  7.88909935
  8.00224996  8.12410445  8.25248687  8.38304525  8.50925169  8.62457827
  8.72249706  8.7921282   8.83129572  8.83129572  8.78777625  8.7029133
  8.57235491  8.40698096  8.20461546  7.97831425  7.73025332  7.47131251
  7.20366782  6.93602313  6.66837843  6.40508568  6.14396891  5.88720408
  5.63043925  5.37802637  5.12996543  4.88408047  4.64472343  4.40971833
  4.18341713  3.96581981  3.75910237  3.56108881  3.37177915  3.19334936
  3.02362345  2.86042547  2.70593138  2.56014118  2.42523084  2.2990244
  2.1858738   2.08577904  2.00309206  1.93781286  1.88994146  1.86382978
  1.85947783  1.87253367  1.90734924  1.96174857  2.03137971  2.11406669
  2.2098095   2.31208024  2.4208789   2.53185353  2.64065218  2.74509889
  2.84736963  2.94093647  3.03015137  3.11283835  3.18899741  3.2629805
  3.33478761  3.40224278  3.46969794  3.53280116  3.59155244  3.64595177
  3.69382317  3.73299069  3.76345431  3.78739002  3.8047978   3.81567767
  3.82655753  3.83526143  3.84614129  3.85702116  3.86572505  3.870077
  3.86790102  3.85049324  3.82002961  3.76998223  3.70687901  3.62854398
  3.545857    3.465346    3.4000668   3.35872331  3.35219539  3.38918694
  3.46969794  3.59155244  3.75039848  3.93318022  4.12684183  4.31179954
  4.47934947  4.6142598 ]","[ 5.87541510e+00  4.97707134e+00  4.07492909e+00  3.18038382e+00
  2.31242801e+00  1.48055788e+00  6.99967428e-01 -1.60486359e-02
 -6.56094826e-01 -1.20687641e+00 -1.66079641e+00 -2.01025783e+00
 -2.25146218e+00 -2.38820796e+00 -2.42429365e+00 -2.37111473e+00
 -2.24006670e+00 -2.04634352e+00 -1.80323993e+00 -1.52594988e+00
 -1.22776813e+00 -9.18190891e-01 -6.04815161e-01 -3.00935664e-01
 -8.45164850e-03  2.65039898e-01  5.13841236e-01  7.32254624e-01
  9.14582322e-01  1.05512659e+00  1.14818969e+00  1.18997312e+00
  1.17857764e+00  1.11210400e+00  9.96249937e-01  8.29116214e-01
  6.20199060e-01  3.71397722e-01  9.03091879e-02 -2.17368802e-01
 -5.51636249e-01 -9.10593904e-01 -1.29234252e+00 -1.69688210e+00
 -2.12801114e+00 -2.58383038e+00 -3.06244059e+00 -3.56004326e+00
 -4.06904142e+00 -4.58183807e+00 -5.08893698e+00 -5.57704342e+00
 -6.03476192e+00 -6.45639472e+00 -6.83244559e+00 -7.15721681e+00
 -7.43260760e+00 -7.65861798e+00 -7.83904643e+00 -7.97959069e+00
 -8.08404927e+00 -8.16191839e+00 -8.21509730e+00 -8.24928375e+00
 -8.27017546e+00 -8.27967170e+00 -8.27967170e+00 -8.27397396e+00
 -8.26067923e+00 -8.24548525e+00 -8.22839203e+00 -8.20939956e+00
 -8.19040709e+00 -8.17521312e+00 -8.16001914e+00 -8.14862366e+00
 -8.13912743e+00 -8.13153044e+00 -8.12393345e+00 -8.11823571e+00
 -8.11063873e+00 -8.09924325e+00 -8.08784776e+00 -8.07265379e+00
 -8.05176207e+00 -8.02897111e+00 -8.00428090e+00 -7.97389295e+00
 -7.94350500e+00 -7.90931856e+00 -7.87133362e+00 -7.83334869e+00
 -7.79156525e+00 -7.74788258e+00 -7.70230065e+00 -7.65292023e+00
 -7.60164057e+00 -7.54846166e+00 -7.49528275e+00 -7.44590233e+00
 -7.40221965e+00 -7.36803321e+00 -7.34904074e+00 -7.34904074e+00
 -7.37373095e+00 -7.42311137e+00 -7.50477898e+00 -7.61683454e+00
 -7.76497580e+00 -7.94920274e+00 -8.16571688e+00 -8.41641747e+00
 -8.69370751e+00 -8.99758701e+00 -9.31855973e+00 -9.65472642e+00
 -9.99469161e+00 -1.03346568e+01 -1.06689242e+01 -1.09936955e+01
 -1.13013734e+01 -1.15919582e+01 -1.18635505e+01 -1.21161503e+01
 -1.23478585e+01 -1.25605741e+01 -1.27580958e+01 -1.29385242e+01
 -1.31056580e+01 -1.32613962e+01 -1.34095374e+01 -1.35519810e+01
 -1.36906260e+01 -1.38254725e+01 -1.39584198e+01 -1.40913671e+01
 -1.42243143e+01 -1.43572616e+01 -1.44883097e+01 -1.46193577e+01]",6.067918649068824,-3.4305891460917336e-15,4.595645000000001,0.3653050000000002
010,1,1,csp,40a.png,1,1,104,136,104,1,1,257,pos_feedback_onset,2,"[ 0.94532051  0.79251338  0.64665202  0.50773644  0.37576664  0.25537314
  0.14655594  0.04699977 -0.03866484 -0.1150684  -0.17989567 -0.23546191
 -0.28408236 -0.32575703 -0.36048593 -0.39289956 -0.41836742 -0.44152001
 -0.45772683 -0.46698787 -0.46930313 -0.46004209 -0.43920475 -0.39984534
 -0.34196385 -0.26556028 -0.16600412 -0.04561062  0.09562022  0.25537314
  0.43364813  0.62581468  0.83418805  1.05182246  1.28103316  1.51718965
  1.75797665  2.00107891  2.24186591  2.48033766  2.7072331   2.92486751
  3.12861036  3.31614639  3.4874756   3.64491326  3.78845936  3.92505968
  4.05471422  4.1820535   4.3140233   4.44830836  4.58953919  4.74003107
  4.89746873  5.06185216  5.23549663  5.41840215  5.60825344  5.80736577
  6.01573914  6.2356888   6.46489951  6.70800177  6.96036507  7.21967415
  7.48361375  7.74523809  7.99760139  8.23607313  8.4560228   8.64818935
  8.81488805  8.95148836  9.06030557  9.14365492  9.20153641  9.24321108
  9.26867894  9.28488575  9.29414679  9.29877731  9.30572309  9.31729939
  9.33582147  9.37055036  9.42611659  9.50483542  9.61596788  9.75951398
  9.94241949 10.16236916 10.41473246 10.69256362 10.98660159 11.27832431
 11.55847072 11.80388825 12.00531584 12.14886193 12.2252655  12.22989602
 12.16275349 12.02615317 11.83167136 11.59088436 11.3130532  11.01206945
 10.6995094  10.38463408 10.07901981  9.78498184  9.50715068  9.24552634
  9.00473934  8.78015915  8.57410104  8.38424975  8.21292054  8.05548288
  7.9165673   7.7961738   7.69198712  7.60400725  7.53686472  7.48824427
  7.46046115  7.45120011  7.46046115  7.49055953  7.53686472  7.60169199
  7.67809556  7.76607543  7.86331633  7.96518776  8.0716897   8.17819164
  8.28469359  8.38656501  8.48612118  8.58104682  8.67134195  8.76163707
  8.84730168  8.93528155  9.02326141  9.11355654  9.20385167  9.29646205
  9.38907244  9.48168282  9.56966269  9.65301204  9.72710035  9.79424288
  9.84980911  9.89379904  9.92389742  9.94241949  9.94473475  9.93315845
  9.90306008  9.85443963  9.78498184  9.69468671  9.58123899  9.44463867
  9.28257049  9.09966498  8.90055265  8.68291825  8.4560228   8.22218158
  7.98602509  7.75218387  7.52528842  7.30765402  7.10159591  6.90942936
  6.72883911  6.55982515  6.40470276  6.2588414   6.12224108  5.9949018
  5.87219304  5.75643005  5.64298233  5.53416513  5.42766319  5.3234765
  5.22160508  5.12204891  5.02480801  4.93219762  4.8419025   4.75855315
  4.67983432  4.61037653  4.55017978  4.49924407  4.45988465  4.43673206
  4.42747102  4.43210154  4.45293887  4.48998303  4.54091874  4.60574601
  4.68214958  4.77012945  4.86737035  4.97387229  5.08732002  5.20076774
  5.31421546  5.42071741  5.51795831  5.5989924   5.66150441  5.69854856
  5.71244012  5.70317908  5.67539597  5.63835181  5.59667714  5.56194824
  5.54574143  5.55963299  5.60593818  5.69160278  5.81431155  5.96943394
  6.15233945  6.34913652  6.55056411  6.74736118  6.92563618  7.07844331
  7.20115207  7.28913194  7.34238291  7.36322025  7.35164395  7.31228454
  7.25208779  7.1710537   7.07844331  6.97657189  6.87006994  6.76125274
  6.65243554  6.54824885  6.44869269  6.35376704  6.26347192  6.17780731
  6.09445796  6.01110862]","[-0.39638196 -0.31755298 -0.25150707 -0.19824424 -0.15350347 -0.11941526
 -0.09171859 -0.06828294 -0.04697781 -0.0278032  -0.00862858  0.01267655
  0.03824271  0.06806989  0.10641913  0.1511599   0.20655325  0.27686018
  0.35995019  0.4600843   0.58152355  0.7200069   0.8819259   1.06301951
  1.26328774  1.47633905  1.6957819   1.91309424  2.11975401  2.29871711
  2.443592    2.54372612  2.58633638  2.57142279  2.4925938   2.35197994
  2.15810325  1.91735527  1.64251908  1.34424724  1.03532284  0.72639844
  0.42599609  0.14263785 -0.11941526 -0.35803273 -0.57321455 -0.76709124
 -0.94179332 -1.09732077 -1.24006515 -1.36576542 -1.48081313 -1.58307776
 -1.6704288  -1.74712727 -1.81104266 -1.86217498 -1.90052421 -1.92609037
 -1.94313447 -1.95165653 -1.95378704 -1.9473955  -1.93887345 -1.92395986
 -1.90904627 -1.89200216 -1.87495806 -1.85578344 -1.83660882 -1.8174342
 -1.79825958 -1.78121548 -1.76630189 -1.75351881 -1.74499676 -1.74499676
 -1.75351881 -1.77269343 -1.80465112 -1.85578344 -1.92395986 -2.01131089
 -2.11996706 -2.24992836 -2.39906428 -2.5652443  -2.7442074  -2.93595358
 -3.1340913  -3.33649004 -3.53675828 -3.73276548 -3.92238115 -4.10134425
 -4.26752427 -4.42305173 -4.56153508 -4.68723535 -4.80015254 -4.90028666
 -4.99402924 -5.08138027 -5.1666008  -5.25182132 -5.34130287 -5.43504545
 -5.53517956 -5.63744419 -5.73970882 -5.84197345 -5.93571603 -6.01880604
 -6.08911297 -6.1423758  -6.17859452 -6.19350811 -6.19350811 -6.17646401
 -6.14876734 -6.11467913 -6.07846041 -6.04224168 -6.01028399 -5.98471783
 -5.96767372 -5.96128219 -5.9634127  -5.97406526 -5.99323988 -6.01880604
 -6.05076374 -6.08698246 -6.12959272 -6.17646401 -6.22759632 -6.28512018
 -6.35116608 -6.42360353]",10.223723539476318,0.8400080533395359,4.319170000000001,-0.0042999999999997485
010,1,1,csp,26a.png,1,1,132,110,132,1,1,325,pos_feedback_onset,3,"[-0.11973817 -0.24479804 -0.34591028 -0.41509233 -0.45500506 -0.46564845
 -0.44702251 -0.40178809 -0.33260603 -0.24745889 -0.1490075  -0.03725188
  0.0771646   0.19424192  0.3086584   0.42041403  0.52684796  0.6226385
  0.71310734  0.79825448  0.87807993  0.95790538  1.04039168  1.13086052
  1.23197275  1.35171093  1.49007504  1.65770848  1.8519504   2.07546166
  2.33090309  2.61561386  2.92959395  3.26752169  3.6267362   4.00191581
  4.39039966  4.78686605  5.18599329  5.58778138  5.98424778  6.37805332
  6.76919802  7.15502102  7.53818317  7.92400617  8.30982917  8.69831302
  9.09477942  9.49656751  9.90633814 10.32143047 10.7365228  11.14895429
 11.55340322 11.94188707 12.31174498 12.65765526 12.97429621 13.25900697
 13.51444841 13.74328136 13.94284498 14.12112181 14.28077271 14.42711937
 14.56282263 14.69320419 14.81560321 14.93534139 15.05241871 15.16683519
 15.28125166 15.39034644 15.49944122 15.60587515 15.70964824 15.81342132
 15.9171944  16.01830664 16.12207972 16.2258528  16.33228673 16.44138151
 16.55845884 16.68617955 16.82720451 16.98419456 17.16513224 17.37267841
 17.61215475 17.88356128 18.18955883 18.52216487 18.87871854 19.2459156
 19.61045181 19.95104039 20.2490554  20.48853174 20.65084349 20.72800809
 20.7067213  20.58698313 20.37145442 20.07343941 19.69825981 19.26986323
 18.80155394 18.3146187  17.82502262 17.34873078 16.90170826 16.49725933
 16.13804481 15.8347081  15.58991006 15.40098984 15.26794742 15.18546113
 15.1508701  15.15619179 15.19876537 15.27326912 15.36905966 15.48613698
 15.61651855 15.7575435  15.90921186 16.06886275 16.23383535 16.40412964
 16.58506732 16.7713267  16.96822947 17.17577564 17.39662604 17.62811984
 17.87557873 18.13634187 18.41307009 18.71108509 19.02772604 19.37097547
 19.73817253 20.13197807 20.5523921  20.99675377 21.45708052 21.92805066
 22.39635996 22.84870417 23.27443989 23.65760204 23.98754723 24.25629291
 24.46383907 24.60752488 24.69533287 24.73790644 24.74056729 24.72194135
 24.69267202 24.66340269 24.63945506 24.62615082 24.62615082 24.63413336
 24.64477675 24.658081   24.66340269 24.65542015 24.63413336 24.59422064
 24.53568198 24.46117822 24.37337023 24.272258   24.16582406 24.05672929
 23.94763451 23.84386142 23.74541004 23.6549412  23.5777766  23.51125539
 23.45537757 23.41546485 23.38885637 23.37289128 23.37289128 23.38619552
 23.412804   23.45005588 23.500612   23.55915066 23.62301102 23.69485392
 23.76403597 23.82789633 23.886435   23.93433026 23.96892129 23.99552977
 24.00883402 24.01947741 24.02479911 24.0354425  24.05672929 24.09398116
 24.14985898 24.22968442 24.3387792  24.47182162 24.63147251 24.81507104
 25.01729551 25.23548507 25.46165718 25.69049013 25.91932308 26.14017349
 26.3503805  26.54728327 26.72289926 26.87988931 27.01293172 27.12468735
 27.21249534 27.27103401 27.30296418 27.30030334 27.26305146 27.18588686
 27.06348784 26.89851525 26.68564738 26.43020595 26.13485179 25.8102283
 25.46165718 25.10244266 24.74322814 24.39731786 24.07003353 23.77201852
 23.50859454 23.28242244 23.09084136 22.93917301 22.81411314 22.7183226
 22.641158   22.57729764 22.51875898 22.46022032 22.39369911 22.31653451
 22.22340482 22.10898835]","[-1.95091956e+00 -1.60210185e+00 -1.25328414e+00 -9.08938454e-01
 -5.82480854e-01 -2.73911342e-01  1.11800548e-03  2.40371178e-01
  4.37140142e-01  5.84716865e-01  6.83101347e-01  7.34529599e-01
  7.41237632e-01  7.07697468e-01  6.45089161e-01  5.57884734e-01
  4.59500252e-01  3.54407737e-01  2.56023255e-01  1.68818827e-01
  9.95024876e-02  5.47822684e-02  3.68941808e-02  5.03102465e-02
  9.27944547e-02  1.68818827e-01  2.71675331e-01  4.03599978e-01
  5.57884734e-01  7.30057577e-01  9.13410476e-01  1.10347141e+00
  1.29129633e+00  1.47017720e+00  1.63116999e+00  1.76980267e+00
  1.87936721e+00  1.95315557e+00  1.98893175e+00  1.98222371e+00
  1.93303147e+00  1.84359103e+00  1.71613841e+00  1.55514562e+00
  1.36508469e+00  1.15489966e+00  9.31298563e-01  7.00989435e-01
  4.70680306e-01  2.51551233e-01  4.58382246e-02 -1.41986696e-01
 -3.07451507e-01 -4.50556208e-01 -5.71300799e-01 -6.69685281e-01
 -7.52417687e-01 -8.17262005e-01 -8.70926268e-01 -9.13410476e-01
 -9.49186651e-01 -9.78254793e-01 -1.00285091e+00 -1.02521102e+00
 -1.04533512e+00 -1.06098720e+00 -1.07216725e+00 -1.07887529e+00
 -1.07887529e+00 -1.06993124e+00 -1.05427917e+00 -1.02968305e+00
 -9.98378892e-01 -9.60366706e-01 -9.17882498e-01 -8.75398289e-01
 -8.37386103e-01 -8.06081950e-01 -7.85957851e-01 -7.79249818e-01
 -7.92665884e-01 -8.23970037e-01 -8.77634300e-01 -9.49186651e-01
 -1.03862709e+00 -1.14148359e+00 -1.25104813e+00 -1.36284868e+00
 -1.46794119e+00 -1.55961764e+00 -1.63564201e+00 -1.69154229e+00
 -1.72284644e+00 -1.72955447e+00 -1.71613841e+00 -1.68036223e+00
 -1.62669797e+00 -1.55961764e+00 -1.47688524e+00 -1.38520879e+00
 -1.28458829e+00 -1.17502376e+00 -1.06098720e+00 -9.38006596e-01
 -8.12789983e-01 -6.83101347e-01 -5.57884734e-01 -4.37140142e-01
 -3.27575605e-01 -2.33663145e-01 -1.57638772e-01 -1.03974509e-01
 -7.49063670e-02 -7.04343451e-02 -8.83224328e-02 -1.26334619e-01
 -1.82234893e-01 -2.44843200e-01 -3.14159539e-01 -3.79003857e-01
 -4.37140142e-01 -4.84096372e-01 -5.17636536e-01 -5.33288613e-01
 -5.28816591e-01 -5.08692493e-01 -4.68444295e-01 -4.12544021e-01
 -3.36519649e-01 -2.47079211e-01 -1.44222707e-01 -3.01861479e-02
  9.05584437e-02  2.15775057e-01  3.38755660e-01  4.52792219e-01
  5.60120745e-01  6.49561183e-01  7.25585555e-01  7.81485829e-01]",25.59163961470917,0.6782939236402112,3.7582,-0.1874299999999991
010,1,1,csp,51a.png,1,1,144,35,145,1,1,278,pos_feedback_onset,4,"[ 2.08221152  1.88043092  1.66691889  1.43932915  1.20704684  0.97007195
  0.73309706  0.49612218  0.26383986  0.03625012 -0.18664705 -0.40250536
 -0.6136711  -0.81779799 -1.0172323  -1.20728146 -1.38794549 -1.55922436
 -1.71877181 -1.86424155 -1.99563356 -2.11060158 -2.2067993  -2.28422674
 -2.34523018 -2.38511704 -2.40623361 -2.4085799  -2.3921559  -2.36165418
 -2.31238217 -2.25137874 -2.17629758 -2.08713872 -1.98390213 -1.86893412
 -1.7375421  -1.59441865 -1.43487121 -1.25889976 -1.06885059 -0.86237742
 -0.64417282 -0.41189051 -0.17022305  0.08082955  0.33422844  0.58762733
  0.83867993  1.08269368  1.31966856  1.54491202  1.75842405  1.95785836
  2.14086867  2.30980126  2.46230985  2.60074072  2.72274759  2.82833046
  2.92218191  3.00195563  3.06999792  3.12865507  3.18027337  3.22719909
  3.27177852  3.31870424  3.37266882  3.43601854  3.51109969  3.60729742
  3.72461172  3.86538888  4.03432147  4.2314095   4.45665295  4.70301298
  4.97283587  5.25439019  5.54298337  5.83157655  6.11078459  6.37122233
  6.60350465  6.80059267  6.95310126  7.05868413  7.11030242  7.11264871
  7.06103042  6.96483269  6.82405553  6.65043037  6.44864977  6.22809889
  5.99816286  5.76822683  5.54063709  5.3200862   5.11595932  4.92825644
  4.75697756  4.60681526  4.47307695  4.36045523  4.26191121  4.18213749
  4.11644148  4.06716948  4.0296289   4.00616604  3.9967809   4.00147347
  4.02024376  4.05778433  4.10940262  4.17744492  4.2642575   4.36280151
  4.47776953  4.60212268  4.73820727  4.88367701  5.0361856   5.19338676
  5.35293421  5.51717423  5.68141425  5.84565427  6.00989429  6.17178802
  6.33602804  6.49557549  6.65746923  6.81701667  6.97891041  7.14315043
  7.30973673  7.48101561  7.65933335  7.84703623  8.04177797  8.24825114
  8.46410945  8.68700662  8.91928893  9.15861011  9.40027757  9.64194502
  9.87891991 10.11354851 10.33644568 10.54526514 10.74000687 10.91597833
 11.0708332  11.19987893 11.30076923 11.3735041  11.41339096 11.4227761
 11.39462067 11.33361723 11.23741951 11.10837378 10.95117262 10.76346973
 10.55230399 10.32002168 10.07366165  9.81087762  9.53870844  9.26184669
  8.97794608  8.69169919  8.40310601  8.11685912  7.83295851  7.55140419
  7.27688873  7.00471955  6.73724295  6.47445892  6.21402117  5.95592971
  5.69783825  5.43974679  5.17930904  4.91417872  4.64670212  4.37922551
  4.10940262  3.84661859  3.58852713  3.3421671   3.1075385   2.88698762
  2.68286073  2.49046528  2.31214754  2.14556124  1.98601379  1.83115891
  1.67865032  1.52614173  1.37128686  1.21877827  1.06626968  0.91376108
  0.76829135  0.62751419  0.49612218  0.37646159  0.26853243  0.17233471
  0.08786841  0.01513354 -0.04821618 -0.10687333 -0.16083791 -0.21480248
 -0.26876706 -0.32507793 -0.38373508 -0.44473851 -0.50339566 -0.55736024
 -0.60428596 -0.64182654 -0.66763568 -0.67702083 -0.66998197 -0.64417282
 -0.60663225 -0.55501395 -0.49401052 -0.42596822 -0.35557964 -0.28049849
 -0.20776363 -0.13268247 -0.05994761  0.01747983  0.09490727  0.17937357
  0.26853243  0.36707645  0.4750056   0.5923199   0.71901935  0.85510393
  1.00057367  1.15542854  1.31966856  1.49094744  1.67161146  1.85696806
  2.04936351  2.24645154]","[-1.94994393 -1.74262167 -1.5352994  -1.32351859 -1.11173778 -0.89995698
 -0.69040544 -0.48308317 -0.28021945 -0.079585    0.11882018  0.31499609
  0.50894272  0.70288936  0.89906527  1.09747045  1.30033417  1.50542716
  1.71720797  1.93121805  2.1474574   2.36369676  2.57770684  2.78279983
  2.97674647  3.15285893  3.3044494   3.42483007  3.51400094  3.56304492
  3.57419128  3.54744002  3.48279114  3.38470318  3.2576347   3.1082735
  2.94553666  2.77388274  2.60222883  2.43949199  2.29013079  2.16306231
  2.06274508  1.99363766  1.95796931  1.95351077  1.9824913   2.03376455
  2.10733051  2.19427211  2.28790152  2.37930166  2.46624325  2.53757995
  2.59331174  2.62452154  2.62898009  2.6044581   2.54649703  2.4550969
  2.33025768  2.17420866  1.98917912  1.78185685  1.55892968  1.3293147
  1.09747045  0.87231401  0.6605332   0.46658656  0.29270337  0.14334217
  0.01850295 -0.08627281 -0.16875587 -0.23117547 -0.27353163 -0.29582435
 -0.29582435 -0.26907309 -0.21557057 -0.13085825 -0.00824831  0.15225926
  0.35289371  0.59142578  0.86785546  1.17549495  1.50765643  1.85096427
  2.19873065  2.53535068  2.85190725  3.13725403  3.38024464  3.57419128
  3.71686466  3.80603553  3.84393315  3.83055752  3.777055    3.68565486
  3.56527419  3.42483007  3.27101033  3.11273204  2.95445375  2.80286328
  2.66018989  2.52866286  2.41274073  2.31465278  2.234399    2.17197939
  2.12516469  2.09841343  2.08726707  2.09172561  2.11178906  2.14299886
  2.18535502  2.23885754  2.29681861  2.35923821  2.42388709  2.48853597
  2.55095558  2.61114591  2.66910698  2.7226095   2.77165347  2.81623891
  2.85859507  2.89872196  2.93661958  2.97005865  3.00126846  3.03024899
  3.05477098  3.07483442]",9.79791438636995,2.194327841151027,4.262055,-0.18276999999999965
010,1,1,csp,54a.png,1,1,288,NaN,289,1,1,368,pos_feedback_onset,5,"[ 0.38117059  0.42748001  0.469379    0.49584152  0.50686758  0.49804674
  0.46717379  0.41424875  0.34147681  0.24885798  0.14080267  0.02172132
 -0.10838608 -0.2406987  -0.37301131 -0.50311872 -0.6288157  -0.74789706
 -0.85595236 -0.95518682 -1.04339523 -1.1227828  -1.18893911 -1.24627457
 -1.29258399 -1.33007256 -1.36094551 -1.38299761 -1.39622887 -1.4028445
 -1.40063929 -1.39181845 -1.37197156 -1.34330382 -1.30361004 -1.2528902
 -1.18893911 -1.11175675 -1.02354834 -0.92431388 -0.81625857 -0.70158764
 -0.58250629 -0.46342493 -0.34654879 -0.23408307 -0.12823298 -0.03340894
  0.05038905  0.12316099  0.18490688  0.2334215   0.27091008  0.2973726
  0.31060386  0.31060386  0.29516739  0.26429445  0.21798503  0.15403394
  0.07685158 -0.01576725 -0.11720692 -0.22746744 -0.33772795 -0.45019367
 -0.55604376 -0.65527823 -0.74128143 -0.81846378 -0.88241488 -0.93533993
 -0.97944413 -1.01252229 -1.04119002 -1.06544733 -1.08529422 -1.10293591
 -1.11837238 -1.13380885 -1.14924532 -1.16247658 -1.17350263 -1.1867339
 -1.19555474 -1.20658079 -1.21760684 -1.22863289 -1.24406936 -1.26832668
 -1.29919962 -1.34550903 -1.40725492 -1.4888477  -1.59469779 -1.7248052
 -1.88137513 -2.06440758 -2.27169734 -2.498834   -2.74140712 -2.9950063
 -3.24860548 -3.49338382 -3.72493089 -3.93442587 -4.11525311 -4.26079699
 -4.3710575  -4.44603465 -4.48793364 -4.50557532 -4.50557532 -4.49454927
 -4.48793364 -4.49234406 -4.51880658 -4.56952642 -4.64670878 -4.75035366
 -4.87605064 -5.01497889 -5.16052277 -5.2972458  -5.41632716 -5.5111512
 -5.57510229 -5.60156482 -5.59274398 -5.54643456 -5.47366262 -5.37442816
 -5.25755202 -5.12964982 -4.99733721 -4.86502459 -4.73491719 -4.6092202
 -4.49013885 -4.37767313 -4.26961783 -4.16817815 -4.0711489  -3.97411965
 -3.87929561 -3.78447157 -3.68523711 -3.58159223 -3.47353693 -3.35445557
 -3.22655338 -3.08541992 -2.93326041 -2.76786965 -2.59145283 -2.40842037
 -2.2209775  -2.03132942 -1.84609176 -1.66746973 -1.50207896 -1.34991945
 -1.21540163 -1.09632028 -0.99708581 -0.91328783 -0.84713152 -0.79641168
 -0.76112832 -0.74128143 -0.73466579 -0.74569185 -0.77435958 -0.82066899
 -0.88241488 -0.96180245 -1.05662649 -1.16468179 -1.28376315 -1.40504971
 -1.5307467  -1.65203326 -1.7689094  -1.8769647  -1.97619917 -2.06440758
 -2.14379514 -2.21436187 -2.27831297 -2.33785365 -2.39518911 -2.45031937
 -2.50544963 -2.5649903  -2.62453098 -2.68848208 -2.75684359 -2.82741032
 -2.90238747 -2.98177504 -3.06336782 -3.14716581 -3.23316901 -3.32137742
 -3.40958583 -3.49558903 -3.58159223 -3.66318501 -3.74036737 -3.81093409
 -3.87047477 -3.9189894  -3.95647797 -3.98073528 -3.98735091 -3.97853007
 -3.95427276 -3.91457898 -3.86165393 -3.79329241 -3.71611005 -3.63231206
 -3.54630886 -3.46471608 -3.39194415 -3.33460868 -3.29712011 -3.28829926
 -3.30814616 -3.35886599 -3.44045877 -3.55071928 -3.68964753 -3.85062788
 -4.0270447  -4.21669278 -4.41075128 -4.6092202  -4.80327871 -4.99292679
 -5.17375403 -5.34135001 -5.49571473 -5.63464297 -5.75592953 -5.85957442
 -5.94337241 -6.0073235  -6.05363292 -6.08009544 -6.09112149 -6.08671107
 -6.06686418 -6.03378603 -5.99188703 -5.93896199 -5.87501089 -5.80223895
 -5.72064617 -5.62802734]","[-2.11759767 -1.97623887 -1.79846947 -1.58643127 -1.34869147 -1.09167547
 -0.81966686 -0.54123286 -0.26065706  0.01349334  0.27693474  0.52752534
  0.75883974  0.96873615  1.15721455  1.32427495  1.46563375  1.58771635
  1.68838095  1.77191115  1.84259055  1.90041915  1.95182235  1.99465835
  2.03106895  2.06533775  2.09103935  2.10817375  2.11674095  2.11031555
  2.08461395  2.03535255  1.96253135  1.86186675  1.73335875  1.57700735
  1.39495435  1.19148335  0.97516155  0.75241434  0.52752534  0.30906174
  0.10344894 -0.08502946 -0.24994806 -0.39344866 -0.51124766 -0.60762866
 -0.68473346 -0.74256206 -0.78753986 -0.82180866 -0.84751026 -0.87107006
 -0.89034626 -0.91176426 -0.93104047 -0.95245847 -0.97387647 -0.99529447
 -1.01457067 -1.03170507 -1.04455587 -1.05312307 -1.05740667 -1.05526487
 -1.05312307 -1.04669767 -1.04027227 -1.03384687 -1.03170507 -1.03598867
 -1.04455587 -1.06169027 -1.08739187 -1.11737707 -1.15378767 -1.19448187
 -1.23517607 -1.27801207 -1.31656447 -1.35083327 -1.37867667 -1.40223647
 -1.41508727 -1.42365447 -1.42579627 -1.42365447 -1.41722907 -1.41080367
 -1.40652007 -1.40652007 -1.40866187 -1.41937087 -1.43650527 -1.46006507
 -1.49219207 -1.52860267 -1.57358047 -1.62070007 -1.67424507 -1.72779007
 -1.78561867 -1.84130547 -1.89913407 -1.95267907 -2.00836587 -2.05976907
 -2.10903047 -2.15400827 -2.19684427 -2.23753847 -2.27394907 -2.31035967
 -2.34462847 -2.38103907 -2.41744967 -2.45814387 -2.50097987 -2.54809947
 -2.59950267 -2.65733127 -2.71944347 -2.78583928 -2.85437688 -2.92505628
 -2.99787748 -3.07069868 -3.14137808 -3.20991568 -3.27416968 -3.32985648
 -3.37911788 -3.41981208 -3.44765548 -3.46478988 -3.47121528 -3.46478988
 -3.44979728 -3.42837928]",-0.19172465450787982,1.1538412112307461,4.534715,0.039814999999999934
010,1,1,csm,16b.png,1,1,244,310,243,1,1,395,neu_feedback_onset,6,"[-0.20386393 -0.21311995 -0.22468998 -0.233946   -0.24320203 -0.24551603
 -0.24320203 -0.22931799 -0.20617793 -0.16915384 -0.11824571 -0.05576754
  0.01828065  0.09927086  0.18488908  0.27282131  0.35381151  0.42785971
  0.49033787  0.53893199  0.57364208  0.59446814  0.60141016  0.60141016
  0.59909615  0.59446814  0.59446814  0.60372416  0.62455022  0.6569463
  0.70322642  0.76570458  0.83975277  0.92537099  1.02255924  1.12668951
  1.2377618   1.35577611  1.47610442  1.59874673  1.72138905  1.83940336
  1.95278965  2.05460591  2.14716615  2.22352835  2.28369251  2.32303061
  2.34385666  2.34617067  2.32765862  2.29294853  2.2443544   2.18187624
  2.11014206  2.03609387  1.96204567  1.89262549  1.83477534  1.79080923
  1.76766917  1.76535517  1.79080923  1.84171736  1.91576555  2.01526781
  2.13559612  2.26980847  2.41790485  2.57294325  2.73029566  2.88996207
  3.04500047  3.20003888  3.34813526  3.49160363  3.63275799  3.77159835
  3.90812471  4.04465106  4.18349142  4.32695979  4.47505617  4.63009457
  4.794389    4.96331144  5.13917589  5.31966836  5.50016082  5.67602528
  5.84263371  5.9953581   6.12957045  6.24064274  6.33088897  6.39336713
  6.43270523  6.44890328  6.44196126  6.41650719  6.37485509  6.31469093
  6.23832873  6.1503965   6.04626624  5.92593792  5.78941157  5.63900118
  5.47239275  5.29190028  5.09983779  4.89851927  4.69488674  4.48894021
  4.28993569  4.10250121  3.92895076  3.77622637  3.64432802  3.53556974
  3.45226553  3.38978737  3.35044926  3.32962321  3.3249952   3.33193722
  3.35276327  3.38053134  3.41755544  3.46152155  3.51242968  3.57027983
  3.63275799  3.70680619  3.7877964   3.87804263  3.97754489  4.08630317
  4.20200347  4.32695979  4.45654412  4.59075647  4.72496882  4.85686716
  4.98645149  5.11140782  5.23173613  5.34975043  5.46313673  5.57652302
  5.68759531  5.7986676   5.90973988  6.02081217  6.12957045  6.23370072
  6.33551698  6.43039123  6.51832346  6.59699966  6.67104785  6.74046803
  6.8052602   6.86773836  6.92558851  6.98112465  7.03203278  7.07368489
  7.10608098  7.12227902  7.11996501  7.09682495  7.05285884  6.98112465
  6.88856441  6.7682361   6.62708174  6.4581593   6.26841081  6.05320825
  5.81255163  5.54644094  5.25487619  4.94017138  4.6023265   4.24596958
  3.87572862  3.49623164  3.11210665  2.73260967  2.3600547   2.00138378
  1.65659688  1.33263605  1.02718726  0.73793651  0.4648838   0.20340113
 -0.05113953 -0.30105218 -0.54865082 -0.80087747 -1.05773214 -1.32152882
 -1.59226752 -1.86532022 -2.14068694 -2.41605365 -2.68216434 -2.939019
 -3.18198963 -3.40644821 -3.61239474 -3.79751522 -3.96180965 -4.10527802
 -4.23486235 -4.35056265 -4.45700693 -4.55650918 -4.65138343 -4.74857168
 -4.84575993 -4.94526219 -5.04707845 -5.15352273 -5.257653   -5.36409727
 -5.46591353 -5.56310179 -5.65334802 -5.73202422 -5.7991304  -5.85466654
 -5.89400464 -5.9171447  -5.92640073 -5.92177271 -5.90326067 -5.87549259
 -5.8407825  -5.7991304  -5.75747829 -5.71582618 -5.67880209 -5.646406
 -5.62326594 -5.61169591 -5.60938191 -5.61863793 -5.64177799 -5.67648808
 -5.7227682  -5.78061835 -5.84541052 -5.91945871 -5.99582091 -6.0721831
 -6.14623129 -6.21333747]","[-2.76661269 -2.4786878  -2.18154931 -1.87059043 -1.55502475 -1.23254887
 -0.91007299 -0.58529372 -0.26742464  0.04583764  0.34527953  0.63090102
  0.89809532  1.14455903  1.36798874  1.56838446  1.7457462   1.90007394
  2.03827789  2.16266144  2.275528    2.38378776  2.49204751  2.60030727
  2.71547723  2.83755738  2.96885113  3.10935848  3.25677602  3.41110377
  3.5723417   3.73588304  3.89942438  4.06296572  4.22190026  4.3739246
  4.51903875  4.6503325   4.77010925  4.87376221  4.96129138  5.03039335
  5.07876473  5.11101232  5.12483272  5.12252932  5.10870892  5.08106813
  5.04421375  5.00275256  4.95668458  4.9060098   4.85533502  4.80466024
  4.75398546  4.70331068  4.65493929  4.60656791  4.56280333  4.52364554
  4.48909456  4.45915037  4.43841978  4.42459938  4.41999258  4.42459938
  4.43611638  4.44993677  4.46606057  4.47527416  4.47757756  4.46375717
  4.42690278  4.364711    4.27027164  4.14128129  3.97313315  3.76813063
  3.52627372  3.24756243  2.93660355  2.60030727  2.24558381  1.87473655
  1.49928249  1.12613183  0.75989137  0.4097747   0.07808523 -0.23057025
 -0.51388835 -0.77417245 -1.00911916 -1.22333528 -1.4191242  -1.60109273
 -1.77384767 -1.9419958  -2.10323374 -2.26447168 -2.42570962 -2.58464416
 -2.7412753  -2.89329964 -3.03611039 -3.17201094 -3.29639449 -3.41156445
 -3.51291401 -3.60274657 -3.68106214 -3.75016412 -3.81235589 -3.86533407
 -3.91370546 -3.95747004 -3.99432442 -4.02657201 -4.049606   -4.0657298
 -4.0703366  -4.0588196  -4.03348221 -3.98971763 -3.92522245 -3.84460348
 -3.74555732 -3.63269076 -3.51061061 -3.38622706 -3.2664503  -3.15588714
 -3.06375118 -2.999256   -2.96240162 -2.96240162 -2.9969526  -3.06835798
 -3.17431434 -3.30791148]",6.1190995739915,4.4195894882077535,4.32151,0.04687000000000019
010,1,1,csm,63b.png,1,1,200,223,200,1,1,262,neu_feedback_onset,7,"[ 1.96953876  1.71128744  1.45055294  1.18981844  0.93156713  0.675799
  0.42996361  0.19654415 -0.02197619 -0.22063105 -0.39942042 -0.55337794
 -0.68746997 -0.79673014 -0.88364164 -0.94820447 -0.99290181 -1.01773367
 -1.02270004 -1.01028411 -0.98545226 -0.94820447 -0.89854076 -0.8389443
 -0.77438147 -0.70236908 -0.62290714 -0.53599564 -0.44163458 -0.33734078
 -0.22063105 -0.09150539  0.05251938  0.21144326  0.38278308  0.56405564
  0.75774413  0.95639898  1.16002021  1.36115826  1.55981312  1.75101842
  1.93477416  2.10859716  2.27000423  2.41899538  2.55308741  2.67724669
  2.78402368  2.87838474  2.96032987  3.02737588  3.08200597  3.12422012
  3.15650154  3.17885021  3.19374932  3.20368207  3.21361481  3.22354755
  3.24341304  3.2682449   3.30797587  3.35763958  3.4246856   3.50663073
  3.60099178  3.70528558  3.81951213  3.93870504  4.05789796  4.16964132
  4.27145193  4.35836343  4.42292626  4.46514042  4.4850059   4.48252272
  4.46514042  4.432859    4.3980944   4.3633298   4.34098113  4.33353157
  4.34346432  4.37326255  4.42292626  4.48997228  4.56943422  4.66131209
  4.76063952  4.86245013  4.96426075  5.06607136  5.16291561  5.25727667
  5.34915454  5.43606604  5.52297754  5.60740585  5.69431735  5.78371204
  5.87558991  5.96995097  6.0692784   6.1735722   6.28034919  6.39209254
  6.50880227  6.63047837  6.75712085  6.88872969  7.02282172  7.15691375
  7.29348896  7.43006418  7.56167302  7.69079868  7.81495797  7.93415088
  8.05582698  8.1750199   8.296696    8.42333847  8.55991368  8.70145527
  8.8529296   9.01185349  9.17326056  9.33715082  9.49855789  9.65499859
  9.80398973  9.94553132 10.08210654 10.21123219 10.34035785 10.46948351
 10.60605872 10.75256668 10.90900738 11.07786401 11.2541702  11.43544276
 11.62168169 11.80295425 11.97677725 12.14066751 12.28965865 12.42623386
 12.54542678 12.65468695 12.74904801 12.83595951 12.91790464 12.9948834
 13.07186215 13.14635773 13.21837011 13.2903825  13.35742851 13.41702497
 13.46917187 13.50641966 13.52628514 13.52380196 13.49648691 13.43937364
 13.35246214 13.23326923 13.0817949  12.89803915 12.68200199 12.44113298
 12.17791529 11.8973153  11.60678257 11.30880029 11.01330118 10.72525164
 10.44713484 10.18640034  9.94304814  9.71956142  9.513457    9.3222517
  9.14594552  8.97957207  8.81568181  8.65427474  8.4879013   8.3140783
  8.13280574  7.94408362  7.75287832  7.55670665  7.36550135  7.17926242
  7.00047305  6.83658279  6.68510846  6.54853324  6.42189077  6.30518104
  6.19592087  6.08914388  5.97988371  5.86814035  5.75143063  5.62478815
  5.49317931  5.35660409  5.21506251  5.07600411  4.93942889  4.81030323
  4.69111032  4.58185015  4.4850059   4.40057759  4.32359883  4.25406963
  4.18454043  4.11501123  4.03803247  3.95112097  3.85427673  3.74501656
  3.62582364  3.49669798  3.36260595  3.22354755  3.08448915  2.94543075
  2.80885554  2.67476351  2.54315466  2.41154582  2.27993698  2.14336176
  2.00430336  1.8577954   1.70632107  1.54739719  1.38599011  1.21961667
  1.05324323  0.88686978  0.72297952  0.56157245  0.40513175  0.25365742
  0.10714946 -0.03439212 -0.17345052 -0.31250892 -0.44660095 -0.58317617
 -0.7172682  -0.85384341]","[-2.28023805 -2.11483561 -1.92737951 -1.72007511 -1.4951278  -1.25253755
 -0.99671511 -0.72766047 -0.447579   -0.16308681  0.12361076  0.41030832
  0.69259515  0.96606052  1.22849906  1.47991077  1.72029565  1.9496537
  2.17019029  2.38411078  2.59362054  2.80092493  3.00822932  3.21994445
  3.4360703   3.65881226  3.88596494  4.11973372  4.35791324  4.60050349
  4.838683    5.07465715  5.29960447  5.50911423  5.69877569  5.8597674
  5.98767862  6.08030399  6.13543813  6.1508757   6.13323277  6.08030399
  6.00091082  5.89725862  5.77816886  5.64805228  5.51352496  5.37679227
  5.24447032  5.11876447  5.00188007  4.89822788  4.80560251  4.72620934
  4.657843    4.60050349  4.55198544  4.50787812  4.46818153  4.43069031
  4.39319909  4.35570787  4.32042202  4.28513616  4.24985031  4.21676982
  4.18368933  4.14840348  4.10870689  4.05798348  3.9918225   3.90581323
  3.79333957  3.65219616  3.48238299  3.28610542  3.06556884  2.82738932
  2.58038834  2.33338736  2.09741322  1.87908199  1.68721516  1.52401809
  1.39610687  1.29907077  1.23511516  1.19762394  1.18439174  1.18880248
  1.21085613  1.24173126  1.27922248  1.32332979  1.36523175  1.40933906
  1.44683028  1.48211614  1.50858053  1.52842882  1.53725028  1.53725028
  1.52401809  1.49975906  1.46226784  1.41374979  1.35420492  1.28583857
  1.20865077  1.1226415   1.0322215   0.93739077  0.84035467  0.74331857
  0.64187174  0.54263027  0.44338881  0.34635271  0.24931661  0.15228051
  0.05524442 -0.03958632 -0.13441705 -0.22924778 -0.31966778 -0.41008778
 -0.49830242 -0.57990096 -0.6548834  -0.72104437 -0.77397315 -0.80925901
 -0.8291073  -0.82469657 -0.79823218 -0.74750876 -0.67252632 -0.57549023
 -0.46301657 -0.33951608]",12.403326475602062,4.842762926476411,4.0270850000000005,0.46713999999999967
010,1,1,csp,49a.png,1,1,156,38,159,1,1,183,pos_feedback_onset,8,"[ 1.89136999e+00  1.72216080e+00  1.53923195e+00  1.34258344e+00
  1.13221526e+00  9.12700636e-01  6.86326183e-01  4.55378508e-01
  2.22144223e-01 -6.51684032e-03 -2.28318072e-01 -4.40972861e-01
 -6.39907987e-01 -8.25123448e-01 -9.89759414e-01 -1.13610250e+00
 -1.26415269e+00 -1.37391000e+00 -1.46308782e+00 -1.53625936e+00
 -1.59571123e+00 -1.64144345e+00 -1.67802922e+00 -1.70546854e+00
 -1.72376143e+00 -1.73748109e+00 -1.74662754e+00 -1.74891415e+00
 -1.74434092e+00 -1.73062126e+00 -1.70318193e+00 -1.66430955e+00
 -1.60714429e+00 -1.53397275e+00 -1.44250832e+00 -1.33503762e+00
 -1.21613387e+00 -1.08579706e+00 -9.50887033e-01 -8.18263616e-01
 -6.87926810e-01 -5.64449836e-01 -4.52405915e-01 -3.54081657e-01
 -2.64903842e-01 -1.89445691e-01 -1.18560762e-01 -5.68222743e-02
  4.91621287e-03  6.66547001e-02  1.28393187e-01  1.94704896e-01
  2.58729994e-01  3.25041702e-01  3.86780189e-01  4.43945455e-01
  4.91964279e-01  5.28550049e-01  5.49129544e-01  5.55989376e-01
  5.44556323e-01  5.19403606e-01  4.78244615e-01  4.21079349e-01
  3.54767640e-01  2.74736268e-01  1.90131674e-01  9.63806384e-02
 -1.94361904e-03 -1.02554487e-01 -2.05451966e-01 -3.10636055e-01
 -4.15820144e-01 -5.21004234e-01 -6.26188323e-01 -7.26799191e-01
 -8.25123448e-01 -9.18874485e-01 -1.01033891e+00 -1.09723011e+00
 -1.18183471e+00 -1.26186608e+00 -1.33961084e+00 -1.41735560e+00
 -1.49281375e+00 -1.56598529e+00 -1.63915684e+00 -1.71232838e+00
 -1.78092669e+00 -1.84723840e+00 -1.91355011e+00 -1.97528860e+00
 -2.03245386e+00 -2.08733252e+00 -2.13992456e+00 -2.19023000e+00
 -2.24053543e+00 -2.29312748e+00 -2.35029274e+00 -2.40974462e+00
 -2.47834294e+00 -2.55380109e+00 -2.63611907e+00 -2.72529689e+00
 -2.82362115e+00 -2.92651862e+00 -3.03627593e+00 -3.15060647e+00
 -3.27179683e+00 -3.39984703e+00 -3.53704366e+00 -3.68110013e+00
 -3.83430305e+00 -3.99893901e+00 -4.17043481e+00 -4.35336366e+00
 -4.54086573e+00 -4.73294103e+00 -4.92730293e+00 -5.12166484e+00
 -5.30916691e+00 -5.48980915e+00 -5.65901834e+00 -5.81450786e+00
 -5.95627772e+00 -6.08432791e+00 -6.19865845e+00 -6.29698270e+00
 -6.38158730e+00 -6.45475884e+00 -6.51649732e+00 -6.56680276e+00
 -6.60796175e+00 -6.63997430e+00 -6.66284040e+00 -6.67656007e+00
 -6.68113329e+00 -6.67427346e+00 -6.65369396e+00 -6.61939480e+00
 -6.56680276e+00 -6.49591783e+00 -6.40674001e+00 -6.29240948e+00
 -6.15521284e+00 -5.99057688e+00 -5.79850158e+00 -5.57670035e+00
 -5.32745979e+00 -5.04849330e+00 -4.74208747e+00 -4.41052893e+00
 -4.05610428e+00 -3.68338674e+00 -3.29466294e+00 -2.89450607e+00
 -2.48748938e+00 -2.07818608e+00 -1.67116938e+00 -1.26643930e+00
 -8.70855661e-01 -4.84418463e-01 -1.09414319e-01  2.54156772e-01
  6.04008200e-01  9.37853353e-01  1.25797884e+00  1.56209806e+00
  1.85021100e+00  2.12003105e+00  2.37155822e+00  2.60707912e+00
  2.82202052e+00  3.01638242e+00  3.19245144e+00  3.35022757e+00
  3.48513760e+00  3.60175475e+00  3.69321917e+00  3.76410410e+00
  3.80754970e+00  3.82584259e+00  3.81898276e+00  3.78697021e+00
  3.72980494e+00  3.64977357e+00  3.54916270e+00  3.43254556e+00
  3.30678197e+00  3.17187195e+00  3.03467531e+00  2.89976528e+00
  2.77171508e+00  2.64823811e+00  2.53390758e+00  2.42872349e+00
  2.33268584e+00  2.24350803e+00  2.15890343e+00  2.08115867e+00
  2.01027374e+00  1.94167542e+00  1.88222355e+00  1.82963150e+00
  1.78847251e+00  1.76103318e+00  1.74502691e+00  1.74731352e+00
  1.76789301e+00  1.80219217e+00  1.85249761e+00  1.91652271e+00
  1.98969425e+00  2.06972562e+00  2.15204360e+00  2.23664819e+00
  2.31667957e+00  2.39213772e+00  2.46530926e+00  2.53162097e+00
  2.59564606e+00  2.65509794e+00  2.71226321e+00  2.76714186e+00
  2.81973391e+00  2.86775273e+00  2.91348494e+00  2.95235732e+00
  2.98208326e+00  3.00494937e+00  3.01638242e+00  3.01866903e+00
  3.00952259e+00  2.99122970e+00  2.96379038e+00  2.93177783e+00
  2.89290545e+00  2.85174646e+00  2.80830085e+00  2.76485525e+00
  2.72140965e+00  2.68025066e+00  2.64366489e+00  2.61165234e+00
  2.58649962e+00  2.56820674e+00  2.55906029e+00  2.56134691e+00
  2.56820674e+00  2.58649962e+00  2.60707912e+00  2.63451845e+00
  2.65967116e+00  2.68253727e+00  2.69854354e+00  2.70540338e+00
  2.69854354e+00  2.67567744e+00  2.63451845e+00  2.57506657e+00]","[-0.63851092 -0.46728769 -0.30906876 -0.16385413 -0.0424807   0.05288414
  0.120073    0.16125327  0.17642495  0.1699228   0.14824897  0.11573823
  0.08322749  0.05288414  0.03121031  0.02687554  0.04204722  0.07889273
  0.13957944  0.22193998  0.32597435  0.44734777  0.58606026  0.73777705
  0.90033074  1.06938659  1.24060981  1.41616781  1.5917258   1.76294903
  1.92550272  2.07505213  2.2029277   2.30479468  2.37198355  2.39799214
  2.37631831  2.30912945  2.1899234   2.02303494  1.81279883  1.56571721
  1.29045962  0.99136081  0.6814251   0.36281985  0.04421461 -0.27439064
 -0.58649374 -0.89209469 -1.19119349 -1.48379015 -1.76554989 -2.0386401
 -2.29872601 -2.54580763 -2.77338281 -2.98145154 -3.16351168 -3.32173061
 -3.44960619 -3.55147317 -3.62733156 -3.68151613 -3.71402687 -3.73353331
 -3.74003546 -3.74220284 -3.74220284 -3.74220284 -3.74220284 -3.74437022
 -3.74653761 -3.74653761 -3.74437022 -3.73786808 -3.72703116 -3.71619425
 -3.70535734 -3.69452042 -3.69235304 -3.69668781 -3.71185948 -3.74003546
 -3.77904835 -3.83323291 -3.89608701 -3.96977802 -4.05213856 -4.13883386
 -4.22986393 -4.32306138 -4.41409145 -4.50295414 -4.5831473  -4.65250354
 -4.71102287 -4.75003576 -4.76954221 -4.76737482 -4.74136623 -4.68934905
 -4.61132327 -4.50945629 -4.38591548 -4.24503561 -4.09331883 -3.93293251
 -3.7725462  -3.61866203 -3.47778216 -3.35207397 -3.2480396  -3.16784645
 -3.11366188 -3.08548591 -3.08331852 -3.10282497 -3.14400524 -3.20252457
 -3.27404819 -3.35640873 -3.44310404 -3.53196673 -3.62082941 -3.70752472
 -3.78555049 -3.85490674 -3.91559345 -3.96110849 -3.99361923 -4.00662352
 -4.00445614 -3.98061493 -3.94160204 -3.88525009 -3.81589385 -3.73786808
 -3.65550754 -3.57531438]",2.5779819975144314,0.7245560116691717,4.373285000000001,0.08439999999999959
010,1,1,csp,45a.png,1,1,100,107,100,1,0,261,neg_feedback_onset,9,"[ 2.49513556  2.24515329  1.97113426  1.68269317  1.38704106  1.08898528
  0.79573684  0.51210311  0.24289143 -0.01430187 -0.25707312 -0.48542231
 -0.7041568  -0.91808393 -1.12720372 -1.33632351 -1.55265432 -1.77379248
 -2.00694903 -2.24491292 -2.49008784 -2.73766644 -2.98284136 -3.22080526
 -3.4443471  -3.65346688 -3.84095359 -4.00440353 -4.14381672 -4.26159683
 -4.36014754 -4.44187251 -4.51398278 -4.57647835 -4.63657024 -4.69666214
 -4.75675403 -4.81684592 -4.87693781 -4.93702971 -4.9971216  -5.05480982
 -5.10769068 -5.15576419 -5.20143403 -5.24229652 -5.28075533 -5.31200312
 -5.34084722 -5.3624803  -5.38170971 -5.39132441 -5.39372809 -5.39132441
 -5.37930603 -5.35767295 -5.32882885 -5.29277371 -5.24950755 -5.20143403
 -5.14855317 -5.08846127 -5.02356203 -4.95145176 -4.87213046 -4.78079079
 -4.67502905 -4.55484527 -4.41783575 -4.25919316 -4.08132116 -3.88181607
 -3.66548526 -3.42992504 -3.17753909 -2.91553844 -2.64151941 -2.36028935
 -2.07425195 -1.78340719 -1.49256243 -1.20171767 -0.91087291 -0.62243182
 -0.33639441 -0.05516436  0.22125835  0.49768105  0.76929641  1.03610441
  1.30291241  1.56491307  1.82451004  2.07689599  2.32207091  2.5504201
  2.76194356  2.94702659  3.10326551  3.22104562  3.29796325  3.33401838
  3.32680735  3.28354119  3.20421989  3.09605449  2.97346703  2.84126486
  2.71146637  2.58887891  2.48552086  2.40379588  2.34370399  2.31005253
  2.29803415  2.30284151  2.32207091  2.35091502  2.37975913  2.40860324
  2.43023632  2.4422547   2.44465837  2.43263999  2.41341059  2.3821628
  2.34130032  2.29803415  2.25236432  2.2042908   2.16102464  2.12256583
  2.09131804  2.06728129  2.05285923  2.04564821  2.05045556  2.06247394
  2.08410702  2.1153548   2.15140994  2.19707977  2.24996064  2.30764886
  2.3725481   2.44465837  2.52397967  2.60810832  2.699448    2.79559502
  2.89895308  3.00711849  3.12249492  3.2426787   3.36766984  3.49506465
  3.62245947  3.75225795  3.87724909  3.99743287  4.11280931  4.22097471
  4.32433277  4.42288347  4.51422315  4.60075548  4.68488412  4.76420542
  4.83871937  4.90602229  4.96371051  5.00938034  5.0430318   5.05745386
  5.05505018  5.0334171   4.99495829  4.93967375  4.87237083  4.79785688
  4.71853558  4.63681061  4.55748931  4.48057169  4.40605774  4.33635115
  4.2714519   4.20895634  4.14646077  4.0839652   4.02387331  3.96858877
  3.9157079   3.87003806  3.83398293  3.80994617  3.79792779  3.79792779
  3.80754249  3.8267719   3.84840498  3.87484541  3.89647849  3.9157079
  3.93012995  3.93734098  3.94455201  3.94695568  3.95416671  3.96858877
  3.99262552  4.02627698  4.0743505   4.13203871  4.19934163  4.26904823
  4.33635115  4.39884672  4.44932391  4.48297537  4.49739742  4.49499374
  4.47576434  4.44211288  4.39884672  4.3507732   4.30510336  4.2618372
  4.22818574  4.20655266  4.19934163  4.20895634  4.23299309  4.2714519
  4.32673645  4.39884672  4.48778272  4.59114077  4.70651721  4.83631569
  4.97092153  5.1127384   5.25455527  5.38916111  5.51174857  5.61510662
  5.69202424  5.73529041  5.74490511  5.71365732  5.63914338  5.52617062
  5.37714273  5.19446337  4.99015094  4.76901277  4.54066358  4.31471807
  4.10319461  3.91330422]","[-4.71028604 -4.23428102 -3.73231209 -3.21303388 -2.67861007 -2.13553161
 -1.58812584 -1.04072007 -0.50196893  0.03029123  0.54307845  1.03855641
  1.50590679  1.94296594  2.34540655  2.71106495  3.03777749  3.3233805
  3.57220131  3.78423991  3.96165996  4.10878878  4.22779004  4.32082738
  4.38790082  4.42901034  4.44415596  4.42684668  4.38140984  4.30135445
  4.18668051  4.03738803  3.853477    3.63927474  3.39694491  3.13081483
  2.84737548  2.55095417  2.24804189  1.93863863  1.63139902  1.32848674
  1.03206543  0.7421351   0.46518672  0.19905664 -0.05409148 -0.28776667
 -0.50196893 -0.69237094 -0.85897269 -0.99961054 -1.11428448 -1.2029945
 -1.26790428 -1.31334112 -1.34146869 -1.35445065 -1.35877797 -1.35877797
 -1.35228699 -1.34795967 -1.34363235 -1.34146869 -1.34363235 -1.35228699
 -1.36526894 -1.38690553 -1.41719676 -1.45397897 -1.50157947 -1.55783461
 -1.62274439 -1.69847246 -1.78285516 -1.87589251 -1.97542083 -2.08144013
 -2.19178675 -2.30862435 -2.42546194 -2.5444632  -2.66562811 -2.78462937
 -2.90146696 -3.01181358 -3.11783288 -3.21303388 -3.29958025 -3.36881734
 -3.42074516 -3.45536371 -3.46834567 -3.45969103 -3.42723614 -3.37530832
 -3.30174391 -3.20870656 -3.10052361 -2.97719503 -2.84521182 -2.70457398
 -2.56177247 -2.41897096 -2.28482409 -2.16365918 -2.05980354 -1.98407547
 -1.93647497 -1.92349301 -1.94729326 -2.00571206 -2.09658575 -2.21342334
 -2.34757021 -2.49037172 -2.6288459  -2.7565018  -2.86035744 -2.93392185
 -2.97503137 -2.97719503 -2.9469038  -2.88199403 -2.78895668 -2.67211909
 -2.53797222 -2.39084339 -2.23505993 -2.07494915 -1.91483837 -1.75256394
 -1.59245316 -1.4366697  -1.28521355 -1.13808473 -0.99311956 -0.85248172
 -0.71400753 -0.57553334]",4.86884043078677,2.523042970271315,4.160295,0.022644999999999804
010,1,1,csm,53b.png,1,1,308,237,309,1,1,327,neu_feedback_onset,10,"[ 0.01036869  0.05789187  0.10541505  0.15293823  0.19614112  0.23502372
  0.26742589  0.28902733  0.29550776  0.28686719  0.25878531  0.20910198
  0.13997736  0.04925129 -0.06091607 -0.1883646  -0.33309428 -0.48862468
 -0.6549558  -0.82776736 -1.00273906 -1.17987091 -1.35700276 -1.53197446
 -1.70262587 -1.868957   -2.02664754 -2.17569751 -2.31394676 -2.43923514
 -2.55156265 -2.64876915 -2.7286945  -2.79133868 -2.83454157 -2.86046331
 -2.86910389 -2.86046331 -2.83238143 -2.78917854 -2.73085464 -2.65956987
 -2.57316409 -2.47379745 -2.36363008 -2.24050184 -2.11089318 -1.97480407
 -1.83439468 -1.69182515 -1.5535759  -1.42180709 -1.30299914 -1.19931221
 -1.11506658 -1.05242239 -1.01569993 -1.00489921 -1.01786007 -1.05242239
 -1.10426585 -1.17339048 -1.25115568 -1.33540131 -1.41964695 -1.49957229
 -1.57517735 -1.63998168 -1.69614544 -1.74150847 -1.77391064 -1.79767223
 -1.8106331  -1.81711353 -1.81711353 -1.81279324 -1.80199252 -1.78903165
 -1.77391064 -1.75662948 -1.73718818 -1.71342659 -1.68750486 -1.65294255
 -1.61405995 -1.56437663 -1.50389258 -1.43044767 -1.34404189 -1.24467524
 -1.12802744 -0.99841877 -0.85584924 -0.70463913 -0.54694858 -0.38493774
 -0.2272472  -0.07603709  0.06005202  0.17885996  0.27174617  0.33871065
  0.37327296  0.37327296  0.3408708   0.27390632  0.17885996  0.05789187
 -0.08467766 -0.24452835 -0.41733991 -0.59879205 -0.78456447 -0.97465719
 -1.16258975 -1.35052232 -1.5341346  -1.71126645 -1.87975772 -2.03528812
 -2.17569751 -2.29882575 -2.39819239 -2.47811774 -2.53428149 -2.57100395
 -2.59044525 -2.59692568 -2.59260539 -2.58396482 -2.57316409 -2.56236337
 -2.55588294 -2.5494025  -2.54508222 -2.54076193 -2.53644164 -2.52564091
 -2.51268005 -2.4910786  -2.46515687 -2.4327547  -2.39603225 -2.35714965
 -2.31826705 -2.2772243  -2.24050184 -2.20809968 -2.17785766 -2.14977578
 -2.12385404 -2.09145188 -2.05472942 -2.0050461  -1.94240191 -1.86031642
 -1.76310992 -1.64430197 -1.51253316 -1.36780348 -1.21443322 -1.05890282
 -0.90337242 -0.7521623  -0.60743263 -0.46702323 -0.32877399 -0.19052474
 -0.04579506  0.10541505  0.26526574  0.43375701  0.60224828  0.76641926
  0.91330908  1.03643732  1.12068295  1.15956555  1.14444454  1.07099963
  0.94139096  0.75561854  0.52448308  0.25446502 -0.04147477 -0.35253558
 -0.66791667 -0.97681733 -1.27275712 -1.54925561 -1.80199252 -2.02880769
 -2.22970112 -2.40467282 -2.55372279 -2.67469088 -2.77189738 -2.8453423
 -2.89070533 -2.90798649 -2.90150605 -2.86910389 -2.81077998 -2.73085464
 -2.63364814 -2.52348077 -2.40683297 -2.29018517 -2.1800178  -2.08497144
 -2.00720624 -1.95320263 -1.9272809  -1.93160119 -1.9661635  -2.02880769
 -2.11953375 -2.23402141 -2.36579022 -2.51268005 -2.67037059 -2.83022129
 -2.99007198 -3.14344223 -3.28385162 -3.41130015 -3.51714723 -3.59923272
 -3.65107618 -3.67267763 -3.66187691 -3.61435373 -3.53658853 -3.42642116
 -3.29465235 -3.14560238 -2.98791183 -2.83238143 -2.68549161 -2.55588294
 -2.45435615 -2.38307138 -2.34634892 -2.34418878 -2.37227066 -2.43059456
 -2.50835976 -2.59908583 -2.69413218 -2.7870184  -2.86694374 -2.92526764
 -2.9619901  -2.96847053 -2.94470894 -2.89286547 -2.81510027 -2.71573363
 -2.60124597 -2.47811774]","[ -2.23351116  -1.90239471  -1.57781346  -1.27065938  -0.98964608
  -0.74130874  -0.52782576  -0.34701875  -0.19453091  -0.06164865
   0.06252001   0.18886708   0.33264133   0.50255635   0.70950413
   0.96001987   1.24974676   1.57868481   1.94029883   2.32151843
   2.71145162   3.09484961   3.45864203   3.78975848   4.07730698
   4.31257393   4.48902414   4.60447922   4.66547436   4.66983115
   4.6284416    4.54784088   4.4345642    4.29732515   4.13612372
   3.9596735    3.76361771   3.54577794   3.30397579   3.03385448
   2.7267004    2.38251357   2.00347237   1.5873984    1.14082688
   0.67464977   0.19758067  -0.27731003  -0.73913034  -1.17263148
  -1.57345666  -1.92853549  -2.23568956  -2.49709729  -2.70840186
  -2.87831688  -3.01337754  -3.12011903  -3.20507654  -3.27696366
  -3.34231559  -3.40113233  -3.45777067  -3.51223061  -3.56669056
  -3.6167937   -3.66471845  -3.70828641  -3.74314077  -3.77363834
  -3.79760071  -3.8106711   -3.81938469  -3.81720629  -3.8084927
  -3.78888712  -3.75621116  -3.7126432   -3.65164807  -3.57758254
  -3.48391144  -3.37499156  -3.25082289  -3.11576223  -2.97198798
  -2.82385694  -2.67790429  -2.53848684  -2.40996138  -2.2966847
  -2.1986568   -2.12023448  -2.05706095  -2.013493    -1.98299543
  -1.96556825  -1.95685466  -1.95249786  -1.94814106  -1.93942747
  -1.92200029  -1.89368112  -1.84575637  -1.77822604  -1.68891174
  -1.57563506  -1.4405744   -1.28808656  -1.12034994  -0.95261331
  -0.78705509  -0.63892405  -0.51911217  -0.43851146  -0.40365709
  -0.42544107  -0.50604179  -0.64981603  -0.85676382  -1.12252834
  -1.4449312   -1.8152588   -2.23133277  -2.68226109  -3.16150858
  -3.66689685  -4.1918907   -4.72777653  -5.27455435  -5.82786737
  -6.38335878  -6.9344934   -7.47909283  -8.01280026  -8.52908052
  -9.0213984   -9.48757551  -9.92107665 -10.31754503 -10.67480226]",-0.5081199830644845,2.4751499282217915,4.629320000000001,-0.13480000000000025
010,1,1,csm,65b.png,1,1,60,207,60,1,1,271,neu_feedback_onset,11,"[ 1.26978839e+00  9.91315115e-01  7.52623740e-01  5.46255156e-01
  3.67236625e-01  2.13081779e-01  7.88178810e-02 -3.80414378e-02
 -1.42468914e-01 -2.31978180e-01 -3.06569234e-01 -3.66242078e-01
 -4.10996711e-01 -4.40833132e-01 -4.53264975e-01 -4.45805869e-01
 -4.20942184e-01 -3.81160289e-01 -3.26460182e-01 -2.54355496e-01
 -1.74791704e-01 -8.27960705e-02  1.16859319e-02  1.11140671e-01
  2.08109042e-01  3.02591045e-01  3.87127573e-01  4.64204996e-01
  5.28850577e-01  5.83550683e-01  6.28305316e-01  6.65600843e-01
  7.00410002e-01  7.32732792e-01  7.72514688e-01  8.19755689e-01
  8.79428533e-01  9.56505956e-01  1.04850159e+00  1.15790180e+00
  1.28222023e+00  1.41399776e+00  1.55323439e+00  1.68998466e+00
  1.82176219e+00  1.94359424e+00  2.05050809e+00  2.14001735e+00
  2.21709478e+00  2.28422673e+00  2.34141320e+00  2.39611331e+00
  2.45329978e+00  2.51545900e+00  2.59253642e+00  2.68453205e+00
  2.79144590e+00  2.91576432e+00  3.05251459e+00  3.20418307e+00
  3.36579702e+00  3.53238371e+00  3.70642950e+00  3.88047529e+00
  4.05452109e+00  4.22856688e+00  4.39763994e+00  4.56422663e+00
  4.72086784e+00  4.87004995e+00  5.00928659e+00  5.13111864e+00
  5.23803249e+00  5.32505538e+00  5.39218733e+00  5.43694197e+00
  5.46180565e+00  5.46677839e+00  5.45186018e+00  5.42451012e+00
  5.38721460e+00  5.34245996e+00  5.29521896e+00  5.24797796e+00
  5.20819607e+00  5.17587327e+00  5.15349596e+00  5.14355048e+00
  5.15100959e+00  5.17835964e+00  5.22560064e+00  5.29770533e+00
  5.39716007e+00  5.52147849e+00  5.67811971e+00  5.86211098e+00
  6.07345230e+00  6.30468457e+00  6.55580778e+00  6.81190374e+00
  7.07297243e+00  7.32409565e+00  7.56527339e+00  7.78407382e+00
  7.98298329e+00  8.15205635e+00  8.29626572e+00  8.41312504e+00
  8.50512068e+00  8.57225262e+00  8.61949363e+00  8.64684368e+00
  8.65927552e+00  8.65678915e+00  8.64435731e+00  8.62446636e+00
  8.59960268e+00  8.57971173e+00  8.56479352e+00  8.56230715e+00
  8.57971173e+00  8.61700726e+00  8.67916647e+00  8.76370300e+00
  8.87310321e+00  9.00488074e+00  9.15406285e+00  9.31567680e+00
  9.48474986e+00  9.65879565e+00  9.83532782e+00  1.00143463e+01
  1.01908785e+01  1.03723834e+01  1.05563747e+01  1.07428523e+01
  1.09392754e+01  1.11406713e+01  1.13470399e+01  1.15558948e+01
  1.17622634e+01  1.19611729e+01  1.21426778e+01  1.23067781e+01
  1.24435284e+01  1.25504422e+01  1.26250333e+01  1.26697879e+01
  1.26847061e+01  1.26747606e+01  1.26474106e+01  1.26051423e+01
  1.25579013e+01  1.25081739e+01  1.24659057e+01  1.24310965e+01
  1.24087192e+01  1.24012601e+01  1.24112056e+01  1.24385556e+01
  1.24857966e+01  1.25504422e+01  1.26324924e+01  1.27369198e+01
  1.28612383e+01  1.30079340e+01  1.31770071e+01  1.33684574e+01
  1.35822851e+01  1.38160038e+01  1.40646406e+01  1.43232229e+01
  1.45892644e+01  1.48553058e+01  1.51089154e+01  1.53451204e+01
  1.55564617e+01  1.57329939e+01  1.58697441e+01  1.59642261e+01
  1.60114671e+01  1.60114671e+01  1.59691989e+01  1.58846623e+01
  1.57653167e+01  1.56186209e+01  1.54545206e+01  1.52755021e+01
  1.50964835e+01  1.49199514e+01  1.47558510e+01  1.46016962e+01
  1.44649459e+01  1.43406275e+01  1.42262546e+01  1.41168543e+01
  1.39999950e+01  1.38707039e+01  1.37215218e+01  1.35425032e+01
  1.33286755e+01  1.30800387e+01  1.27941063e+01  1.24783375e+01
  1.21352187e+01  1.17771816e+01  1.14116854e+01  1.10511620e+01
  1.07030704e+01  1.03773561e+01  1.00789919e+01  9.81543687e+00
  9.58669097e+00  9.39524059e+00  9.23611301e+00  9.10682185e+00
  9.00239437e+00  8.92283058e+00  8.86067137e+00  8.81094400e+00
  8.77613484e+00  8.75127116e+00  8.73883931e+00  8.73386658e+00
  8.73883931e+00  8.75127116e+00  8.77116210e+00  8.79353942e+00
  8.81840310e+00  8.84078042e+00  8.86067137e+00  8.87061684e+00
  8.87061684e+00  8.85818500e+00  8.83829405e+00  8.80845763e+00
  8.77364847e+00  8.73635294e+00  8.70154379e+00  8.67170736e+00
  8.65430278e+00  8.64933005e+00  8.65927552e+00  8.68413921e+00
  8.72392110e+00  8.77862121e+00  8.84326679e+00  8.91785784e+00
  9.00488074e+00  9.09936274e+00  9.20130385e+00  9.31319043e+00
  9.43750886e+00  9.57674549e+00  9.73090034e+00  9.90245976e+00
  1.00939101e+01  1.03102242e+01  1.05514019e+01  1.08174434e+01]","[-0.88704396 -0.77447218 -0.65973556 -0.54066926 -0.42160296 -0.3047015
 -0.18996488 -0.08172278  0.02002479  0.11094815  0.19321214  0.26032224
  0.31660813  0.36206981  0.39670728  0.42052054  0.43567443  0.44649864
  0.44866348  0.44866348  0.4443338   0.43783927  0.43134475  0.42485022
  0.42268538  0.42268538  0.4291799   0.44000411  0.45515801  0.47680643
  0.50061969  0.52010326  0.53309231  0.53092747  0.50711421  0.45515801
  0.36639949  0.23867382  0.06548647 -0.15099772 -0.41077875 -0.70519724
 -1.02775869 -1.36763886 -1.71184872 -2.04739921 -2.36346613 -2.64706042
 -2.89385239 -3.09734753 -3.25754583 -3.37444729 -3.45021675 -3.49567843
 -3.51083233 -3.5043378  -3.48268938 -3.44805191 -3.40691992 -3.36145824
 -3.31166687 -3.26404035 -3.21641383 -3.17528184 -3.14064437 -3.11899595
 -3.11250142 -3.12765531 -3.16662247 -3.23373257 -3.33548013 -3.47186517
 -3.64288768 -3.8507125  -4.08884511 -4.35945035 -4.651704   -4.96560607
 -5.2924972  -5.62371801 -5.9592685  -6.28832447 -6.60872107 -6.91829346
 -7.21271195 -7.49197655 -7.75392242 -7.99854956 -8.2280228  -8.4401773
 -8.63501307 -8.8125301  -8.97056356 -9.10478376 -9.2151907  -9.29528985
 -9.34508121 -9.3602351  -9.34291637 -9.29096016 -9.21086101 -9.10261892
 -8.9727284  -8.827684   -8.67398022 -8.51594677 -8.35574847 -8.19771501
 -8.04184639 -7.89030746 -7.74309821 -7.59805381 -7.4530094  -7.31012984
 -7.16725027 -7.02653555 -6.88582083 -6.74943579 -6.61521559 -6.48748992
 -6.36409393 -6.24286279 -6.12812617 -6.01338955 -5.90081777 -5.79041083
 -5.68216874 -5.57392664 -5.46784939 -5.36826667 -5.27517846 -5.18858479
 -5.11281532 -5.05003491 -4.99591386 -4.95694671 -4.92880376 -4.91148503
 -4.90715534 -4.91148503]",14.481915398825956,-0.34193677579273957,4.021929999999999,-0.524095
010,1,1,csm,38b.png,1,1,292,267,293,1,1,285,neu_feedback_onset,12,"[-1.72604195e-01 -2.23405709e-01 -2.45177787e-01 -2.45177787e-01
 -2.23405709e-01 -1.84699793e-01 -1.36317398e-01 -8.06776438e-02
 -2.26187697e-02  3.30209847e-02  8.14033798e-02  1.24947535e-01
  1.56396092e-01  1.75749050e-01  1.85425529e-01  1.85425529e-01
  1.78168170e-01  1.61234332e-01  1.39462254e-01  1.12851937e-01
  7.89842600e-02  4.02783439e-02 -5.68493142e-03 -5.89055660e-02
 -1.19383560e-01 -1.94376272e-01 -2.81464583e-01 -3.80648493e-01
 -4.91928002e-01 -6.15303110e-01 -7.45935576e-01 -8.83825402e-01
 -1.02413435e+00 -1.15718593e+00 -1.28298016e+00 -1.39184055e+00
 -1.47892886e+00 -1.53456862e+00 -1.55634069e+00 -1.53940686e+00
 -1.47409062e+00 -1.36039199e+00 -1.19831097e+00 -9.83009312e-01
 -7.19325259e-01 -4.09677930e-01 -6.13246858e-02  3.18477116e-01
  7.17631875e-01  1.12646311e+00  1.53045611e+00  1.92235351e+00
  2.29005972e+00  2.62631736e+00  2.92870733e+00  3.18997226e+00
  3.41253128e+00  3.59880350e+00  3.75604629e+00  3.89151699e+00
  4.01489210e+00  4.12859073e+00  4.24712760e+00  4.37292182e+00
  4.51323077e+00  4.66805444e+00  4.84223106e+00  5.03334152e+00
  5.23654758e+00  5.44701100e+00  5.66473177e+00  5.88003343e+00
  6.08565861e+00  6.27918819e+00  6.45578393e+00  6.60818848e+00
  6.73640183e+00  6.83800486e+00  6.91299757e+00  6.96137996e+00
  6.98799028e+00  6.99524764e+00  6.99040940e+00  6.97347556e+00
  6.95170348e+00  6.92751229e+00  6.91057845e+00  6.90090197e+00
  6.90090197e+00  6.91541669e+00  6.94202700e+00  6.98557116e+00
  7.04121091e+00  7.10894627e+00  7.19119634e+00  7.28070377e+00
  7.37504944e+00  7.47665247e+00  7.57825550e+00  7.67743941e+00
  7.77178508e+00  7.86371163e+00  7.94596170e+00  8.02095442e+00
  8.08627065e+00  8.14674864e+00  8.19513104e+00  8.23867519e+00
  8.27012375e+00  8.29431495e+00  8.30882967e+00  8.31124879e+00
  8.30399143e+00  8.28705759e+00  8.26044727e+00  8.22416047e+00
  8.17819720e+00  8.12739568e+00  8.06933681e+00  8.00643970e+00
  7.93870434e+00  7.86613075e+00  7.78629980e+00  7.69921149e+00
  7.60486582e+00  7.49842455e+00  7.38230680e+00  7.25651257e+00
  7.11620363e+00  6.96863732e+00  6.81139454e+00  6.64447527e+00
  6.47513689e+00  6.29854115e+00  6.12436453e+00  5.95260702e+00
  5.78568776e+00  5.62844498e+00  5.48087867e+00  5.34782709e+00
  5.23170934e+00  5.13010631e+00  5.04785624e+00  4.98254000e+00
  4.93173849e+00  4.89545169e+00  4.87367961e+00  4.85916490e+00
  4.85190754e+00  4.84948842e+00  4.84948842e+00  4.84948842e+00
  4.84948842e+00  4.85190754e+00  4.85674578e+00  4.86400314e+00
  4.87851785e+00  4.90512817e+00  4.94383409e+00  4.99947384e+00
  5.07688567e+00  5.17606958e+00  5.30186381e+00  5.45426836e+00
  5.62844498e+00  5.82681280e+00  6.04453358e+00  6.27676907e+00
  6.51626193e+00  6.76059302e+00  7.00008588e+00  7.23232138e+00
  7.45004215e+00  7.64840997e+00  7.82742483e+00  7.98224850e+00
  8.11288097e+00  8.21932224e+00  8.30882967e+00  8.38140326e+00
  8.44188125e+00  8.49752101e+00  8.55799900e+00  8.62573435e+00
  8.70798443e+00  8.81200658e+00  8.94021992e+00  9.09262447e+00
  9.26680109e+00  9.46033067e+00  9.66111761e+00  9.86674279e+00
  1.00651106e+01  1.02465446e+01  1.04062065e+01  1.05344198e+01
  1.06336038e+01  1.07037582e+01  1.07448833e+01  1.07618171e+01
  1.07642362e+01  1.07569789e+01  1.07424641e+01  1.07279494e+01
  1.07158538e+01  1.07085965e+01  1.07037582e+01  1.07013391e+01
  1.07013391e+01  1.07013391e+01  1.07061773e+01  1.07110156e+01
  1.07206921e+01  1.07327877e+01  1.07521406e+01  1.07763318e+01
  1.08005230e+01  1.08271333e+01  1.08489054e+01  1.08610010e+01
  1.08561628e+01  1.08368098e+01  1.07956848e+01  1.07352068e+01
  1.06577949e+01  1.05707066e+01  1.04811992e+01  1.03941109e+01
  1.03215373e+01  1.02683167e+01  1.02417064e+01  1.02441255e+01
  1.02755740e+01  1.03384711e+01  1.04231403e+01  1.05344198e+01
  1.06626332e+01  1.08077804e+01  1.09650232e+01  1.11319424e+01
  1.13109573e+01  1.14948104e+01  1.16859208e+01  1.18770313e+01
  1.20705609e+01  1.22616713e+01  1.24455244e+01  1.26172819e+01
  1.27745247e+01  1.29148337e+01  1.30285323e+01  1.31156206e+01
  1.31736795e+01  1.31978707e+01  1.31857751e+01  1.31398118e+01
  1.30575617e+01  1.29462822e+01  1.28059733e+01  1.26438923e+01]","[-1.75612667 -1.49321634 -1.23716455 -0.99025746 -0.75706743 -0.53759446
 -0.33412473 -0.15123059  0.01566031  0.16197562  0.2922877   0.40659653
  0.50718831  0.59863538  0.68322392  0.76095393  0.83868394  0.91641395
  0.99643014  1.0787325   1.16560721  1.25476811  1.343929    1.43537607
  1.52453696  1.61141168  1.68914169  1.75772699  1.81716759  1.8651773
  1.9040423   1.92919025  1.94519348  1.95433819  1.95662437  1.95433819
  1.94976584  1.94290731  1.93604878  1.93147642  1.92690407  1.92461789
  1.92233172  1.92461789  1.92919025  1.93833495  1.95433819  1.97948614
  2.01606496  2.06407468  2.12808762  2.20581763  2.29955088  2.40700119
  2.5235962   2.64247739  2.75678623  2.85966418  2.94425272  3.00140714
  3.02884126  3.01969656  2.97397302  2.89395683  2.78422035  2.64933592
  2.49616208  2.33612971  2.17152498  2.01149261  1.86289112  1.72800669
  1.6091255   1.50853373  1.42623136  1.35993224  1.30963635  1.2753437
  1.25248193  1.24333722  1.2456234   1.25705428  1.2753437   1.30277782
  1.33249812  1.36679077  1.40108342  1.43080372  1.45595166  1.46966872
  1.4719549   1.46052401  1.42851754  1.3736493   1.29820547  1.19532751
  1.06501544  0.90498307  0.71980275  0.50261596  0.26028122 -0.00720146
 -0.29983208 -0.60846594 -0.93538922 -1.26917102 -1.60981136 -1.94816551
 -2.27966114 -2.59972589 -2.90150122 -3.18270096 -3.44332511 -3.67880131
 -3.88912957 -4.07659607 -4.24120079 -4.3875161  -4.51325582 -4.62527848
 -4.72587026 -4.81503115 -4.90190587 -4.98192206 -5.06193824 -5.14195443
 -5.22197062 -5.29970063 -5.37743063 -5.45058829 -5.51460124 -5.56946948
 -5.61290684 -5.63805478 -5.64491331 -5.63576861 -5.60604831 -5.55575242
 -5.4894533  -5.40943711]",12.096723217174826,2.1572363781016537,4.133735,-0.2564200000000003
010,1,1,csm,52b.png,1,1,56,258,55,1,1,467,neu_feedback_onset,13,"[-1.02927515 -0.91112743 -0.78602984 -0.65398239 -0.51961831 -0.38757086
 -0.25784003 -0.13737568 -0.02386121  0.08038678  0.17536828  0.2610833
  0.33753182  0.40703048  0.46726266  0.52286158  0.5668774   0.60394335
  0.63174282  0.65259242  0.6618589   0.6618589   0.65259242  0.63637606
  0.61552646  0.59004362  0.55992754  0.53212807  0.50201199  0.47421252
  0.4510463   0.42788008  0.41166373  0.397764    0.39081413  0.39081413
  0.397764    0.41398035  0.43482995  0.46726266  0.50432861  0.54834443
  0.59699349  0.64795917  0.69892486  0.75220716  0.80085622  0.84718866
  0.89120448  0.9352203   0.9769195   1.02556856  1.08580073  1.15993263
  1.25954738  1.38464497  1.54449188  1.74140475  1.97538357  2.24411173
  2.54527259  2.86959966  3.20319323  3.53910342  3.85879726  4.15532487
  4.41246991  4.62328251  4.77849619  4.88042756  4.92676     4.92212675
  4.87579431  4.7900793   4.67888144  4.54915061  4.40320342  4.25030637
  4.09045946  3.92597929  3.75223264  3.56921951  3.37462326  3.16612728
  2.94836481  2.72365248  2.4943069   2.26727795  2.04951548  1.84565274
  1.66263961  1.50510931  1.3776951   1.2827136   1.22479805  1.20626507
  1.22943129  1.29892995  1.41012781  1.56302486  1.75298786  1.97306695
  2.21631226  2.46650744  2.71206937  2.94373157  3.14527768  3.30744122
  3.42327232  3.48118787  3.47655463  3.40705597  3.27269189  3.07577902
  2.81631736  2.50357339  2.14449698  1.74835462  1.32904604  0.89583773
  0.46494603  0.04332083 -0.35745477 -0.72811429 -1.05939124 -1.35128561
 -1.59453092 -1.79607703 -1.94897408 -2.06017194 -2.13198722 -2.16673655
 -2.16905317 -2.14357033 -2.09028803 -2.0138395  -1.918858   -1.8030269
 -1.67329607 -1.52503226 -1.36286872 -1.18912207 -1.00610893 -0.81614593
 -0.62154968 -0.42232019 -0.2230907  -0.02386121  0.17305166  0.36996453
  0.56224416  0.75220716  0.93985354  1.1251833   1.30587982  1.48425971
  1.66032298  1.83406963  2.00549966  2.17692969  2.35067634  2.52673961
  2.70280288  2.8834994   3.06882916  3.25415892  3.4418053   3.62713506
  3.80551495  3.9792616   4.14142514  4.28968895  4.42405302  4.54220074
  4.64413211  4.73216375  4.80397903  4.86189458  4.91054364  4.94760959
  4.97540906  4.99625866  5.01015839  5.01710825  5.01710825  5.01015839
  4.99625866  4.97309244  4.94065973  4.89896053  4.84799485  4.7900793
  4.72058064  4.64413211  4.56073372  4.47038546  4.37308734  4.27115597
  4.16690798  4.06034337  3.95377876  3.85184739  3.75454927  3.67115087
  3.59933559  3.54605329  3.51362058  3.50667071  3.52288707  3.56458626
  3.62945168  3.71748331  3.8217313   3.93524578  4.05571013  4.17617447
  4.29200557  4.39625356  4.48428519  4.5584171   4.61401603  4.6533986
  4.67888144  4.69278117  4.69973104  4.69741442  4.6950978   4.68814793
  4.68351469  4.67888144  4.67656482  4.6742482   4.67193158  4.67193158
  4.67193158  4.67656482  4.68583131  4.69973104  4.72289726  4.75764659
  4.80166241  4.85957796  4.92676     5.00552514  5.09355678  5.18853828
  5.28815303  5.38776777  5.48738252  5.58468064  5.67734552  5.76537716
  5.84645893  5.92290745  5.99240611  6.05495491  6.11055383  6.16151952
  6.20553534  6.24260129]","[-2.98348751e+00 -2.67714974e+00 -2.36199648e+00 -2.04243550e+00
 -1.71846677e+00 -1.38788643e+00 -1.05289836e+00 -7.13502554e-01
 -3.76310613e-01 -3.91186728e-02  2.93665530e-01  6.17634257e-01
  9.28379771e-01  1.22369820e+00  1.49697794e+00  1.74821900e+00
  1.97742136e+00  2.18017730e+00  2.36309842e+00  2.52398085e+00
  2.66943620e+00  2.79726059e+00  2.91406564e+00  3.01764748e+00
  3.10800610e+00  3.18293765e+00  3.24023824e+00  3.27109240e+00
  3.27550014e+00  3.24684984e+00  3.18734538e+00  3.09257902e+00
  2.96695850e+00  2.81268767e+00  2.63417429e+00  2.44023383e+00
  2.23086629e+00  2.01488713e+00  1.79450025e+00  1.57411336e+00
  1.35593034e+00  1.13995118e+00  9.28379771e-01  7.23419964e-01
  5.25071763e-01  3.35539039e-01  1.57025659e-01 -1.04683772e-02
 -1.60331462e-01 -2.90359726e-01 -4.00553171e-01 -4.86504058e-01
 -5.48212387e-01 -5.83474289e-01 -5.94493634e-01 -5.83474289e-01
 -5.54823994e-01 -5.06338878e-01 -4.46834418e-01 -3.78514482e-01
 -3.05786809e-01 -2.33059135e-01 -1.62535331e-01 -1.00827002e-01
 -4.79341484e-02 -1.26722461e-02  7.16257390e-03  4.95870501e-03
 -1.70799839e-02 -6.33612306e-02 -1.33885035e-01 -2.26447529e-01
 -3.41048711e-01 -4.75484713e-01 -6.27551667e-01 -7.95045703e-01
 -9.75762952e-01 -1.16749955e+00 -1.36805161e+00 -1.57301142e+00
 -1.78678670e+00 -2.00276586e+00 -2.22315274e+00 -2.44574350e+00
 -2.67274200e+00 -2.89974049e+00 -3.13114673e+00 -3.36034909e+00
 -3.58955146e+00 -3.81434608e+00 -4.03693684e+00 -4.25071213e+00
 -4.45787580e+00 -4.65622400e+00 -4.84355286e+00 -5.01986237e+00
 -5.18735640e+00 -5.34603496e+00 -5.49149031e+00 -5.63033405e+00
 -5.75815845e+00 -5.87496350e+00 -5.98074921e+00 -6.07551557e+00
 -6.15926259e+00 -6.22758252e+00 -6.28267924e+00 -6.32455275e+00
 -6.35099918e+00 -6.36642626e+00 -6.37083400e+00 -6.36642626e+00
 -6.35540692e+00 -6.33997983e+00 -6.32014501e+00 -6.29590246e+00
 -6.26945603e+00 -6.24300960e+00 -6.21215544e+00 -6.17468967e+00
 -6.13281616e+00 -6.08433104e+00 -6.02482658e+00 -5.95430278e+00
 -5.87496350e+00 -5.78240100e+00 -5.67661530e+00 -5.55981025e+00
 -5.42978198e+00 -5.29093824e+00 -5.14107516e+00 -4.98239660e+00
 -4.81710643e+00 -4.64740853e+00 -4.47991449e+00 -4.31242045e+00
 -4.15374189e+00 -4.00608268e+00 -3.87164668e+00 -3.75263776e+00]",5.540995770179165,1.889101317362637,4.316630000000001,-0.2431599999999996
010,1,1,csm,21b.png,1,1,28,294,27,1,1,419,neu_feedback_onset,14,"[ 1.03681237e+00  8.57848620e-01  6.78884867e-01  5.04630687e-01
  3.39795652e-01  1.86734547e-01  4.78021603e-02 -7.22919370e-02
 -1.71192958e-01 -2.51255690e-01 -3.10125345e-01 -3.50156711e-01
 -3.71349787e-01 -3.76059359e-01 -3.66640215e-01 -3.47801925e-01
 -3.17189704e-01 -2.81867911e-01 -2.39481759e-01 -1.97095607e-01
 -1.54709455e-01 -1.12323303e-01 -7.46467232e-02 -3.93249299e-02
 -1.10674952e-02  1.01255807e-02  2.66090843e-02  3.36734430e-02
  3.36734430e-02  2.66090843e-02  1.48351532e-02 -1.64835035e-03
 -2.51962126e-02 -5.10988610e-02 -8.17110819e-02 -1.17032875e-01
 -1.52354668e-01 -1.90031248e-01 -2.27707828e-01 -2.63029621e-01
 -2.88932269e-01 -3.00706200e-01 -2.98351414e-01 -2.72448766e-01
 -2.20643469e-01 -1.40580737e-01 -2.75509988e-02  1.13736174e-01
  2.87990355e-01  4.88147184e-01  7.14206661e-01  9.63814000e-01
  1.22990484e+00  1.51247919e+00  1.80918225e+00  2.11530446e+00
  2.42849103e+00  2.74638717e+00  3.06428331e+00  3.37746988e+00
  3.67888251e+00  3.96381165e+00  4.22754770e+00  4.46538111e+00
  4.67495708e+00  4.85392084e+00  5.00698194e+00  5.13649518e+00
  5.25187971e+00  5.36019987e+00  5.46852004e+00  5.58390457e+00
  5.70870823e+00  5.85235019e+00  6.00541130e+00  6.17260112e+00
  6.34450051e+00  6.51404512e+00  6.67888016e+00  6.82958648e+00
  6.96380929e+00  7.07683903e+00  7.16867569e+00  7.23931928e+00
  7.29112458e+00  7.32644637e+00  7.35234902e+00  7.36883252e+00
  7.38060645e+00  7.39238038e+00  7.40415431e+00  7.42063782e+00
  7.43712132e+00  7.45360482e+00  7.47244311e+00  7.48657183e+00
  7.49834576e+00  7.50070055e+00  7.49599098e+00  7.47950747e+00
  7.45360482e+00  7.41357346e+00  7.36176816e+00  7.30054372e+00
  7.22754535e+00  7.14748262e+00  7.05800074e+00  6.96380929e+00
  6.86490827e+00  6.76129768e+00  6.65768708e+00  6.55407649e+00
  6.45046589e+00  6.34921009e+00  6.24795428e+00  6.15140804e+00
  6.05721660e+00  5.96773472e+00  5.87825284e+00  5.78641618e+00
  5.69222473e+00  5.58861414e+00  5.47558440e+00  5.34371637e+00
  5.19301005e+00  5.02111066e+00  4.82330862e+00  4.60195871e+00
  4.35941573e+00  4.09567967e+00  3.82016969e+00  3.53288577e+00
  3.24560185e+00  2.95831793e+00  2.67809837e+00  2.40965274e+00
  2.15533583e+00  1.91514763e+00  1.69379773e+00  1.48893133e+00
  1.29819364e+00  1.12393946e+00  9.63814000e-01  8.17817254e-01
  6.78884867e-01  5.49371625e-01  4.24567956e-01  3.02119072e-01
  1.84379761e-01  6.66404500e-02 -4.63892885e-02 -1.57064241e-01
 -2.60674835e-01 -3.57221070e-01 -4.39638587e-01 -5.07927388e-01
 -5.59732685e-01 -5.90344906e-01 -6.02118837e-01 -5.87990119e-01
 -5.50313540e-01 -4.89089098e-01 -4.04316794e-01 -2.95996628e-01
 -1.64128600e-01 -1.34222815e-02  1.53767540e-01  3.35086079e-01
  5.21114191e-01  7.09497088e-01  8.95525200e-01  1.07213417e+00
  1.23932399e+00  1.39238509e+00  1.53602705e+00  1.66789508e+00
  1.79740832e+00  1.92692156e+00  2.06585395e+00  2.21891506e+00
  2.39552402e+00  2.59332606e+00  2.81938554e+00  3.07134767e+00
  3.34214808e+00  3.62943200e+00  3.92613507e+00  4.22283813e+00
  4.51247683e+00  4.78563204e+00  5.03759416e+00  5.26365364e+00
  5.45910090e+00  5.62158114e+00  5.75344917e+00  5.85705977e+00
  5.93241293e+00  5.98421822e+00  6.01954002e+00  6.03837831e+00
  6.04779745e+00  6.05015224e+00  6.05250702e+00  6.05486181e+00
  6.06663574e+00  6.08547403e+00  6.11844104e+00  6.16553676e+00
  6.23147078e+00  6.31388829e+00  6.41514410e+00  6.53523820e+00
  6.67181580e+00  6.82252212e+00  6.98264758e+00  7.14983740e+00
  7.32173680e+00  7.49363619e+00  7.66553558e+00  7.83743498e+00
  8.00933437e+00  8.18594334e+00  8.36726188e+00  8.55564478e+00
  8.75580160e+00  8.96537758e+00  9.18437270e+00  9.41043217e+00
  9.63884644e+00  9.86255113e+00  1.00744819e+01  1.02722839e+01
  1.04488929e+01  1.06043088e+01  1.07385316e+01  1.08492066e+01
  1.09410432e+01  1.10163964e+01  1.10799756e+01  1.11341357e+01
  1.11788766e+01  1.12165532e+01  1.12448106e+01  1.12636489e+01
  1.12707133e+01  1.12683585e+01  1.12565846e+01  1.12353915e+01
  1.12118436e+01  1.11859410e+01  1.11647479e+01  1.11529740e+01
  1.11529740e+01  1.11741671e+01  1.12141984e+01  1.12777776e+01
  1.13672595e+01  1.14802893e+01  1.16145121e+01  1.17699280e+01]","[-1.98685748 -1.7783143  -1.55687155 -1.32682908 -1.09033682 -0.8495447
 -0.60875258 -0.37226032 -0.14006792  0.08137484  0.28991801  0.48341168
  0.65970591  0.81665078  0.95854613  1.08324205  1.19288846  1.29178523
  1.38208227  1.47022939  1.55622657  1.64437369  1.73897059  1.83571743
  1.93676412  2.03996074  2.13885751  2.23345441  2.3194516   2.39039927
  2.44844737  2.48929604  2.51509519  2.52799477  2.52799477  2.51939505
  2.50434555  2.48284625  2.45919702  2.4355478   2.41189857  2.3925492
  2.37534977  2.36245019  2.35385047  2.35170054  2.35170054  2.35170054
  2.35170054  2.34740068  2.33665103  2.31300181  2.27430307  2.21625497
  2.13670758  2.03351095  1.90881503  1.75617003  1.58202573  1.38208227
  1.16063952  0.91554754  0.65325612  0.37161534  0.07277512 -0.23896468
 -0.5593042  -0.88824343 -1.2193326  -1.55042176 -1.87506114 -2.1911008
 -2.49639081 -2.78448138 -3.05752244 -3.30906421 -3.53910668 -3.74764986
 -3.93039388 -4.0916386  -4.22708417 -4.33888051 -4.4248777  -4.48937559
 -4.52807432 -4.54742369 -4.54527376 -4.52377446 -4.48507573 -4.43347741
 -4.3668296  -4.29158206 -4.2077348  -4.11743776 -4.02069092 -3.9174943
 -3.80784789 -3.69390162 -3.5692057  -3.43591006 -3.29186477 -3.13276998
 -2.95647575 -2.76083215 -2.54583919 -2.31364679 -2.06640488 -1.80411346
 -1.53752218 -1.27093091 -1.01293935 -0.77214723 -0.55715427 -0.37226032
 -0.22821503 -0.12501841 -0.06912024 -0.05622066 -0.08416975 -0.15081756
 -0.24971433 -0.37226032 -0.50985581 -0.65605103 -0.80439618 -0.94629153
 -1.07958717 -1.19568337 -1.29673006 -1.37842739 -1.44292528 -1.49452359
 -1.53322233 -1.56117141 -1.58697057 -1.61276972 -1.64071881 -1.67296775
 -1.71166649 -1.76111487]",11.277889779633501,2.0878504250948517,4.24667,0.00870000000000104
010,2,1,csm,19b.png,1,0,208,NaN,206,1,1,309,neu_feedback_onset,1,"[-1.95125943e+00 -1.70060664e+00 -1.42923875e+00 -1.13922726e+00
 -8.40929735e-01 -5.40560696e-01 -2.50549209e-01  2.08186817e-02
  2.63185424e-01  4.70336486e-01  6.33985825e-01  7.52061930e-01
  8.24564802e-01  8.51494440e-01  8.41136886e-01  7.99706674e-01
  7.31346824e-01  6.48486399e-01  5.55268421e-01  4.59978933e-01
  3.68832466e-01  2.81829020e-01  2.03111616e-01  1.32680255e-01
  7.26064472e-02  1.87471711e-02 -2.47545519e-02 -5.78987218e-02
 -8.48283598e-02 -1.03471955e-01 -1.09686487e-01 -1.05543466e-01
 -8.68998704e-02 -5.58272112e-02 -1.02539776e-02  5.18913410e-02
  1.28537234e-01  2.23826722e-01  3.31545274e-01  4.55835912e-01
  5.92555612e-01  7.37561356e-01  8.90853141e-01  1.04621644e+00
  1.20157973e+00  1.35280001e+00  1.49573424e+00  1.63038243e+00
  1.75260156e+00  1.86032011e+00  1.95560960e+00  2.04054153e+00
  2.11304441e+00  2.17933275e+00  2.24147806e+00  2.29948036e+00
  2.35748266e+00  2.41548496e+00  2.47555876e+00  2.53563257e+00
  2.59570638e+00  2.65370868e+00  2.70963946e+00  2.76349874e+00
  2.81321499e+00  2.86085974e+00  2.90436146e+00  2.94372016e+00
  2.98100735e+00  3.01829455e+00  3.05765325e+00  3.09701195e+00
  3.14258518e+00  3.19644446e+00  3.26066129e+00  3.33730718e+00
  3.43052516e+00  3.54238673e+00  3.67496341e+00  3.82825520e+00
  4.00019058e+00  4.18662653e+00  4.38342004e+00  4.58021355e+00
  4.76872102e+00  4.94065640e+00  5.08773365e+00  5.20580976e+00
  5.29074169e+00  5.34460097e+00  5.37360212e+00  5.38188816e+00
  5.37981665e+00  5.38188816e+00  5.39638874e+00  5.43367593e+00
  5.49996427e+00  5.59732527e+00  5.72575892e+00  5.88112222e+00
  6.05305760e+00  6.23327903e+00  6.40935743e+00  6.56679223e+00
  6.69522589e+00  6.78222934e+00  6.82158804e+00  6.80915898e+00
  6.74287064e+00  6.62686604e+00  6.46528821e+00  6.26642320e+00
  6.04062854e+00  5.79826180e+00  5.54968052e+00  5.30109925e+00
  5.06287553e+00  4.83708087e+00  4.62785830e+00  4.43727932e+00
  4.26120092e+00  4.10169460e+00  3.95461735e+00  3.81996916e+00
  3.69567852e+00  3.58174543e+00  3.47609839e+00  3.38288041e+00
  3.30001999e+00  3.22751712e+00  3.16951482e+00  3.12394159e+00
  3.09079742e+00  3.07215382e+00  3.06386778e+00  3.07008231e+00
  3.08665440e+00  3.11358403e+00  3.15294274e+00  3.20473050e+00
  3.26894733e+00  3.34352171e+00  3.42845365e+00  3.52374314e+00
  3.62731867e+00  3.73089420e+00  3.83446973e+00  3.92975922e+00
  4.01261964e+00  4.07269345e+00  4.10790913e+00  4.11412366e+00
  4.08305100e+00  4.01883417e+00  3.92147318e+00  3.78889650e+00
  3.62939018e+00  3.44295422e+00  3.23787467e+00  3.01415152e+00
  2.77592780e+00  2.52941804e+00  2.27047921e+00  2.00739736e+00
  1.73810098e+00  1.46673309e+00  1.19536520e+00  9.30211843e-01
  6.77487548e-01  4.43406848e-01  2.32112765e-01  5.39628516e-02
 -9.10428917e-02 -1.96689933e-01 -2.60906762e-01 -2.83693379e-01
 -2.65049784e-01 -2.04975976e-01 -1.07614977e-01  2.91047242e-02
  2.05183127e-01  4.16477210e-01  6.65058484e-01  9.46783928e-01
  1.26165354e+00  1.60138128e+00  1.95560960e+00  2.30983791e+00
  2.64749415e+00  2.94993470e+00  3.19437295e+00  3.36216531e+00
  3.43673969e+00  3.40359552e+00  3.26066129e+00  3.00793699e+00
  2.65163717e+00  2.20833389e+00  1.69874228e+00  1.14357744e+00
  5.69768995e-01 -1.96793509e-03 -5.50918249e-01 -1.06258137e+00
 -1.52245673e+00 -1.92640130e+00 -2.27441508e+00 -2.56442657e+00
 -2.80472180e+00 -2.99944380e+00 -3.15273559e+00 -3.27495471e+00
 -3.36610118e+00 -3.43031801e+00 -3.47174822e+00 -3.48832031e+00
 -3.48210577e+00 -3.44896160e+00 -3.39095931e+00 -3.30395586e+00
 -3.19002278e+00 -3.04916005e+00 -2.88136769e+00 -2.69078872e+00
 -2.47742312e+00 -2.24748545e+00 -2.00097568e+00 -1.74410836e+00
 -1.47688350e+00 -1.20344409e+00 -9.25861671e-01 -6.44136227e-01
 -3.60339272e-01 -7.44708067e-02  2.11397659e-01  4.97266124e-01
  7.85206100e-01  1.07107457e+00  1.35901454e+00  1.64488301e+00
  1.93282298e+00  2.21661994e+00  2.49834538e+00  2.77592780e+00
  3.04315267e+00  3.29587697e+00  3.52995767e+00  3.73710873e+00
  3.90904411e+00  4.03540626e+00  4.11412366e+00  4.13483877e+00
  4.09962309e+00  4.00847662e+00  3.86554239e+00  3.68117794e+00
  3.46574084e+00  3.23373165e+00  2.99550793e+00  2.76557025e+00]","[-1.35752022 -1.23783959 -1.10961035 -0.97496965 -0.83605464 -0.69286533
 -0.5454017  -0.39580092 -0.24192583 -0.08377644  0.07651011  0.23893382
  0.40135752  0.56378122  0.72193062  0.8715314   1.00830925  1.12157842
  1.20920173  1.26263058  1.27759066  1.2476705   1.17287011  1.05318949
  0.89076579  0.69201046  0.46119783  0.20687651 -0.06026774 -0.33382345
 -0.60524201 -0.8659748  -1.11174751 -1.34042299 -1.54772692 -1.73365932
 -1.89608302 -2.03713519 -2.15895297 -2.2593992  -2.34274821 -2.40899998
 -2.46029168 -2.5008976  -2.53081776 -2.5521893  -2.56928653 -2.58210946
 -2.59065807 -2.59920669 -2.60134384 -2.59493238 -2.58210946 -2.55432645
 -2.51372053 -2.45601737 -2.37907983 -2.28718221 -2.17818735 -2.05209527
 -1.91531741 -1.76785378 -1.6139787  -1.45369215 -1.29126844 -1.12884474
 -0.96642104 -0.81254595 -0.66508232 -0.52830447 -0.40648669 -0.30176614
 -0.21841714 -0.15216536 -0.10942228 -0.08591359 -0.08163928 -0.0901879
 -0.11155944 -0.14147959 -0.17567406 -0.21627998 -0.26116022 -0.31672622
 -0.38084084 -0.45991554 -0.55822462 -0.67790525 -0.82323172 -0.99420404
 -1.19082221 -1.41094907 -1.65244747 -1.91318026 -2.18673597 -2.46884029
 -2.75735608 -3.04373472 -3.32370189 -3.59512045 -3.85157893 -4.08666587
 -4.29824411 -4.48417651 -4.6380516  -4.76200653 -4.85390415 -4.91588162
 -4.95221324 -4.96503616 -4.9586247  -4.93725316 -4.90305869 -4.86031561
 -4.81116107 -4.75559507 -4.69575476 -4.62950298 -4.5589769  -4.4799022
 -4.39014174 -4.2896955  -4.17642634 -4.0481971  -3.90928209 -3.75754415
 -3.59939476 -3.43697105 -3.27454735 -3.12067226 -2.9796201  -2.85780232
 -2.75949324 -2.68683    -2.64194977 -2.62698969 -2.63981261 -2.67614423
 -2.73384739 -2.80651063]",5.488053080388076,-0.22370659440235174,4.827395,0.1720650000000017
010,2,1,csm,48b.png,1,0,72,NaN,72,1,1,285,neu_feedback_onset,2,"[-1.74615530e-01 -6.73216502e-02  1.68304126e-02  7.78406581e-02
  1.19916689e-01  1.47266110e-01  1.64096522e-01  1.70407927e-01
  1.70407927e-01  1.66200324e-01  1.51473713e-01  1.30435697e-01
  9.67748722e-02  5.25950392e-02 -6.31140471e-03 -7.57368565e-02
 -1.57785118e-01 -2.41937180e-01 -3.30296846e-01 -4.10241306e-01
 -4.79666758e-01 -5.34365599e-01 -5.68026424e-01 -5.80649233e-01
 -5.70130225e-01 -5.36469400e-01 -4.85978163e-01 -4.18656512e-01
 -3.38712053e-01 -2.50352387e-01 -1.55681316e-01 -6.31140471e-02
  2.94532220e-02  1.15709086e-01  1.91445943e-01  2.58767593e-01
  3.09258831e-01  3.45023457e-01  3.63957672e-01  3.63957672e-01
  3.45023457e-01  3.09258831e-01  2.56663791e-01  1.89342141e-01
  1.13605285e-01  3.36608251e-02 -5.04912377e-02 -1.30435697e-01
 -2.08276355e-01 -2.84013212e-01 -3.53438664e-01 -4.24967917e-01
 -5.00704774e-01 -5.84856836e-01 -6.83735510e-01 -7.95236993e-01
 -9.27776492e-01 -1.07504260e+00 -1.23913912e+00 -1.41375465e+00
 -1.59257779e+00 -1.76719332e+00 -1.93339364e+00 -2.08276355e+00
 -2.20899165e+00 -2.30997412e+00 -2.38150338e+00 -2.42147561e+00
 -2.43620222e+00 -2.42357941e+00 -2.38781478e+00 -2.33732354e+00
 -2.27210569e+00 -2.20057644e+00 -2.12694339e+00 -2.05751793e+00
 -1.99440389e+00 -1.94180885e+00 -1.90604422e+00 -1.88711001e+00
 -1.88500621e+00 -1.90183662e+00 -1.93339364e+00 -1.97757348e+00
 -2.03016851e+00 -2.08697116e+00 -2.14377380e+00 -2.19636884e+00
 -2.24475627e+00 -2.28262470e+00 -2.31418173e+00 -2.33732354e+00
 -2.35625776e+00 -2.37308817e+00 -2.38781478e+00 -2.40674900e+00
 -2.42989081e+00 -2.46355164e+00 -2.50562767e+00 -2.55822271e+00
 -2.62344056e+00 -2.70128122e+00 -2.79174468e+00 -2.89693476e+00
 -3.01895525e+00 -3.15570235e+00 -3.30717607e+00 -3.47548019e+00
 -3.65851093e+00 -3.85416448e+00 -4.06454463e+00 -4.28123619e+00
 -4.50634296e+00 -4.73355353e+00 -4.95866030e+00 -5.17955946e+00
 -5.39414722e+00 -5.59611217e+00 -5.78545432e+00 -5.96217365e+00
 -6.11995877e+00 -6.26301727e+00 -6.38714156e+00 -6.49443544e+00
 -6.58700271e+00 -6.66273957e+00 -6.72374982e+00 -6.77424105e+00
 -6.81210948e+00 -6.84366651e+00 -6.86891212e+00 -6.88784634e+00
 -6.90467675e+00 -6.91940336e+00 -6.93412997e+00 -6.94885658e+00
 -6.96568700e+00 -6.98251741e+00 -6.99514022e+00 -7.00565923e+00
 -7.00776303e+00 -6.99724402e+00 -6.97199840e+00 -6.92571477e+00
 -6.85628931e+00 -6.76372205e+00 -6.65222056e+00 -6.52388867e+00
 -6.38503776e+00 -6.24408306e+00 -6.11154356e+00 -5.99583447e+00
 -5.90537101e+00 -5.84646456e+00 -5.82542655e+00 -5.84015316e+00
 -5.89064439e+00 -5.97269266e+00 -6.08419414e+00 -6.21462984e+00
 -6.35768834e+00 -6.50705825e+00 -6.65853197e+00 -6.80159047e+00
 -6.93623377e+00 -7.05825427e+00 -7.16344434e+00 -7.25180401e+00
 -7.32122946e+00 -7.36961690e+00 -7.39696632e+00 -7.40327772e+00
 -7.38644731e+00 -7.34857888e+00 -7.29177624e+00 -7.21603938e+00
 -7.12557592e+00 -7.02669724e+00 -6.91940336e+00 -6.81000568e+00
 -6.70691940e+00 -6.61014453e+00 -6.52809627e+00 -6.46077462e+00
 -6.41238718e+00 -6.38083016e+00 -6.36399975e+00 -6.36189595e+00
 -6.37031115e+00 -6.38503776e+00 -6.40397198e+00 -6.42500999e+00
 -6.44604801e+00 -6.46918983e+00 -6.49233164e+00 -6.51757726e+00
 -6.54913429e+00 -6.58700271e+00 -6.63328635e+00 -6.68588139e+00
 -6.74478783e+00 -6.80790188e+00 -6.86891212e+00 -6.92571477e+00
 -6.97410220e+00 -7.00565923e+00 -7.02459344e+00 -7.02459344e+00
 -7.00776303e+00 -6.97620600e+00 -6.93412997e+00 -6.88363874e+00
 -6.83314750e+00 -6.78476006e+00 -6.74689163e+00 -6.71743841e+00
 -6.70481560e+00 -6.70902320e+00 -6.73006122e+00 -6.76792965e+00
 -6.81842089e+00 -6.88363874e+00 -6.95937559e+00 -7.03932005e+00
 -7.12347211e+00 -7.20552038e+00 -7.28125723e+00 -7.34857888e+00
 -7.40327772e+00 -7.44324995e+00 -7.46639177e+00 -7.47270317e+00
 -7.46218417e+00 -7.43273094e+00 -7.38855111e+00 -7.33174847e+00
 -7.26021922e+00 -7.18237856e+00 -7.09822650e+00 -7.00986683e+00
 -6.91940336e+00 -6.83314750e+00 -6.75109924e+00 -6.67536238e+00
 -6.61014453e+00 -6.55123809e+00 -6.50495445e+00 -6.46708602e+00
 -6.43763280e+00 -6.41659479e+00 -6.40186818e+00 -6.39345297e+00
 -6.39134917e+00 -6.39134917e+00 -6.39766057e+00 -6.40607578e+00
 -6.41869859e+00 -6.43552900e+00 -6.45656702e+00 -6.47970883e+00]","[-1.47464341e+00 -1.32558841e+00 -1.17653340e+00 -1.02747840e+00
 -8.78423399e-01 -7.29368396e-01 -5.78088692e-01 -4.26808988e-01
 -2.73304583e-01 -1.19800177e-01  3.81536312e-02  1.98332141e-01
  3.62960054e-01  5.32037371e-01  7.05564090e-01  8.81315511e-01
  1.05929163e+00  1.23949246e+00  1.41301918e+00  1.57987179e+00
  1.73115149e+00  1.86240888e+00  1.96696986e+00  2.03816031e+00
  2.07153083e+00  2.06263202e+00  2.00701448e+00  1.90912762e+00
  1.76452202e+00  1.58432119e+00  1.36630044e+00  1.12158328e+00
  8.56843794e-01  5.76531401e-01  2.89544904e-01  3.33705229e-04
 -2.82203389e-01 -5.55841677e-01 -8.18356457e-01 -1.06529833e+00
 -1.29666729e+00 -1.51023863e+00 -1.70601237e+00 -1.88176379e+00
 -2.04194230e+00 -2.18209849e+00 -2.30223238e+00 -2.40234395e+00
 -2.48465790e+00 -2.54250014e+00 -2.58032007e+00 -2.59366828e+00
 -2.58476947e+00 -2.55584835e+00 -2.50468022e+00 -2.43348977e+00
 -2.34672641e+00 -2.24439014e+00 -2.13093036e+00 -2.01079648e+00
 -1.88398849e+00 -1.75495580e+00 -1.62814781e+00 -1.50578923e+00
 -1.39010475e+00 -1.28776848e+00 -1.19655572e+00 -1.12314057e+00
 -1.06752303e+00 -1.03192780e+00 -1.01857959e+00 -1.02525370e+00
 -1.05195012e+00 -1.10089355e+00 -1.16985930e+00 -1.26107206e+00
 -1.37230714e+00 -1.50578923e+00 -1.66151834e+00 -1.83949446e+00
 -2.03749289e+00 -2.25773835e+00 -2.49133201e+00 -2.74049858e+00
 -2.99188985e+00 -3.24328112e+00 -3.48577359e+00 -3.71046844e+00
 -3.91069158e+00 -4.07976890e+00 -4.21102629e+00 -4.30223905e+00
 -4.35118248e+00 -4.35785659e+00 -4.32448607e+00 -4.25329562e+00
 -4.15095935e+00 -4.01747726e+00 -3.86397285e+00 -3.69267083e+00
 -3.50802061e+00 -3.31669627e+00 -3.11869784e+00 -2.92069940e+00
 -2.72270097e+00 -2.52247783e+00 -2.32670409e+00 -2.12870566e+00
 -1.93293192e+00 -1.73938289e+00 -1.54360916e+00 -1.34783542e+00
 -1.15206169e+00 -9.58512654e-01 -7.62738919e-01 -5.69189886e-01
 -3.80090256e-01 -1.97664731e-01 -2.19133101e-02  1.40489902e-01
  2.85095501e-01  4.05229383e-01  5.00891549e-01  5.65407893e-01
  5.92104312e-01  5.83205506e-01  5.32037371e-01  4.45274011e-01
  3.18466024e-01  1.58287514e-01 -3.08121162e-02 -2.39934060e-01
 -4.66853616e-01 -7.04896679e-01 -9.42939743e-01 -1.17875810e+00
 -1.40567766e+00 -1.62369841e+00 -1.82614625e+00 -2.01747058e+00]",-0.21290471882694578,0.4774209480120487,4.753300000000001,-0.07209499999999824
010,2,1,csp,25a.png,1,1,96,217,96,1,1,254,pos_feedback_onset,3,"[ 0.90061963  0.73286743  0.57210491  0.41833205  0.27853855  0.15039451
  0.03855971 -0.05929574 -0.13851206 -0.20607892 -0.25733654 -0.2969447
 -0.32257351 -0.33422296 -0.33422296 -0.31791372 -0.28762513 -0.2410273
 -0.18278    -0.11288325 -0.03133704  0.05253906  0.13874505  0.22029126
  0.29717769  0.36008476  0.41134238  0.45095054  0.47890924  0.49754837
  0.51385761  0.53249675  0.56045545  0.6023935   0.66297068  0.75383646
  0.87266093  1.03109357  1.22680447  1.46212353  1.73938064  2.05624592
  2.40805956  2.78550202  3.1815836   3.58698476  3.98539624  4.36749848
  4.71931212  5.03151761  5.29712526  5.50914541  5.66757804  5.77708295
  5.83766014  5.86095905  5.85396938  5.82368079  5.77941284  5.72582534
  5.66757804  5.60933075  5.54875357  5.48584649  5.42060952  5.35071277
  5.27149645  5.18762035  5.09209479  4.98724967  4.87541487  4.7542605
  4.62611645  4.49331263  4.35351913  4.21139573  4.06461256  3.9131696
  3.75706685  3.60096411  3.44020158  3.27710916  3.11401674  2.95325422
  2.79482158  2.63871884  2.48960577  2.34748238  2.21467855  2.0888644
  1.97469971  1.86752469  1.77199913  1.68346324  1.60657682  1.53900996
  1.48076267  1.43416483  1.39921646  1.37591754  1.36426808  1.36659797
  1.38057732  1.41086592  1.45047407  1.50406158  1.57162844  1.64618498
  1.73239097  1.82791653  1.93276166  2.04226657  2.15410137  2.27292584
  2.39175032  2.5082449   2.62706938  2.73890418  2.84840909  2.95325422
  3.05110967  3.14430534  3.23051133  3.30972765  3.38195429  3.44719126
  3.50543855  3.55902606  3.603294    3.64290216  3.67552064  3.70347934
  3.72677826  3.74541739  3.76405653  3.78502555  3.80599458  3.83395328
  3.86657176  3.90617992  3.95510765  4.01335494  4.08325169  4.1647979
  4.25333378  4.35351913  4.46302404  4.5841784   4.71698223  4.85910562
  5.01753826  5.18995025  5.37867147  5.58370194  5.80038187  6.03104115
  6.2686901   6.50633905  6.73932822  6.95833804  7.15637884  7.32646093
  7.46392454  7.56876967  7.63633652  7.66662512  7.66662512  7.63400663
  7.57342945  7.49188324  7.3916979   7.27287342  7.1377397   6.98862663
  6.82087443  6.63914288  6.43877219  6.21743248  5.97978353  5.72349544
  5.44856822  5.16199154  4.86376541  4.5585496   4.25100389  3.94811797
  3.65222173  3.37263472  3.10935696  2.86704823  2.64803841  2.4523275
  2.27991552  2.12614267  1.99100895  1.86985458  1.76267956  1.66482411
  1.57628823  1.49707191  1.42717516  1.37125776  1.32698981  1.29903111
  1.28971155  1.29903111  1.32698981  1.37125776  1.42950505  1.4994018
  1.57395833  1.64618498  1.71142194  1.76267956  1.79296815  1.79529805
  1.76500945  1.6951127   1.58793768  1.44115451  1.25476317  1.03109357
  0.77713537  0.49754837  0.19932223 -0.11055336 -0.42508874 -0.73962412
 -1.04949971 -1.35005574 -1.6412922  -1.91854932 -2.18182708 -2.43112549
 -2.66411466 -2.88079459 -3.0741756  -3.24658758 -3.39337076 -3.50753545
 -3.58675177 -3.6333496  -3.64266917 -3.61704036 -3.56112296 -3.47957675
 -3.37939141 -3.2698865  -3.1580517  -3.05320657 -2.95768101 -2.88079459
 -2.82254729 -2.78526903 -2.76662989 -2.76662989 -2.78060924 -2.80390816
 -2.83419675 -2.86215545]","[ -0.49687777  -0.47774255  -0.46498574  -0.4564812   -0.44372439
  -0.42671531  -0.39482329  -0.35230058  -0.29064267  -0.21622794
  -0.12480413  -0.02274965   0.08780938   0.20687294   0.33231491
   0.45775688   0.58319886   0.71076696   0.8340828    0.9552725
   1.07220993   1.18702122   1.29332798   1.39538246   1.49105854
   1.57823008   1.65902321   1.72705953   1.78446518   1.82698788
   1.85675377   1.86738445   1.86100604   1.83336629   1.78659132
   1.71642886   1.62925732   1.52082443   1.39750859   1.26143595
   1.11260649   0.9552725    0.79156009   0.62784769   0.46200916
   0.29617062   0.13671049  -0.01849738  -0.1652007   -0.30127334
  -0.42671531  -0.53727434  -0.63082428  -0.70736514  -0.76264466
  -0.79666282  -0.80729349  -0.79028441  -0.74563558  -0.67122085
  -0.56916636  -0.43947212  -0.29064267  -0.13118254   0.0282776
   0.17072865   0.28766608   0.35782854   0.37483762   0.32593651
   0.20474681   0.01552079  -0.24386769  -0.56066182  -0.92635706
  -1.32394432  -1.74491907  -2.17014609  -2.59112083  -2.99933877
  -3.38416922  -3.74348605  -4.07516313  -4.37920045  -4.65347187
  -4.90010354  -5.11909546  -5.30619535  -5.46352934  -5.58684518
  -5.67614285  -5.73142236  -5.75480985  -5.75268371  -5.72929623
  -5.69315193  -5.65062923  -5.6123588   -5.58046677  -5.56345769
  -5.56133156  -5.57834064  -5.61023266  -5.65700763  -5.71653942
  -5.78670188  -5.86324274  -5.94616201  -6.03545968  -6.12688349
  -6.22255957  -6.32248792  -6.42666854  -6.53510143  -6.64991272
  -6.77110242  -6.9029228   -7.04324771  -7.19632944  -7.36004184
  -7.53863719  -7.72998935  -7.93409832  -8.14671183  -8.36995601
  -8.59532633  -8.82282278  -9.04606697  -9.26080661  -9.46704172
  -9.65626774  -9.82848468  -9.98369254 -10.11763905 -10.23245035
 -10.32812643 -10.40891956 -10.47057748 -10.52160472 -10.55774902]",6.213238677600075,0.984028473201138,4.292045,0.36045499999999997
010,2,1,csp,27a.png,1,1,232,222,232,1,0,328,neg_feedback_onset,4,"[ 0.60788083  0.52138395  0.43008169  0.32916867  0.22825565  0.12493993
  0.0264296  -0.06727535 -0.15136953 -0.22345026 -0.27871216 -0.31475252
 -0.33157136 -0.32676598 -0.29793369 -0.24507448 -0.17059106 -0.07448342
  0.04084575  0.17299375  0.31715521  0.46612206  0.6150889   0.76165305
  0.89860644  1.02114368  1.12445939  1.20615089  1.26621816  1.30225853
  1.31907737  1.31667468  1.29985584  1.27582893  1.24699664  1.22056704
  1.19894282  1.19173474  1.19894282  1.22537242  1.27582893  1.35031235
  1.45122537  1.578568    1.72993753  1.90773667  2.10956271  2.33301297
  2.57808746  2.83757809  3.11148486  3.3950024   3.68572802  3.97885632
  4.27438731  4.56511293  4.85343585  5.13695339  5.41566555  5.68716963
  5.95386833  6.21816434  6.47525228  6.72513215  6.96540125  7.1936569
  7.40989909  7.60451706  7.7799135   7.93128304  8.06102835  8.16674676
  8.25324363  8.32051898  8.37097549  8.41182124  8.44065353  8.46468044
  8.48630466  8.50792888  8.5295531   8.55838539  8.59442576  8.64247958
  8.70014416  8.77222489  8.85872177  8.95963479  9.07496396  9.19990389
  9.32964921  9.46179721  9.58913984  9.70446901  9.80297934  9.87746276
  9.92551658  9.94233542  9.92551658  9.87746276  9.79336857  9.68284479
  9.54348871  9.38250841  9.20230658  9.00768861  8.80345988  8.58962037
  8.37337818  8.1547333   7.93849111  7.7270543   7.52282556  7.33061028
  7.15281115  6.98942816  6.8452667   6.72272946  6.61941374  6.54012494
  6.48246036  6.44641999  6.43200384  6.43440654  6.45362806  6.48246036
  6.51850072  6.55694378  6.59298414  6.62662182  6.65064873  6.66266218
  6.66266218  6.65064873  6.62421913  6.58817876  6.54493032  6.4968765
  6.44882268  6.40317155  6.36713119  6.34550697  6.34070159  6.35271504
  6.38635272  6.44161461  6.51850072  6.61220567  6.72513215  6.85247477
  6.99423354  7.14560308  7.30418068  7.46996636  7.64055742  7.81595387
  7.99135031  8.16434407  8.33253244  8.49351273  8.64247958  8.77703027
  8.89235944  8.98606439  9.06054781  9.11100432  9.144642    9.16386353
  9.1710716   9.17347429  9.17587698  9.18068236  9.19269582  9.21432004
  9.24315233  9.27438731  9.30802499  9.33445459  9.34887074  9.33925997
  9.30081691  9.22873618  9.11100432  8.94762134  8.73137914  8.46468044
  8.14752523  7.78231619  7.37385872  6.92695819  6.44882268  5.94906295
  5.43248438  4.90629505  4.38010572  3.85631908  3.3421432   2.83998078
  2.34983181  1.87409899  1.41518501  0.97068717  0.54300817  0.13214801
 -0.26189332 -0.63911581 -0.99711677 -1.33829889 -1.66266218 -1.97020663
 -2.26333494 -2.54204709 -2.81114849 -3.07304181 -3.32772705 -3.58000961
 -3.83229217 -4.08697741 -4.34406535 -4.60355598 -4.86785199 -5.13935608
 -5.41566555 -5.6943777  -5.97549255 -6.25180202 -6.52570879 -6.78519942
 -7.03027391 -7.25372417 -7.45074483 -7.61893321 -7.75108121 -7.85199423
 -7.91686689 -7.95050457 -7.95290726 -7.92888035 -7.88563191 -7.82556463
 -7.7534839  -7.6741951  -7.5925036  -7.5132148  -7.43873138 -7.36905334
 -7.31138876 -7.26573763 -7.22969726 -7.20567035 -7.19605959 -7.19846228
 -7.21287842 -7.23930802 -7.27534839 -7.32340221 -7.3786641  -7.44353676
 -7.51561749 -7.5925036 ]","[-3.87188046 -3.55987332 -3.2072625  -2.81191098 -2.37595579 -1.89939693
 -1.39078254 -0.8607978  -0.32012788  0.2119939   0.72060829  1.18861901
  1.59892977  1.94085541  2.20371075  2.38963281  2.50075865  2.54136232
  2.52854011  2.47297719  2.39176985  2.29987733  2.20798482  2.12677748
  2.06266642  2.01992572  1.99855536  1.99641833  2.01137758  2.037022
  2.06907753  2.10327009  2.13532562  2.16097004  2.17379225  2.17379225
  2.15455894  2.11822934  2.06266642  1.98573315  1.88956657  1.77844073
  1.65235565  1.5155854   1.370267    1.2185375   1.066808    0.91721553
  0.77189713  0.63512688  0.5090418   0.39791596  0.30174938  0.22267907
  0.16284209  0.12010138  0.09231992  0.07949771  0.07736068  0.08163475
  0.09018289  0.10086806  0.10514213  0.1030051   0.09231992  0.0666755
  0.02607183 -0.03162812 -0.10642436 -0.19831687 -0.30516863 -0.42697964
 -0.56161286 -0.70479422 -0.85652373 -1.01466434 -1.18135309 -1.35445294
 -1.53823797 -1.73270818 -1.93786356 -2.15797819 -2.39091504 -2.63881112
 -2.89952942 -3.1709329  -3.44661045 -3.72442503 -4.00010258 -4.26509495
 -4.51940214 -4.75661306 -4.97672769 -5.177609   -5.359257   -5.52167167
 -5.66485304 -5.79307515 -5.90633802 -6.00464164 -6.09012305 -6.16278225
 -6.22261924 -6.26749698 -6.30168954 -6.32519693 -6.33374507 -6.33160803
 -6.32092286 -6.2995525  -6.27177105 -6.23330441 -6.19056371 -6.1414119
 -6.08371194 -6.02173792 -5.95121576 -5.87428249 -5.79307515 -5.70973078
 -5.62424937 -5.54304203 -5.46824579 -5.40413474 -5.35711996 -5.33147554
 -5.3293385  -5.35498293 -5.40840881 -5.48961615 -5.60074198 -5.7353752
 -5.89351581 -6.07088973 -6.26108587 -6.46196718 -6.66712257 -6.87227795
 -7.07743334 -7.27617761]",8.820639115809687,0.9763016652818277,4.162000000000001,0.3080199999999995
010,2,1,csp,14a.png,1,1,276,313,276,1,1,300,pos_feedback_onset,5,"[ 1.23047922  1.15961269  1.08638394  1.00843076  0.92339092  0.82653999
  0.71551575  0.59031821  0.44622293  0.28795434  0.11078801 -0.08055163
 -0.28606457 -0.49630195 -0.7159882  -0.93567445 -1.15299848 -1.3679603
 -1.57583546 -1.77426175 -1.9679636  -2.15221659 -2.33174514 -2.50418703
 -2.67426671 -2.84198417 -3.00733941 -3.17033243 -3.33096324 -3.48686961
 -3.6309649  -3.76324909 -3.87663554 -3.96639981 -4.02781748 -4.05616409
 -4.04907744 -4.00183308 -3.91679324 -3.7915957  -3.63332711 -3.44434969
 -3.22702566 -2.98844167 -2.73804659 -2.47820264 -2.21599647 -1.95851473
 -1.70811965 -1.47189788 -1.24748719 -1.03724981 -0.84118574 -0.65929497
