sub,run,cat_cond,trial_type,picture,old,response_old,target_pos,response_pos,dot_resp_loc,cat_corr,TN_corr,TN_rt,feedback_type,trial,SP_timeseries,FB_timeseries,SP_peak_response,FB_peak_response,preStim_bl,anticipation
053,1,2,csm,10a.png,1,0,196,NaN,197,1,1,562,neu_feedback_onset,1,"[nan nan nan nan nan nan nan nan nan nan nan nan nan nan nan nan nan nan
 nan nan nan nan nan nan nan nan nan nan nan nan nan nan nan nan nan nan
 nan nan nan nan nan nan nan nan nan nan nan nan nan nan nan nan nan nan
 nan nan nan nan nan nan nan nan nan nan nan nan nan nan nan nan nan nan
 nan nan nan nan nan nan nan nan nan nan nan nan nan nan nan nan nan nan
 nan nan nan nan nan nan nan nan nan nan nan nan nan nan nan nan nan nan
 nan nan nan nan nan nan nan nan nan nan nan nan nan nan nan nan nan nan
 nan nan nan nan nan nan nan nan nan nan nan nan nan nan nan nan nan nan
 nan nan nan nan nan nan nan nan nan nan nan nan nan nan nan nan nan nan
 nan nan nan nan nan nan nan nan nan nan nan nan nan nan nan nan nan nan
 nan nan nan nan nan nan nan nan nan nan nan nan nan nan nan nan nan nan
 nan nan nan nan nan nan nan nan nan nan nan nan nan nan nan nan nan nan
 nan nan nan nan nan nan nan nan nan nan nan nan nan nan nan nan nan nan
 nan nan nan nan nan nan nan nan nan nan nan nan nan nan nan nan nan nan
 nan nan nan nan nan nan nan nan]","[nan nan nan nan nan nan nan nan nan nan nan nan nan nan nan nan nan nan
 nan nan nan nan nan nan nan nan nan nan nan nan nan nan nan nan nan nan
 nan nan nan nan nan nan nan nan nan nan nan nan nan nan nan nan nan nan
 nan nan nan nan nan nan nan nan nan nan nan nan nan nan nan nan nan nan
 nan nan nan nan nan nan nan nan nan nan nan nan nan nan nan nan nan nan
 nan nan nan nan nan nan nan nan nan nan nan nan nan nan nan nan nan nan
 nan nan nan nan nan nan nan nan nan nan nan nan nan nan nan nan nan nan
 nan nan nan nan nan nan nan nan nan nan nan nan nan nan]",,,6.07183,
053,1,2,csp,18b.png,1,0,244,NaN,242,1,0,322,neg_feedback_onset,2,"[nan nan nan nan nan nan nan nan nan nan nan nan nan nan nan nan nan nan
 nan nan nan nan nan nan nan nan nan nan nan nan nan nan nan nan nan nan
 nan nan nan nan nan nan nan nan nan nan nan nan nan nan nan nan nan nan
 nan nan nan nan nan nan nan nan nan nan nan nan nan nan nan nan nan nan
 nan nan nan nan nan nan nan nan nan nan nan nan nan nan nan nan nan nan
 nan nan nan nan nan nan nan nan nan nan nan nan nan nan nan nan nan nan
 nan nan nan nan nan nan nan nan nan nan nan nan nan nan nan nan nan nan
 nan nan nan nan nan nan nan nan nan nan nan nan nan nan nan nan nan nan
 nan nan nan nan nan nan nan nan nan nan nan nan nan nan nan nan nan nan
 nan nan nan nan nan nan nan nan nan nan nan nan nan nan nan nan nan nan
 nan nan nan nan nan nan nan nan nan nan nan nan nan nan nan nan nan nan
 nan nan nan nan nan nan nan nan nan nan nan nan nan nan nan nan nan nan
 nan nan nan nan nan nan nan nan nan nan nan nan nan nan nan nan nan nan
 nan nan nan nan nan nan nan nan nan nan nan nan nan nan nan nan nan nan
 nan nan nan nan nan nan nan nan]","[nan nan nan nan nan nan nan nan nan nan nan nan nan nan nan nan nan nan
 nan nan nan nan nan nan nan nan nan nan nan nan nan nan nan nan nan nan
 nan nan nan nan nan nan nan nan nan nan nan nan nan nan nan nan nan nan
 nan nan nan nan nan nan nan nan nan nan nan nan nan nan nan nan nan nan
 nan nan nan nan nan nan nan nan nan nan nan nan nan nan nan nan nan nan
 nan nan nan nan nan nan nan nan nan nan nan nan nan nan nan nan nan nan
 nan nan nan nan nan nan nan nan nan nan nan nan nan nan nan nan nan nan
 nan nan nan nan nan nan nan nan nan nan nan nan nan nan]",,,6.344175,0.7237649999999993
053,1,2,csm,6a.png,1,1,108,120,104,1,1,528,neu_feedback_onset,3,"[nan nan nan nan nan nan nan nan nan nan nan nan nan nan nan nan nan nan
 nan nan nan nan nan nan nan nan nan nan nan nan nan nan nan nan nan nan
 nan nan nan nan nan nan nan nan nan nan nan nan nan nan nan nan nan nan
 nan nan nan nan nan nan nan nan nan nan nan nan nan nan nan nan nan nan
 nan nan nan nan nan nan nan nan nan nan nan nan nan nan nan nan nan nan
 nan nan nan nan nan nan nan nan nan nan nan nan nan nan nan nan nan nan
 nan nan nan nan nan nan nan nan nan nan nan nan nan nan nan nan nan nan
 nan nan nan nan nan nan nan nan nan nan nan nan nan nan nan nan nan nan
 nan nan nan nan nan nan nan nan nan nan nan nan nan nan nan nan nan nan
 nan nan nan nan nan nan nan nan nan nan nan nan nan nan nan nan nan nan
 nan nan nan nan nan nan nan nan nan nan nan nan nan nan nan nan nan nan
 nan nan nan nan nan nan nan nan nan nan nan nan nan nan nan nan nan nan
 nan nan nan nan nan nan nan nan nan nan nan nan nan nan nan nan nan nan
 nan nan nan nan nan nan nan nan nan nan nan nan nan nan nan nan nan nan
 nan nan nan nan nan nan nan nan]","[nan nan nan nan nan nan nan nan nan nan nan nan nan nan nan nan nan nan
 nan nan nan nan nan nan nan nan nan nan nan nan nan nan nan nan nan nan
 nan nan nan nan nan nan nan nan nan nan nan nan nan nan nan nan nan nan
 nan nan nan nan nan nan nan nan nan nan nan nan nan nan nan nan nan nan
 nan nan nan nan nan nan nan nan nan nan nan nan nan nan nan nan nan nan
 nan nan nan nan nan nan nan nan nan nan nan nan nan nan nan nan nan nan
 nan nan nan nan nan nan nan nan nan nan nan nan nan nan nan nan nan nan
 nan nan nan nan nan nan nan nan nan nan nan nan nan nan]",,,6.126859999999999,-0.11591000000000129
053,1,2,csp,8b.png,1,1,4,234,7,1,1,528,neg_feedback_onset,4,"[ 2.86476637  2.31994475  1.81354004  1.35079091  0.93693602  0.57721406
  0.27162501  0.0219151  -0.18064678 -0.34129931 -0.47051982 -0.57878566
 -0.67482793 -0.7708702  -0.87215115 -0.9821632  -1.10439882 -1.24060423
 -1.38903319 -1.55143195 -1.72954671 -1.9251237  -2.14340159 -2.38961905
 -2.66726853 -2.98508114 -3.34131066 -3.74119576 -4.17775155 -4.64399312
 -5.13118938 -5.62537053 -6.10907434 -6.57007724 -6.9891708  -7.35587766
 -7.66146671 -7.89720683 -8.05785936 -8.14517051 -8.15739408 -8.09627627
 -7.95832464 -7.74528542 -7.45541237 -7.08521307 -6.63294128 -6.098597
 -5.48218023 -4.78892964 -4.02583013 -3.19986659 -2.32675502 -1.41697277
 -0.48448961  0.46021711  1.40492383  2.3391532   3.25766657  4.15347904
  5.01611327  5.84207682  6.62089234  7.34208249  8.00040862  8.58539337
  9.09179808  9.51787652  9.8636287  10.13254707 10.33510895 10.48179169
 10.58656508 10.66165268 10.72102426 10.77341096 10.8292901  10.89215413
 10.96374928 11.04582177 11.13313293 11.22219031 11.30950146 11.38458906
 11.44221442 11.47364644 11.47190021 11.42999086 11.34093348 11.20298185
 11.01264353 10.77341096 10.48528414 10.15350174  9.78504866  9.38865601
  8.97130868  8.54173779  8.1121669   7.69307334  7.29493447  6.92997383
  6.61216122  6.3537202   6.16338188  6.04987737  6.01669913  6.06384716
  6.18259033  6.36419754  6.59295277  6.85663246  7.13602816  7.41891631
  7.69481957  7.95500681  8.19598561  8.41600972  8.61857161  8.80541748
  8.97829357  9.14243855  9.29959863  9.45326627  9.60344146  9.75361665
  9.90553806 10.06095192 10.21985822 10.38749565 10.56386418 10.75245628
 10.95501817 11.17504228 11.4107824  11.66223854 11.92591823 12.20007526
 12.47947096 12.753628   13.01730769 13.26527138 13.48878794 13.68785738
 13.8554948  13.99693887 14.10869715 14.19775453 14.26411101 14.31300526
 14.34967594 14.37412307 14.39333152 14.40555509 14.41603242 14.42301732
 14.42825599 14.43349466 14.43873332 14.44397199 14.44746444 14.45095689
 14.45619556 14.459688   14.46492667 14.46841912 14.47191156 14.47715023
 14.48064268 14.48413513 14.4893738  14.49286624 14.49635869 14.50159736
 14.5050898  14.51032847 14.51382092 14.51731337 14.52255204 14.52604448
 14.52953693 14.5347756  14.53826804 14.54350671 14.54699916 14.55049161
 14.55573027 14.55922272 14.56271517 14.56795384 14.57144628 14.57493873
 14.5801774  14.58366985 14.58890851 14.59240096 14.59589341 14.60113208
 14.60462452 14.60811697 14.61335564 14.61684808 14.62208675 14.6255792
 14.62907165 14.63431032 14.63780276 14.64129521 14.64653388 14.65002632
 14.65351877 14.65875744 14.66224989 14.66748856 14.670981   14.67447345
 14.67971212 14.68320456 14.68669701 14.69193568 14.69542813 14.7006668
 14.70415924 14.70765169 14.71289036 14.7163828  14.71987525 14.72511392
 14.72860637 14.73209881 14.73733748 14.74082993 14.7460686  14.74956104
 14.75305349 14.75829216 14.76178461 14.76527705 14.77051572 14.77400817
 14.77924684 14.78273928 14.78623173 14.7914704  14.79496284 14.79845529
 14.80369396 14.80718641 14.81067885 14.81591752 14.81940997 14.82464864
 14.82814108 14.83163353 14.8368722  14.84036465 14.84385709 14.84909576
 14.85258821 14.85782688]","[nan nan nan nan nan nan nan nan nan nan nan nan nan nan nan nan nan nan
 nan nan nan nan nan nan nan nan nan nan nan nan nan nan nan nan nan nan
 nan nan nan nan nan nan nan nan nan nan nan nan nan nan nan nan nan nan
 nan nan nan nan nan nan nan nan nan nan nan nan nan nan nan nan nan nan
 nan nan nan nan nan nan nan nan nan nan nan nan nan nan nan nan nan nan
 nan nan nan nan nan nan nan nan nan nan nan nan nan nan nan nan nan nan
 nan nan nan nan nan nan nan nan nan nan nan nan nan nan nan nan nan nan
 nan nan nan nan nan nan nan nan nan nan nan nan nan nan]",14.815668061940539,,5.7266449999999995,
053,1,2,csp,45b.png,1,1,100,31,102,1,0,330,neg_feedback_onset,5,"[nan nan nan nan nan nan nan nan nan nan nan nan nan nan nan nan nan nan
 nan nan nan nan nan nan nan nan nan nan nan nan nan nan nan nan nan nan
 nan nan nan nan nan nan nan nan nan nan nan nan nan nan nan nan nan nan
 nan nan nan nan nan nan nan nan nan nan nan nan nan nan nan nan nan nan
 nan nan nan nan nan nan nan nan nan nan nan nan nan nan nan nan nan nan
 nan nan nan nan nan nan nan nan nan nan nan nan nan nan nan nan nan nan
 nan nan nan nan nan nan nan nan nan nan nan nan nan nan nan nan nan nan
 nan nan nan nan nan nan nan nan nan nan nan nan nan nan nan nan nan nan
 nan nan nan nan nan nan nan nan nan nan nan nan nan nan nan nan nan nan
 nan nan nan nan nan nan nan nan nan nan nan nan nan nan nan nan nan nan
 nan nan nan nan nan nan nan nan nan nan nan nan nan nan nan nan nan nan
 nan nan nan nan nan nan nan nan nan nan nan nan nan nan nan nan nan nan
 nan nan nan nan nan nan nan nan nan nan nan nan nan nan nan nan nan nan
 nan nan nan nan nan nan nan nan nan nan nan nan nan nan nan nan nan nan
 nan nan nan nan nan nan nan nan]","[ 0.28728004  0.21031601  0.14277614  0.08308974  0.03282752 -0.00801054
 -0.03942443 -0.06141416 -0.07712111 -0.08497458 -0.08654527 -0.08497458
 -0.0786918  -0.06926763 -0.05984346 -0.04727791 -0.03471235 -0.02214679
 -0.00801054  0.00612571  0.02026196  0.03282752  0.04696377  0.06110002
  0.07523627  0.08937252  0.10350877  0.11764503  0.13178128  0.14434683
  0.15848309  0.17261934  0.18675559  0.20089184  0.21502809  0.22916434
  0.24330059  0.25586615  0.2700024   0.28413865  0.29827491  0.31241116
  0.32654741  0.34068366  0.35481991  0.36738547  0.38152172  0.39565797
  0.40979422  0.42393047  0.43806673  0.45220298  0.46633923  0.47890479
  0.49304104  0.50717729  0.52131354  0.53544979  0.54958604  0.56372229
  0.57785855  0.5919948   0.60456035  0.61869661  0.63440355  0.6485398
  0.66424675  0.6799537   0.69880203  0.72079176  0.74592287  0.77733676
  0.81817482  0.87000774  0.93440622  1.01451165  1.11032402  1.22184334
  1.3474989   1.48100795  1.61922907  1.75430881  1.87839368  1.98677161
  2.07001842  2.12656343  2.15483593  2.15326524  2.12499274  2.07158912
  1.99776647  1.90823688  1.80614173  1.69619311  1.57839101  1.45744753
  1.33650404  1.21398986  1.09461707  0.97995637  0.87157844  0.76948329
  0.678383    0.59513619  0.52288424  0.45848576  0.40194075  0.35167852
  0.30612838  0.26371962  0.22131087  0.18047281  0.13963475  0.09879669
  0.05952933  0.02340335 -0.01115193 -0.04413652 -0.07240902 -0.09911083
 -0.12424194 -0.14623167 -0.1666507  -0.18549903 -0.20591806 -0.2231957
 -0.24204404 -0.25932168 -0.27817002 -0.29544766 -0.31429599 -0.33157363
 -0.34885127 -0.36769961 -0.38497725 -0.40225489 -0.42110322 -0.43838087
 -0.4572292  -0.47450684]",,1.2997497883488929,6.046889999999999,
053,1,2,csm,22a.png,1,1,172,239,167,1,1,355,neu_feedback_onset,6,"[nan nan nan nan nan nan nan nan nan nan nan nan nan nan nan nan nan nan
 nan nan nan nan nan nan nan nan nan nan nan nan nan nan nan nan nan nan
 nan nan nan nan nan nan nan nan nan nan nan nan nan nan nan nan nan nan
 nan nan nan nan nan nan nan nan nan nan nan nan nan nan nan nan nan nan
 nan nan nan nan nan nan nan nan nan nan nan nan nan nan nan nan nan nan
 nan nan nan nan nan nan nan nan nan nan nan nan nan nan nan nan nan nan
 nan nan nan nan nan nan nan nan nan nan nan nan nan nan nan nan nan nan
 nan nan nan nan nan nan nan nan nan nan nan nan nan nan nan nan nan nan
 nan nan nan nan nan nan nan nan nan nan nan nan nan nan nan nan nan nan
 nan nan nan nan nan nan nan nan nan nan nan nan nan nan nan nan nan nan
 nan nan nan nan nan nan nan nan nan nan nan nan nan nan nan nan nan nan
 nan nan nan nan nan nan nan nan nan nan nan nan nan nan nan nan nan nan
 nan nan nan nan nan nan nan nan nan nan nan nan nan nan nan nan nan nan
 nan nan nan nan nan nan nan nan nan nan nan nan nan nan nan nan nan nan
 nan nan nan nan nan nan nan nan]","[nan nan nan nan nan nan nan nan nan nan nan nan nan nan nan nan nan nan
 nan nan nan nan nan nan nan nan nan nan nan nan nan nan nan nan nan nan
 nan nan nan nan nan nan nan nan nan nan nan nan nan nan nan nan nan nan
 nan nan nan nan nan nan nan nan nan nan nan nan nan nan nan nan nan nan
 nan nan nan nan nan nan nan nan nan nan nan nan nan nan nan nan nan nan
 nan nan nan nan nan nan nan nan nan nan nan nan nan nan nan nan nan nan
 nan nan nan nan nan nan nan nan nan nan nan nan nan nan nan nan nan nan
 nan nan nan nan nan nan nan nan nan nan nan nan nan nan]",,,6.05265,0.25715999999999983
053,1,2,csp,22b.png,1,1,340,357,345,1,1,498,pos_feedback_onset,7,"[nan nan nan nan nan nan nan nan nan nan nan nan nan nan nan nan nan nan
 nan nan nan nan nan nan nan nan nan nan nan nan nan nan nan nan nan nan
 nan nan nan nan nan nan nan nan nan nan nan nan nan nan nan nan nan nan
 nan nan nan nan nan nan nan nan nan nan nan nan nan nan nan nan nan nan
 nan nan nan nan nan nan nan nan nan nan nan nan nan nan nan nan nan nan
 nan nan nan nan nan nan nan nan nan nan nan nan nan nan nan nan nan nan
 nan nan nan nan nan nan nan nan nan nan nan nan nan nan nan nan nan nan
 nan nan nan nan nan nan nan nan nan nan nan nan nan nan nan nan nan nan
 nan nan nan nan nan nan nan nan nan nan nan nan nan nan nan nan nan nan
 nan nan nan nan nan nan nan nan nan nan nan nan nan nan nan nan nan nan
 nan nan nan nan nan nan nan nan nan nan nan nan nan nan nan nan nan nan
 nan nan nan nan nan nan nan nan nan nan nan nan nan nan nan nan nan nan
 nan nan nan nan nan nan nan nan nan nan nan nan nan nan nan nan nan nan
 nan nan nan nan nan nan nan nan nan nan nan nan nan nan nan nan nan nan
 nan nan nan nan nan nan nan nan]","[nan nan nan nan nan nan nan nan nan nan nan nan nan nan nan nan nan nan
 nan nan nan nan nan nan nan nan nan nan nan nan nan nan nan nan nan nan
 nan nan nan nan nan nan nan nan nan nan nan nan nan nan nan nan nan nan
 nan nan nan nan nan nan nan nan nan nan nan nan nan nan nan nan nan nan
 nan nan nan nan nan nan nan nan nan nan nan nan nan nan nan nan nan nan
 nan nan nan nan nan nan nan nan nan nan nan nan nan nan nan nan nan nan
 nan nan nan nan nan nan nan nan nan nan nan nan nan nan nan nan nan nan
 nan nan nan nan nan nan nan nan nan nan nan nan nan nan]",,,6.60552,
053,1,2,csp,35b.png,1,1,216,247,211,1,1,361,pos_feedback_onset,8,"[ 0.70004478  0.73540058  0.77580721  0.81284661  0.84315158  0.85830407
  0.85325324  0.81958105  0.75055307  0.64448567  0.49632805  0.30608019
  0.07205848 -0.20068624 -0.50710315 -0.84550864 -1.20580104 -1.58292955
 -1.9684761  -2.35738987 -2.74125281 -3.11164687 -3.4567868  -3.76825453
 -4.02921399 -4.2278799  -4.34909977 -4.37940474 -4.30869315 -4.13359777
 -3.85075139 -3.47193928 -3.00726309 -2.47524252 -1.8977645  -1.29671595
 -0.69230018 -0.10303689  0.45928864  0.98794199  1.47618871  1.92739603
  2.34324755  2.72711049  3.08403568  3.41739034  3.72885808  4.02180611
  4.29286722  4.54204141  4.76596146  4.96126015  5.12625387  5.25589179
  5.35185753  5.41246746  5.44108882  5.44108882  5.41751829  5.37542806
  5.31986895  5.25420818  5.18686381  5.11783582  5.05217505  4.98988151
  4.9343224   4.88381412  4.84172388  4.8097353   4.78616477  4.77101229
  4.76764507  4.77437951  4.78784838  4.8097353   4.83835666  4.86866163
  4.90233382  4.9343224   4.96294376  4.98988151  5.01345204  5.03365535
  5.05049145  5.06396032  5.07574559  5.08584724  5.0959489   5.10268334
  5.11110138  5.11951943  5.12625387  5.13298831  5.13972274  5.14814079
  5.15487523  5.16160967  5.1683441   5.17507854  5.18181298  5.18686381
  5.19359824  5.19696546  5.20033268  5.20201629  5.20201629  5.20201629
  5.20201629  5.2036999   5.20875073  5.2222196   5.24915735  5.29124759
  5.35690835  5.44782326  5.56904314  5.72056798  5.9023978   6.11116536
  6.34013624  6.5842596   6.8351174   7.0859752   7.33009856  7.56412026
  7.78467309  7.98670622  8.17358686  8.34363141  8.49852347  8.63826305
  8.76285015  8.87228476  8.96656688  9.0406457   9.0945212   9.11809173
  9.11135729  9.06421623  8.97161771  8.83187813  8.63826305  8.39413969
  8.09950805  7.76110256  7.38397406  6.97990781  6.55732185  6.12800145
  5.7054155   5.30134924  4.92422074  4.58581525  4.29118361  4.04706025
  3.85512878  3.71370559  3.61773986  3.56386435  3.54366104  3.54534465
  3.56386435  3.5891185   3.61437264  3.63289234  3.63962678  3.63289234
  3.60932181  3.56891518  3.51167246  3.44432809  3.36519845  3.28101798
  3.19683751  3.11434065  3.04026183  2.97628468  2.92409279  2.88536977
  2.85843202  2.84159593  2.8365451   2.83822871  2.84496315  2.85674841
  2.8719009   2.89210421  2.91904196  2.95271415  2.99648799  3.05373071
  3.1227587   3.20862277  3.30963934  3.42749199  3.56049714  3.70865476
  3.87028126  4.04200942  4.22383924  4.41240349  4.60770218  4.80805169
  5.01176843  5.21885238  5.42761995  5.63975473  5.85188951  6.0640243
  6.27447547  6.48324304  6.68695977  6.88225846  7.06577188  7.2307656
  7.3738724   7.49172506  7.57927275  7.63314825  7.65503517  7.6415663
  7.59779245  7.52708086  7.43111512  7.3199969   7.19709342  7.06745549
  6.93950118  6.81491409  6.69874504  6.59267765  6.49839552  6.41421505
  6.34013624  6.27615908  6.21723275  6.16504086  6.11453258  6.06570791
  6.01688323  5.96805856  5.9209175   5.87377644  5.82663537  5.78117792
  5.73908769  5.69699745  5.65995804  5.62460225  5.59261367  5.5623087
  5.53537095  5.51348403  5.49328071  5.47981184  5.47139379  5.4730774
  5.48317906  5.50338237]","[nan nan nan nan nan nan nan nan nan nan nan nan nan nan nan nan nan nan
 nan nan nan nan nan nan nan nan nan nan nan nan nan nan nan nan nan nan
 nan nan nan nan nan nan nan nan nan nan nan nan nan nan nan nan nan nan
 nan nan nan nan nan nan nan nan nan nan nan nan nan nan nan nan nan nan
 nan nan nan nan nan nan nan nan nan nan nan nan nan nan nan nan nan nan
 nan nan nan nan nan nan nan nan nan nan nan nan nan nan nan nan nan nan
 nan nan nan nan nan nan nan nan nan nan nan nan nan nan nan nan nan nan
 nan nan nan nan nan nan nan nan nan nan nan nan nan nan]",7.28464110498652,,5.93962,0.2924049999999987
053,1,2,csm,2a.png,1,1,36,126,44,1,1,224,neu_feedback_onset,9,"[-0.47793913 -0.43371584 -0.40750944 -0.40095784 -0.41406104 -0.44026744
 -0.47466333 -0.50414552 -0.51724872 -0.50578342 -0.45500853 -0.35837245
 -0.21423728 -0.02096512  0.21489244  0.48678379  0.78160573  1.08625507
  1.38599072  1.66934736  1.92485971  2.14597617  2.32286934  2.45553921
  2.54071     2.58165749  2.58001959  2.5439858   2.48174561  2.40640222
  2.33105884  2.27209445  2.24425015  2.26226705  2.33761044  2.47191821
  2.66846617  2.92070272  3.21388677  3.53491511  3.86249505  4.17697179
  4.46032843  4.69454809  4.86816545  4.97626683  5.01393853  4.98609423
  4.89600975  4.75351248  4.56679191  4.34403755  4.0950768   3.82809915
  3.5496562   3.26957536  2.99440821  2.73070636  2.48829721  2.27373235
  2.09683918  1.96416931  1.88227432  1.85443003  1.87899852  1.95434191
  2.06899489  2.21149216  2.36873053  2.524331    2.66846617  2.78967075
  2.88139313  2.94035752  2.96820182  2.96983972  2.95182282  2.91906482
  2.88303103  2.84535934  2.81423924  2.79458445  2.78475705  2.78967075
  2.80768765  2.83880774  2.88139313  2.93216802  2.99113241  3.0550105
  3.12380229  3.19750777  3.27285116  3.35474614  3.44155483  3.53982881
  3.65120599  3.78060006  3.92964893  4.1016284   4.29653846  4.51274122
  4.74859878  4.99919743  5.25798558  5.51677373  5.77064818  6.00978154
  6.23089799  6.42744596  6.59614963  6.7353711   6.84674828  6.93028116
  6.98760765  7.02527934  7.04329624  7.04820994  7.04165834  7.02691724
  7.00562455  6.98105605  6.95321176  6.92372956  6.89424737  6.86312727
  6.83364508  6.80416289  6.77468069  6.7501122   6.7271816   6.7108026
  6.70261311  6.704251    6.72063     6.753388    6.80580079  6.88278207
  6.98596975  7.11536383  7.2742401   7.46096066  7.67224972  7.90810728
  8.16525753  8.43714888  8.72541922  9.02187906  9.32816631  9.63772935
  9.95220609 10.26832073 10.58607327 10.90382581 11.21994045 11.53277929
 11.84070443 12.14044007 12.43034832 12.70715336 12.96266571 13.19360957
 13.39343333 13.5555854  13.67515208 13.74558177 13.76523656 13.73247857
 13.64730778 13.51136211 13.32955524 13.10843879 12.85620223 12.58103509
 12.28948894 11.9913912  11.69493136 11.40502311 11.12985596 10.87434361
 10.64339976 10.43702439 10.25849333 10.10944446  9.98496408  9.8850522
  9.80479512  9.74255493  9.69014214  9.64755675  9.61152295  9.57712706
  9.54436906  9.51324897  9.48212888  9.45100878  9.41988869  9.38876859
  9.3576485   9.32489051  9.29377041  9.26101242  9.22825442  9.19713433
  9.16437634  9.13325624  9.10049825  9.06774026  9.03662016  9.00386217
  8.97274207  8.93998408  8.90722609  8.87610599  8.843348    8.8122279
  8.77946991  8.74671192  8.71559182  8.68283383  8.65171373  8.61895574
  8.58619775  8.55507765  8.52231966  8.49119956  8.45844157  8.42568358
  8.39456348  8.36180549  8.3306854   8.2979274   8.26516941  8.23404931
  8.20129132  8.16853333  8.13741323  8.10465524  8.07353514  8.04077715
  8.00801916  7.97689906  7.94414107  7.91302097  7.88026298  7.84750499
  7.81638489  7.7836269   7.75250681  7.71974881  7.68699082  7.65587072
  7.62311273  7.59199264  7.55923464  7.52647665  7.49535655  7.46259856
  7.43147847  7.39872047]","[nan nan nan nan nan nan nan nan nan nan nan nan nan nan nan nan nan nan
 nan nan nan nan nan nan nan nan nan nan nan nan nan nan nan nan nan nan
 nan nan nan nan nan nan nan nan nan nan nan nan nan nan nan nan nan nan
 nan nan nan nan nan nan nan nan nan nan nan nan nan nan nan nan nan nan
 nan nan nan nan nan nan nan nan nan nan nan nan nan nan nan nan nan nan
 nan nan nan nan nan nan nan nan nan nan nan nan nan nan nan nan nan nan
 nan nan nan nan nan nan nan nan nan nan nan nan nan nan nan nan nan nan
 nan nan nan nan nan nan nan nan nan nan nan nan nan nan]",11.701401059393547,,6.1053799999999985,
053,1,2,csm,49a.png,1,1,300,56,297,1,1,456,neu_feedback_onset,10,"[nan nan nan nan nan nan nan nan nan nan nan nan nan nan nan nan nan nan
 nan nan nan nan nan nan nan nan nan nan nan nan nan nan nan nan nan nan
 nan nan nan nan nan nan nan nan nan nan nan nan nan nan nan nan nan nan
 nan nan nan nan nan nan nan nan nan nan nan nan nan nan nan nan nan nan
 nan nan nan nan nan nan nan nan nan nan nan nan nan nan nan nan nan nan
 nan nan nan nan nan nan nan nan nan nan nan nan nan nan nan nan nan nan
 nan nan nan nan nan nan nan nan nan nan nan nan nan nan nan nan nan nan
 nan nan nan nan nan nan nan nan nan nan nan nan nan nan nan nan nan nan
 nan nan nan nan nan nan nan nan nan nan nan nan nan nan nan nan nan nan
 nan nan nan nan nan nan nan nan nan nan nan nan nan nan nan nan nan nan
 nan nan nan nan nan nan nan nan nan nan nan nan nan nan nan nan nan nan
 nan nan nan nan nan nan nan nan nan nan nan nan nan nan nan nan nan nan
 nan nan nan nan nan nan nan nan nan nan nan nan nan nan nan nan nan nan
 nan nan nan nan nan nan nan nan nan nan nan nan nan nan nan nan nan nan
 nan nan nan nan nan nan nan nan]","[nan nan nan nan nan nan nan nan nan nan nan nan nan nan nan nan nan nan
 nan nan nan nan nan nan nan nan nan nan nan nan nan nan nan nan nan nan
 nan nan nan nan nan nan nan nan nan nan nan nan nan nan nan nan nan nan
 nan nan nan nan nan nan nan nan nan nan nan nan nan nan nan nan nan nan
 nan nan nan nan nan nan nan nan nan nan nan nan nan nan nan nan nan nan
 nan nan nan nan nan nan nan nan nan nan nan nan nan nan nan nan nan nan
 nan nan nan nan nan nan nan nan nan nan nan nan nan nan nan nan nan nan
 nan nan nan nan nan nan nan nan nan nan nan nan nan nan]",,,5.562015000000001,
053,1,2,csp,27b.png,1,1,12,243,11,1,1,458,pos_feedback_onset,11,"[ 3.86477488  3.53935739  3.20332846  2.85138236  2.48351911  2.09443297
  1.68766111  1.26143493  0.82106017  0.36653682 -0.09506082 -0.5601956
 -1.02886754 -1.49753947 -1.96621141 -2.43665191 -2.91416671 -3.39698724
 -3.88865062 -4.38915688 -4.8914317  -5.39016939 -5.87475848 -6.32751325
 -6.73428512 -7.07561977 -7.33560005 -7.50007738 -7.55490315 -7.49300308
 -7.3126086  -7.01371971 -6.59987355 -6.07814441 -5.45737517 -4.74464012
 -3.94878212 -3.07864403 -2.14306874 -1.14913053 -0.10567226  0.97669462
  2.08735868  3.21040275  4.33167824  5.42996229  6.48933771  7.48858165
  8.41531408  9.25184926  9.98934435 10.62072503 11.14422273 11.56337461
 11.87994924 12.10102091 12.23366391 12.28672111 12.26549823 12.17883814
 12.0285094  11.81981775 11.55806889 11.24679999 10.88954817 10.49161917
 10.05831871  9.59495249  9.10682625  8.60101428  8.08105372  7.55225029
  7.01637257  6.48049485  5.94461713  5.41404513  4.89408456  4.38650402
  3.90191492  3.445623    3.02823969  2.65860787  2.35087611  2.11211871
  1.94940996  1.86805559  1.86982416  1.94940996  2.09620155  2.30135605
  2.54718775  2.81954804  3.10251977  3.38018579  3.64370322  3.88069204
  4.0893837   4.26447246  4.4077269   4.52268416  4.6128814   4.68716148
  4.75083012  4.81626734  4.88701027  4.97543894  5.08509048  5.22480778
  5.39459082  5.59620818  5.82612271  6.08079727  6.35315757  6.63436073
  6.91556389  7.18615561  7.43906159  7.66720756  7.8635192   8.02622794
  8.15356522  8.24906818  8.3145054   8.35518258  8.38171118  8.39762834
  8.41177693  8.43123124  8.46483413  8.51789133  8.59217141  8.69121152
  8.81678022  8.96534038  9.13335485  9.3155179   9.50652382  9.69576117
  9.88146137 10.05655013 10.21572173 10.35897617 10.48277631 10.58889071
 10.6755508  10.74629373 10.80288808 10.84710241 10.88070531 10.90546533
 10.92315107 10.93553108 10.94260537 10.94614252 10.94614252 10.94614252
 10.94437395 10.9408368  10.93729965 10.93199393 10.92845679 10.92315107
 10.91784535 10.9143082  10.90900248 10.90369676 10.89839104 10.89485389
 10.88954817 10.88424245 10.87893673 10.87363101 10.87009387 10.86478815
 10.85948243 10.85417671 10.85063956 10.84533384 10.84002812 10.8347224
 10.82941668 10.82587953 10.82057381 10.81526809 10.80996237 10.80465665
 10.80111951 10.79581379 10.79050807 10.78520235 10.77989663 10.77635948
 10.77105376 10.76574804 10.76044232 10.75690517 10.75159945 10.74629373
 10.74098801 10.73568229 10.73214515 10.72683943 10.72153371 10.71622799
 10.71092227 10.70738512 10.7020794  10.69677368 10.69146796 10.68793081
 10.68262509 10.67731937 10.67201365 10.66670793 10.66317079 10.65786507
 10.65255935 10.64725363 10.64194791 10.63841076 10.63310504 10.62779932
 10.6224936  10.61895645 10.61365073 10.60834501 10.60303929 10.59773357
 10.59419643 10.58889071 10.58358499 10.57827927 10.57297355 10.5694364
 10.56413068 10.55882496 10.55351924 10.54998209 10.54467637 10.53937065
 10.53406493 10.52875921 10.52522207 10.51991635 10.51461063 10.50930491
 10.50399919 10.50046204 10.49515632 10.4898506  10.48454488 10.48100773
 10.47570201 10.47039629 10.46509057 10.45978485 10.45624771 10.45094199
 10.44563627 10.44033055]","[nan nan nan nan nan nan nan nan nan nan nan nan nan nan nan nan nan nan
 nan nan nan nan nan nan nan nan nan nan nan nan nan nan nan nan nan nan
 nan nan nan nan nan nan nan nan nan nan nan nan nan nan nan nan nan nan
 nan nan nan nan nan nan nan nan nan nan nan nan nan nan nan nan nan nan
 nan nan nan nan nan nan nan nan nan nan nan nan nan nan nan nan nan nan
 nan nan nan nan nan nan nan nan nan nan nan nan nan nan nan nan nan nan
 nan nan nan nan nan nan nan nan nan nan nan nan nan nan nan nan nan nan
 nan nan nan nan nan nan nan nan nan nan nan nan nan nan]",7.706160383073015,,5.654274999999998,
053,1,2,csp,1b.png,1,1,120,149,116,1,1,362,pos_feedback_onset,12,"[ 1.16739872  1.2417185   1.31438674  1.37219102  1.40191894  1.39366118
  1.33090225  1.21033904  1.02371379  0.77598117  0.47209581  0.12527013
 -0.25458656 -0.65261032 -1.05393717 -1.45030938 -1.83346917 -2.19681036
 -2.53702983 -2.8508245  -3.13323969 -3.38097232 -3.58906772 -3.75091971
 -3.85827051 -3.90451394 -3.88469533 -3.79386003 -3.6336596  -3.40739713
 -3.12002728 -2.78311091 -2.40490577 -1.99697271 -1.56591794 -1.11999921
 -0.66251962 -0.20173694  0.26234885  0.72643464  1.18391423  1.6314845
  2.06419083  2.47707854  2.86519299  3.22523107  3.55884434  3.86107815
  4.13688714  4.38296822  4.60262448  4.79420438  4.95935946  5.09643818
  5.20709209  5.29297273  5.35408012  5.39536889  5.4184906   5.43335456
  5.44491541  5.46143092  5.49115884  5.53740226  5.60841895  5.70586045
  5.82642366  5.96845703  6.12370281  6.28390324  6.43914902  6.58118239
  6.70339716  6.79753556  6.86524914  6.90653791  6.92305342  6.91809877
  6.89828016  6.86690069  6.82230882  6.76615609  6.69679095  6.60925876
  6.49860485  6.35987458  6.18811329  5.98332099  5.74054301  5.46473402
  5.15589401  4.81732609  4.457288    4.07908286  3.69261996  3.30120241
  2.91473951  2.54148902  2.19466334  1.88252023  1.6182721   1.41513134
  1.28631038  1.24006695  1.28135573  1.41017669  1.6182721   1.89573264
  2.21943661  2.56461073  2.90648176  3.21532177  3.4696606   3.64802809
  3.73556028  3.72730253  3.62160328  3.42506873  3.14595663  2.8007825
  2.4077134   1.97996173  1.53899766  1.09968513  0.67358501  0.27390971
 -0.09273458 -0.41974165 -0.70380839 -0.94493482 -1.14312092 -1.2983667
 -1.41397526 -1.49159815 -1.53619002 -1.55105398 -1.53784157 -1.50150745
 -1.44535472 -1.37103494 -1.28515429 -1.18771279 -1.08201354 -0.96805653
 -0.85079642 -0.72693011 -0.60141224 -0.47424283 -0.34377031 -0.21164624
 -0.07787062  0.055905    0.19133217  0.32675934  0.46383806  0.60091678
  0.7379955   0.87507422  1.01215294  1.15088321  1.28796193  1.42504065
  1.56377092  1.70084964  1.83792836  1.97665863  2.11373735  2.24916452
  2.38624324  2.52167041  2.65379448  2.784267    2.91143641  3.03199962
  3.14430508  3.24670123  3.33753653  3.41350787  3.4696606   3.50764627
  3.52581333  3.52085867  3.49443386  3.44984199  3.38708306  3.30780861
  3.21697332  3.11953182  3.01548411  2.90978486  2.80573716  2.70499256
  2.60920261  2.51836731  2.43578977  2.35816688  2.28715019  2.21943661
  2.15832923  2.10052495  2.04437222  1.98987104  1.93702141  1.88582334
  1.83462526  1.78342718  1.73388066  1.68268258  1.63313606  1.58193798
  1.53239145  1.48119338  1.43164685  1.38210033  1.33090225  1.28135573
  1.23015765  1.18061112  1.1310646   1.07986652  1.03032     0.97912192
  0.92957539  0.88002887  0.82883079  0.77928427  0.72808619  0.67853967
  0.62734159  0.57779506  0.52824854  0.47705046  0.42750394  0.37630586
  0.32675934  0.27721281  0.22601473  0.17646821  0.12527013  0.07572361
  0.02617708 -0.025021   -0.07456752 -0.1257656  -0.17531212 -0.22485865
 -0.27605672 -0.32560325 -0.37680133 -0.42634785 -0.47754593 -0.52709245
 -0.57663898 -0.62783705 -0.67738358 -0.72858166 -0.77812818 -0.82767471
 -0.87887278 -0.92841931]","[nan nan nan nan nan nan nan nan nan nan nan nan nan nan nan nan nan nan
 nan nan nan nan nan nan nan nan nan nan nan nan nan nan nan nan nan nan
 nan nan nan nan nan nan nan nan nan nan nan nan nan nan nan nan nan nan
 nan nan nan nan nan nan nan nan nan nan nan nan nan nan nan nan nan nan
 nan nan nan nan nan nan nan nan nan nan nan nan nan nan nan nan nan nan
 nan nan nan nan nan nan nan nan nan nan nan nan nan nan nan nan nan nan
 nan nan nan nan nan nan nan nan nan nan nan nan nan nan nan nan nan nan
 nan nan nan nan nan nan nan nan nan nan nan nan nan nan]",5.889636766164342,,6.054915,
053,1,2,csm,34a.png,1,1,16,291,15,1,1,631,neu_feedback_onset,13,"[ 1.07640526  1.27965399  1.47477277  1.64712769  1.78208484  1.85850637
  1.86501033  1.78696281  1.61623388  1.34957155  0.99347978  0.55283654
  0.03739777 -0.53657664 -1.15607876 -1.80647469 -2.47313052 -3.13978634
 -3.79343425 -4.41456236 -4.98853677 -5.49421961 -5.91535097 -6.230793
 -6.42591177 -6.49257736 -6.42428578 -6.22754102 -5.91372498 -5.50397555
 -5.02105657 -4.49586186 -3.95603324 -3.42596055 -2.92678168 -2.47150453
 -2.06825905 -1.71541926 -1.40810719 -1.1349409  -0.88453846 -0.64389197
 -0.40161949 -0.14471309  0.13333117  0.43901725  0.77071918  1.13006293
  1.51379652  1.91541601  2.32841742  2.7479228   3.1625502   3.56579568
  3.9462773   4.29586511  4.60317718  4.86008358  5.06008032  5.19666347
  5.26983301  5.27958895  5.23080926  5.13324987  4.99829271  4.83731972
  4.66659079  4.49423587  4.33488886  4.19505374  4.08123445  3.99668298
  3.94302532  3.92188745  3.93326938  3.97554511  4.04871466  4.14952602
  4.27635323  4.42594429  4.59016927  4.76577617  4.94138307  5.11048601
  5.26332905  5.39340824  5.49421961  5.56088519  5.59503098  5.59665696
  5.56901514  5.51860945  5.44869189  5.36414042  5.26983301  5.16902164
  5.0633323   4.95439099  4.84219769  4.72675241  4.60805515  4.48773191
  4.36578267  4.24058145  4.11538024  3.98692704  3.86009984  3.73002065
  3.60156745  3.47148827  3.34303507  3.21295589  3.0828767   2.95117153
  2.81946635  2.68776117  2.55280402  2.41784686  2.28126372  2.14305458
  2.00159347  1.86175835  1.72029723  1.5820881   1.44713094  1.31867775
  1.19998049  1.09591714  1.0064877   0.93494415  0.88453846  0.85201867
  0.83738476  0.83575877  0.84388872  0.85201867  0.85527065  0.84388872
  0.81136892  0.7512073   0.65852588  0.53007268  0.36584771  0.17072893
 -0.05365766 -0.29755614 -0.55608852 -0.81787288 -1.07477927 -1.32030373
 -1.54794231 -1.75281703 -1.93167591 -2.08451895 -2.20972017 -2.31053154
 -2.38857905 -2.44711468 -2.48939042 -2.52028422 -2.5397961  -2.55280402
 -2.56093397 -2.56581194 -2.56906392 -2.57068991 -2.57068991 -2.5723159
 -2.5723159  -2.5723159  -2.5723159  -2.57394189 -2.57394189 -2.57394189
 -2.57394189 -2.57556788 -2.57556788 -2.57556788 -2.57556788 -2.57556788
 -2.57719387 -2.57719387 -2.57719387 -2.57719387 -2.57881986 -2.57881986
 -2.57881986 -2.57881986 -2.57881986 -2.58044585 -2.58044585 -2.58044585
 -2.58044585 -2.58207184 -2.58207184 -2.58207184 -2.58207184 -2.58369783
 -2.58369783 -2.58369783 -2.58369783 -2.58369783 -2.58532382 -2.58532382
 -2.58532382 -2.58532382 -2.58694981 -2.58694981 -2.58694981 -2.58694981
 -2.58694981 -2.5885758  -2.5885758  -2.5885758  -2.5885758  -2.59020179
 -2.59020179 -2.59020179 -2.59020179 -2.59182778 -2.59182778 -2.59182778
 -2.59182778 -2.59182778 -2.59345376 -2.59345376 -2.59345376 -2.59345376
 -2.59507975 -2.59507975 -2.59507975 -2.59507975 -2.59507975 -2.59670574
 -2.59670574 -2.59670574 -2.59670574 -2.59833173 -2.59833173 -2.59833173
 -2.59833173 -2.59995772 -2.59995772 -2.59995772 -2.59995772 -2.59995772
 -2.60158371 -2.60158371 -2.60158371 -2.60158371 -2.6032097  -2.6032097
 -2.6032097  -2.6032097  -2.6032097  -2.60483569 -2.60483569 -2.60483569
 -2.60483569 -2.60646168]","[-7.15015409 -6.5859382  -5.9768415  -5.3335499  -4.6560634  -3.95293072
 -3.22628904 -2.48041273 -1.71102743 -0.91813313 -0.09531829  0.75741709
  1.64648455  2.57402128  3.54430163  4.55518844  5.6045445   6.68809547
  7.79515544  8.92145003 10.05843054 11.19754823 12.33239155 13.45441178
 14.56147175 15.65143426 16.71788778 17.75655794 18.76530756 19.7377251
 20.66739901 21.55219211 22.38141849 23.15721534 23.87530829 24.5399717
 25.15547995 25.73251892 26.28391173 26.82248144 27.36318833 27.91671832
 28.48948293 29.08789372 29.70767633 30.33814484 30.96861335 31.57771005
 32.14620031 32.65484948 33.08442294 33.42423478 33.66573628 33.80465307
 33.84525952 33.79610435 33.66787346 33.47338995 33.22547691 32.9390946
 32.62279176 32.28939146 31.94530525 31.59908187 31.25713284 30.93014409
 30.62025279 30.33814484 30.0902318  29.8829252  29.71622505 29.59868008
 29.52174155 29.48327228 29.47472356 29.47899792 29.48540946 29.47686074
 29.43839147 29.35931576 29.23108488 29.04728728 28.81219732 28.53008938
 28.20951217 27.85901442 27.4935564  27.12168683 26.75195445 26.39290798
 26.04241023 25.7004612  25.36064936 25.01228879 24.65110514 24.27068685
 23.86462238 23.4371861  22.98837801 22.52888401 22.06725282 21.61630755
 21.18245972 20.77853244 20.40666288 20.07326258 19.78474309 19.54324159
 19.35089527 19.21839002 19.1521374  19.15854894 19.24831056 19.42569661
 19.69498147 20.05830231 20.5071104  21.03499421 21.62913064 22.2766966
 22.96486901 23.68296196 24.42028955 25.16830304 25.92059089 26.67287874
 27.41448069 28.13471082 28.82288323 29.46190047 30.04107663 30.54545144
 30.96433899 31.29346493 31.53924079 31.70807812 31.81280001 31.87477827
 31.91111035 31.94103089]",4.654517812718505,30.437042910328096,6.150099999999999,
053,1,2,csm,43a.png,1,1,140,63,325,1,1,377,neu_feedback_onset,14,"[  0.88975281   1.12056663   1.30831817   1.44094999   1.51157213
   1.51329462   1.44439497   1.30659568   1.10161923   0.83807808
   0.52286219   0.16286154  -0.22814396  -0.64326433  -1.06871965
  -1.49245247  -1.90412786  -2.2865209   -2.62757416  -2.91006271
  -3.11676165  -3.23561354  -3.25283845  -3.1649914   -2.9703499
  -2.67408142  -2.28996589  -1.8386732   -1.34087325  -0.81723594
  -0.29359862   0.21625877   0.69855629   1.14812649   1.56496935
   1.95425236   2.32631045   2.6880336    3.05320172   3.4287048
   3.81971029   4.22277323   4.63444862   5.04095653   5.42679456
   5.77473777   6.06583878   6.28287267   6.41550449   6.45339929
   6.40172456   6.26737025   6.06583878   5.81607756   5.54220146
   5.27004786   5.02373162   4.81875517   4.67234342   4.59310883
   4.58449637   4.64133858   4.75846798   4.92382713   5.1253586
   5.34411498   5.56459385   5.7695703    5.94354191   6.06756127
   6.13301594   6.12440348   6.03483394   5.86086233   5.60076616
   5.25454544   4.82909012   4.32956768   3.76631307   3.14621625
   2.47961216   1.77339078   1.03788705   0.27826845  -0.49857507
  -1.29092101  -2.0918794   -2.89972776  -3.7110211   -4.52059195
  -5.32671782  -6.11906376  -6.89590727  -7.64863592  -8.37208221
  -9.05763369  -9.7001229  -10.29265986 -10.83352209 -11.3192646
 -11.7481649  -12.12022299 -12.43543888 -12.69898003 -12.91084644
 -13.0744831  -13.19505748 -13.27429208 -13.31563187 -13.32424432
 -13.30012945 -13.24328724 -13.15716268 -13.03831079 -12.88500907
 -12.69898003 -12.47333368 -12.20979253 -11.9049116  -11.55696838
 -11.16768538 -10.73706258 -10.26854499  -9.76902255  -9.24194025
  -8.69763304  -8.14471337  -7.59007122  -7.04404152  -6.51523673
  -6.00882432  -5.53341676  -5.08729155  -4.67561616  -4.29150063
  -3.93149997  -3.58872423  -3.25111596  -2.9117852   -2.55695202
  -2.17972645  -1.77321854  -1.33742827  -0.87063316  -0.37972318
   0.12496673   0.63310163   1.12917909   1.59941918   2.03176446
   2.41243501   2.73626335   3.00152699   3.20478095   3.35291519
   3.45109718   3.50793939   3.53033178   3.52860929   3.50793939
   3.47348957   3.43042729   3.38219754   3.3305228    3.27540308
   3.22028337   3.16516365   3.11004393   3.05320172   2.99635951
   2.9412398    2.88439759   2.82755538   2.77243566   2.71559345
   2.65875125   2.60363153   2.54678932   2.48994711   2.43482739
   2.37798518   2.32114298   2.26602326   2.20918105   2.15233884
   2.09721912   2.04037692   1.98353471   1.92841499   1.87157278
   1.81473057   1.75961085   1.70276865   1.64592644   1.59080672
   1.53396451   1.4771223    1.42200259   1.36516038   1.30831817
   1.25319845   1.19635624   1.13951403   1.08439432   1.02755211
   0.9707099    0.91559018   0.85874797   0.80190576   0.74678605
   0.68994384   0.63310163   0.57798191   0.5211397    0.46429749
   0.40917778   0.35233557   0.29549336   0.24037364   0.18353143
   0.12668923   0.07156951   0.0147273   -0.04211491  -0.09723463
  -0.15407684  -0.21091904  -0.26603876  -0.32288097  -0.37972318
  -0.4348429   -0.4916851   -0.54852731  -0.60364703  -0.66048924
  -0.71733145  -0.77245117  -0.82929337  -0.88613558  -0.9412553
  -0.99809751  -1.05493972  -1.11005943  -1.16690164  -1.22374385
  -1.27886357  -1.33570578  -1.39254799  -1.4476677   -1.50450991
  -1.56135212  -1.61647184  -1.67331405  -1.72843376  -1.78527597
  -1.84039569  -1.89551541  -1.94719014  -1.99714239  -2.04192716]","[nan nan nan nan nan nan nan nan nan nan nan nan nan nan nan nan nan nan
 nan nan nan nan nan nan nan nan nan nan nan nan nan nan nan nan nan nan
 nan nan nan nan nan nan nan nan nan nan nan nan nan nan nan nan nan nan
 nan nan nan nan nan nan nan nan nan nan nan nan nan nan nan nan nan nan
 nan nan nan nan nan nan nan nan nan nan nan nan nan nan nan nan nan nan
 nan nan nan nan nan nan nan nan nan nan nan nan nan nan nan nan nan nan
 nan nan nan nan nan nan nan nan nan nan nan nan nan nan nan nan nan nan
 nan nan nan nan nan nan nan nan nan nan nan nan nan nan]",4.280778118161181,,5.8055449999999995,0.1359899999999996
053,2,2,csp,50b.png,1,1,132,118,123,1,0,577,neg_feedback_onset,1,"[nan nan nan nan nan nan nan nan nan nan nan nan nan nan nan nan nan nan
 nan nan nan nan nan nan nan nan nan nan nan nan nan nan nan nan nan nan
 nan nan nan nan nan nan nan nan nan nan nan nan nan nan nan nan nan nan
 nan nan nan nan nan nan nan nan nan nan nan nan nan nan nan nan nan nan
 nan nan nan nan nan nan nan nan nan nan nan nan nan nan nan nan nan nan
 nan nan nan nan nan nan nan nan nan nan nan nan nan nan nan nan nan nan
 nan nan nan nan nan nan nan nan nan nan nan nan nan nan nan nan nan nan
 nan nan nan nan nan nan nan nan nan nan nan nan nan nan nan nan nan nan
 nan nan nan nan nan nan nan nan nan nan nan nan nan nan nan nan nan nan
 nan nan nan nan nan nan nan nan nan nan nan nan nan nan nan nan nan nan
 nan nan nan nan nan nan nan nan nan nan nan nan nan nan nan nan nan nan
 nan nan nan nan nan nan nan nan nan nan nan nan nan nan nan nan nan nan
 nan nan nan nan nan nan nan nan nan nan nan nan nan nan nan nan nan nan
 nan nan nan nan nan nan nan nan nan nan nan nan nan nan nan nan nan nan
 nan nan nan nan nan nan nan nan]","[nan nan nan nan nan nan nan nan nan nan nan nan nan nan nan nan nan nan
 nan nan nan nan nan nan nan nan nan nan nan nan nan nan nan nan nan nan
 nan nan nan nan nan nan nan nan nan nan nan nan nan nan nan nan nan nan
 nan nan nan nan nan nan nan nan nan nan nan nan nan nan nan nan nan nan
 nan nan nan nan nan nan nan nan nan nan nan nan nan nan nan nan nan nan
 nan nan nan nan nan nan nan nan nan nan nan nan nan nan nan nan nan nan
 nan nan nan nan nan nan nan nan nan nan nan nan nan nan nan nan nan nan
 nan nan nan nan nan nan nan nan nan nan nan nan nan nan]",,,6.364375,
053,2,2,csm,5a.png,1,1,20,130,19,1,1,334,neu_feedback_onset,2,"[-3.09217137e+00 -2.77397156e+00 -2.41314211e+00 -2.02186292e+00
 -1.60622393e+00 -1.17992753e+00 -7.50586158e-01 -3.31902195e-01
  6.69894339e-02  4.38476295e-01  7.70378490e-01  1.05508358e+00
  1.28802412e+00  1.46158765e+00  1.57272921e+00  1.62449377e+00
  1.61535885e+00  1.55141439e+00  1.43875034e+00  1.28650163e+00
  1.10075820e+00  8.93699948e-01  6.72939314e-01  4.46088731e-01
  2.23805609e-01  9.13492281e-03 -1.90310892e-01 -3.69964374e-01
 -5.26780549e-01 -6.59236929e-01 -7.65811029e-01 -8.43457873e-01
 -8.95222435e-01 -9.21104717e-01 -9.19582230e-01 -8.95222435e-01
 -8.48025334e-01 -7.81035900e-01 -6.98821595e-01 -6.04427393e-01
 -5.02420755e-01 -3.95846655e-01 -2.89272556e-01 -1.87265918e-01
 -9.28717152e-02 -7.61243567e-03  6.85119211e-02  1.32456381e-01
  1.87265918e-01  2.31418045e-01  2.69480223e-01  2.98407478e-01
  3.24289760e-01  3.45604580e-01  3.65396912e-01  3.82144271e-01
  3.98891629e-01  4.14116501e-01  4.27818885e-01  4.43043756e-01
  4.56746140e-01  4.71971012e-01  4.85673396e-01  5.00898267e-01
  5.14600652e-01  5.29825523e-01  5.43527907e-01  5.57230291e-01
  5.72455163e-01  5.86157547e-01  6.01382418e-01  6.15084803e-01
  6.30309674e-01  6.44012058e-01  6.57714442e-01  6.72939314e-01
  6.86641698e-01  7.01866569e-01  7.15568953e-01  7.30793825e-01
  7.44496209e-01  7.58198593e-01  7.73423465e-01  7.87125849e-01
  8.00828233e-01  8.13008130e-01  8.25188027e-01  8.34322950e-01
  8.40412899e-01  8.40412899e-01  8.32800463e-01  8.14530617e-01
  7.79513413e-01  7.24703876e-01  6.42489571e-01  5.31348010e-01
  3.83666758e-01  1.97923328e-01 -2.43597942e-02 -2.80137633e-01
 -5.64842727e-01 -8.67817667e-01 -1.17536007e+00 -1.47224506e+00
 -1.74324777e+00 -1.97466581e+00 -2.15431930e+00 -2.27307329e+00
 -2.32483786e+00 -2.31265796e+00 -2.23805609e+00 -2.11473463e+00
 -1.95182851e+00 -1.76456259e+00 -1.56968424e+00 -1.37937334e+00
 -1.20885479e+00 -1.06726348e+00 -9.65256844e-01 -9.08924820e-01
 -8.96744923e-01 -9.33284614e-01 -1.01397643e+00 -1.13577540e+00
 -1.29411406e+00 -1.48290247e+00 -1.69757316e+00 -1.93051369e+00
 -2.18020158e+00 -2.44054688e+00 -2.70850461e+00 -2.98102981e+00
 -3.25812247e+00 -3.53673761e+00 -3.81687525e+00 -4.09701288e+00
 -4.37715051e+00 -4.65728815e+00 -4.93590329e+00 -5.21299595e+00
 -5.48552115e+00 -5.75500137e+00 -6.01686916e+00 -6.27112451e+00
 -6.51319996e+00 -6.74157303e+00 -6.95319875e+00 -7.14503212e+00
 -7.31555068e+00 -7.46323194e+00 -7.58807588e+00 -7.69008252e+00
 -7.77077434e+00 -7.83167382e+00 -7.87582595e+00 -7.90627569e+00
 -7.92454554e+00 -7.93520295e+00 -7.93824792e+00 -7.93672543e+00
 -7.93368046e+00 -7.92759051e+00 -7.91997808e+00 -7.91084315e+00
 -7.90170823e+00 -7.89409579e+00 -7.88496087e+00 -7.87430346e+00
 -7.86516854e+00 -7.85603362e+00 -7.84689869e+00 -7.83776377e+00
 -7.82862885e+00 -7.81949393e+00 -7.81035900e+00 -7.80122408e+00
 -7.79208916e+00 -7.78143175e+00 -7.77229682e+00 -7.76316190e+00
 -7.75402698e+00 -7.74489206e+00 -7.73575713e+00 -7.72662221e+00
 -7.71748729e+00 -7.70835236e+00 -7.69769495e+00 -7.68856003e+00
 -7.67942511e+00 -7.67029019e+00 -7.66115526e+00 -7.65202034e+00
 -7.64288542e+00 -7.63375049e+00 -7.62461557e+00 -7.61395816e+00
 -7.60482324e+00 -7.59568832e+00 -7.58655339e+00 -7.57741847e+00
 -7.56828355e+00 -7.55914863e+00 -7.55001370e+00 -7.54087878e+00
 -7.53174386e+00 -7.52108645e+00 -7.51195152e+00 -7.50281660e+00
 -7.49368168e+00 -7.48454676e+00 -7.47541183e+00 -7.46627691e+00
 -7.45714199e+00 -7.44800706e+00 -7.43734965e+00 -7.42821473e+00
 -7.41907981e+00 -7.40994489e+00 -7.40080996e+00 -7.39167504e+00
 -7.38254012e+00 -7.37340519e+00 -7.36427027e+00 -7.35513535e+00
 -7.34447794e+00 -7.33534302e+00 -7.32620809e+00 -7.31707317e+00
 -7.30793825e+00 -7.29880333e+00 -7.28966840e+00 -7.28053348e+00
 -7.27139856e+00 -7.26074115e+00 -7.25160622e+00 -7.24247130e+00
 -7.23333638e+00 -7.22420146e+00 -7.21506653e+00 -7.20593161e+00
 -7.19679669e+00 -7.18766176e+00 -7.17700435e+00 -7.16786943e+00
 -7.15873451e+00 -7.14959959e+00 -7.14046466e+00 -7.13132974e+00
 -7.12219482e+00 -7.11305989e+00 -7.10392497e+00 -7.09479005e+00
 -7.08413264e+00 -7.07499772e+00 -7.06586279e+00 -7.05672787e+00
 -7.04759295e+00 -7.03845803e+00 -7.02932310e+00 -7.02018818e+00]","[nan nan nan nan nan nan nan nan nan nan nan nan nan nan nan nan nan nan
 nan nan nan nan nan nan nan nan nan nan nan nan nan nan nan nan nan nan
 nan nan nan nan nan nan nan nan nan nan nan nan nan nan nan nan nan nan
 nan nan nan nan nan nan nan nan nan nan nan nan nan nan nan nan nan nan
 nan nan nan nan nan nan nan nan nan nan nan nan nan nan nan nan nan nan
 nan nan nan nan nan nan nan nan nan nan nan nan nan nan nan nan nan nan
 nan nan nan nan nan nan nan nan nan nan nan nan nan nan nan nan nan nan
 nan nan nan nan nan nan nan nan nan nan nan nan nan nan]",-0.07842983726787464,,6.5682,
053,2,2,csm,23a.png,1,0,184,281,180,1,1,291,neu_feedback_onset,3,"[-0.21903659  0.07391757  0.37463211  0.6578858   0.89845743  1.08082625
  1.19141159  1.220513    1.17007056  1.04008428  0.84025462  0.57834196
  0.26404676 -0.0890503  -0.47512897 -0.88254866 -1.30354901 -1.72648946
 -2.14554972 -2.54908922 -2.92740751 -3.2727442  -3.57151865 -3.81985065
 -4.00803975 -4.13220575 -4.19428875 -4.19234866 -4.13026566 -4.01580012
 -3.85477234 -3.65494268 -3.42213143 -3.16409895 -2.88278535 -2.58207082
 -2.26001525 -1.92049884 -1.55964139 -1.17744292 -0.77390341 -0.34902287
  0.0971987   0.56282121  1.04590456  1.54450866  2.05669342  2.57857865
  3.10628416  3.63592976  4.15781499  4.66029928  5.13368216  5.56438298
  5.9330008   6.22595496  6.4316049   6.53636997  6.53636997  6.4316049
  6.22595496  5.93106071  5.56050279  5.12786188  4.6525389   4.15199471
  3.64951042  3.16254688  2.71632531  2.33606693  2.04311276  1.86656423
  1.82582226  1.94028779  2.22160139  2.66976306  3.27701241  4.02006833
  4.86788931  5.78749377  6.73813972  7.6810253   8.58316891  9.42128943
 10.17598591 10.84337817 11.42152612 11.92013022 12.34501076 12.71168848
 13.02792377 13.30535718 13.54592881 13.75545894 13.93588766 14.08721498
 14.20750079 14.29480501 14.35300782 14.38404932 14.38792951 14.37046867
 14.34136726 14.30450548 14.27152389 14.24824276 14.24436257 14.2676437
 14.32002623 14.40733045 14.52955636 14.68670396 14.87295296 15.08442318
 15.31529434 15.55586597 15.80031779 16.04088942 16.27564076 16.49681146
 16.70440149 16.89841087 17.08077968 17.25344803 17.42611638 17.60266491
 17.78891392 17.99068367 18.20991427 18.45242599 18.71239856 18.98983197
 19.27890594 19.56992001 19.85899398 20.13254721 20.3847594  20.60593009
 20.790239   20.93380594 21.02887054 21.07737288 21.07543279 21.02499035
 20.92604557 20.78053853 20.59428953 20.36923865 20.11120618 19.82601239
 19.52141767 19.20518238 18.88312681 18.56689152 18.26423689 17.98680348
 17.74041157 17.53864182 17.38537441 17.29224991 17.2631485  17.29613009
 17.39313478 17.54252201 17.73653138 17.95770208 18.18663314 18.40198355
 18.58435237 18.71433865 18.78224193 18.78224193 18.71821884 18.59793302
 18.44078543 18.26617699 18.09932892 17.96352236 17.88009832 17.86263748
 17.9189002  18.05470676 18.2622968  18.53002974 18.84238484 19.17996116
 19.52141767 19.85123361 20.15000805 20.40416034 20.6020499  20.73591637
 20.80381966 20.80381966 20.73979656 20.61757065 20.44490231 20.23149199
 19.98704017 19.72318742 19.45157429 19.17802107 18.91028812 18.65419574
 18.41362411 18.18857324 17.98292329 17.80055448 17.64340688 17.51730079
 17.42611638 17.37373385 17.36403338 17.39507488 17.46297816 17.55610266
 17.65698754 17.74623185 17.80249457 17.80637476 17.74235167 17.60266491
 17.39313478 17.12346175 16.81886702 16.50651192 16.21355776 15.96910595
 15.79449751 15.70525319 15.7033131  15.78285694 15.93612435 16.1398342
 16.37652564 16.62485765 16.86736937 17.08854006 17.27672916 17.42417628
 17.52894135 17.58908426 17.6065451  17.58520407 17.53088144 17.4513376
 17.356273   17.25150794 17.14674287 17.04973818 16.96243396 16.89259059
 16.83826796 16.79946609 16.77812505 16.77036468 16.77812505 16.80140618
 16.84020806 16.89841087]","[nan nan nan nan nan nan nan nan nan nan nan nan nan nan nan nan nan nan
 nan nan nan nan nan nan nan nan nan nan nan nan nan nan nan nan nan nan
 nan nan nan nan nan nan nan nan nan nan nan nan nan nan nan nan nan nan
 nan nan nan nan nan nan nan nan nan nan nan nan nan nan nan nan nan nan
 nan nan nan nan nan nan nan nan nan nan nan nan nan nan nan nan nan nan
 nan nan nan nan nan nan nan nan nan nan nan nan nan nan nan nan nan nan
 nan nan nan nan nan nan nan nan nan nan nan nan nan nan nan nan nan nan
 nan nan nan nan nan nan nan nan nan nan nan nan nan nan]",19.11055430419506,,5.15439,0.23979000000000106
053,2,2,csm,35a.png,1,1,92,34,89,1,1,591,neu_feedback_onset,4,"[ 0.5396966   0.61051428  0.66486274  0.69286042  0.69286042  0.66156889
  0.60063275  0.51169892  0.39970817  0.26960126  0.12631898 -0.02684484
 -0.18494943 -0.34634787 -0.50445246 -0.66091012 -0.81242702 -0.95406238
 -1.08416928 -1.19616003 -1.28344694 -1.3377954  -1.35591155 -1.32626694
 -1.24721464 -1.11546082 -0.93594623 -0.71525858 -0.46822015 -0.2113002
  0.03573822  0.2580728   0.43594047  0.56440045  0.63686505  0.65827505
  0.63686505  0.58581044  0.52158045  0.45570354  0.40135509  0.36347586
  0.34206587  0.33547818  0.33383125  0.32724356  0.30418664  0.25313204
  0.16913897  0.04891361 -0.10425021 -0.2837648  -0.47974861 -0.67902627
 -0.87006932 -1.03970237 -1.18133773 -1.29168156 -1.37073385 -1.42343538
 -1.45802076 -1.48601845 -1.5189569  -1.56836459 -1.64247612 -1.7495261
 -1.89116146 -2.07067605 -2.28477601 -2.53346135 -2.81014439 -3.11482511
 -3.44091582 -3.78676961 -4.14579878 -4.51800334 -4.89679558 -5.28217552
 -5.66920238 -6.05622924 -6.43996225 -6.81710758 -7.18437136 -7.53516592
 -7.86125664 -8.15440889 -8.39980039 -8.58590267 -8.69789342 -8.72259726
 -8.64683881 -8.46567731 -8.17746581 -7.79043895 -7.31612519 -6.77428758
 -6.18962999 -5.58520932 -4.98572941 -4.4142472  -3.88393806 -3.40962429
 -2.99459974 -2.64545211 -2.36218138 -2.14149373 -1.98503606 -1.88786761
 -1.84998839 -1.86645762 -1.93398145 -2.0459722  -2.19419526 -2.36876907
 -2.55651827 -2.74756132 -2.92872283 -3.09012126 -3.22681586 -3.33551276
 -3.41456506 -3.46726659 -3.50020504 -3.51996812 -3.5331435  -3.54467196
 -3.55784734 -3.57596349 -3.59572656 -3.61878348 -3.6418404  -3.66160348
 -3.67807271 -3.68630732 -3.68960116 -3.6846604  -3.67313194 -3.65336886
 -3.62372425 -3.58090426 -3.52161504 -3.43762198 -3.3239843  -3.17576125
 -2.98636513 -2.75414901 -2.48075982 -2.17113834 -1.83516608 -1.4827246
 -1.13522389 -0.80748625 -0.51762784 -0.28541172 -0.12236636 -0.0383733
 -0.03672638 -0.11248483 -0.25741403 -0.45833862 -0.69714242 -0.95735623
 -1.22415772 -1.48437153 -1.72976302 -1.95703837 -2.16619757 -2.36053446
 -2.54993058 -2.73767978 -2.93036975 -3.13294126 -3.34374738 -3.56114119
 -3.778535   -3.99263496 -4.1902657  -4.36813336 -4.51800334 -4.63493486
 -4.71892792 -4.7683356  -4.78480483 -4.77657022 -4.74692561 -4.70410561
 -4.65799178 -4.61352486 -4.58223333 -4.56905794 -4.5805864  -4.62011255
 -4.69257715 -4.79303945 -4.91820558 -5.06313479 -5.21794553 -5.36946243
 -5.50945087 -5.62473546 -5.7070816  -5.74660775 -5.74002006 -5.68731853
 -5.58850316 -5.44851472 -5.27229398 -5.0713694  -4.85232867 -4.62175947
 -4.38624951 -4.1540334  -3.92840497 -3.71430501 -3.5117335  -3.32563122
 -3.15599818 -3.0061282  -2.87437438 -2.76403055 -2.67180287 -2.59769134
 -2.54004905 -2.49393521 -2.45605598 -2.4214706  -2.38853215 -2.35229985
 -2.31112678 -2.26336601 -2.20572372 -2.14314065 -2.07232297 -1.9949176
 -1.91421838 -1.82857839 -1.74129148 -1.65071073 -1.55683613 -1.45966768
 -1.35755847 -1.25050849 -1.13522389 -1.0133516  -0.88159778 -0.74160934
 -0.59503321 -0.44351631 -0.28541172 -0.12730713  0.02750361  0.17572666
  0.31406818  0.43264662  0.52981507  0.60063275  0.63686505  0.63851197
  0.60392659  0.53475584]","[ -3.90554137  -3.72378261  -3.519304    -3.28686251  -3.02121509
  -2.71362334  -2.36233958  -1.95862541  -1.50248083  -0.99041048
  -0.42241435   0.19626451   0.86213074   1.56469825   2.29522866
   3.03799282   3.78250467   4.51827812   5.23133171   5.91817011
   6.57180258   7.19048143   7.77770204   8.33346441   8.86126389
   9.3680912    9.85394635  10.32232469  10.77497392  11.20665097
  11.61735586  12.00359323  12.35837235  12.67994554  12.96306977
  13.20774502  13.41571899  13.58699167  13.72505842  13.83690996
  13.92604166  13.99769656  14.05711769  14.10780042  14.15149243
  14.18819372  14.21440893  14.22664269  14.21965197  14.18644604
  14.12003418  14.01692104  13.87361125  13.69010481  13.4681494
  13.21298806  12.93161152  12.63101049  12.31992338  12.00359323
  11.68726308  11.37617597  11.07382726  10.78196464  10.49884041
  10.22969763   9.97628398   9.74034712   9.5288778    9.34711904
   9.20206156   9.09720074   9.03952729   9.02904121   9.06224713
   9.13215435   9.22652909   9.32439919   9.40654017   9.4484845
   9.42576465   9.31740847   9.10593914   8.78087059   8.33346441
   7.7637206    7.07688221   6.28168763   5.39561367   4.43613714
   3.42248251   2.37562196   1.320023     0.27316245  -0.74573522
  -1.72443624  -2.65245453  -3.52454704  -4.34071379  -5.10270244
  -5.81575604  -6.48336995  -7.11078721  -7.6997555   -8.25027482
  -8.75710214  -9.20975136  -9.59598872  -9.89833743 -10.10106836
 -10.18320934 -10.13077892  -9.93154336  -9.58550264  -9.09615213
  -8.47572559  -7.74869055  -6.94300989  -6.08839418  -5.21979702
  -4.36518131  -3.55425761  -2.80450272  -2.13164577  -1.54442516
  -1.04633625  -0.63912672  -0.31580585  -0.07287827   0.09839441
   0.20500291   0.25568564   0.25743332   0.22073203   0.14907714
   0.05295472  -0.06588755  -0.19871126  -0.34551641  -0.50105997]",-0.17291973420957432,12.771655070807252,6.07193,-0.8250849999999987
053,2,2,csp,59b.png,1,1,116,124,115,1,1,349,pos_feedback_onset,5,"[-2.72709872e-02 -4.92910390e-02 -5.09848892e-02 -3.40463878e-02
 -3.55708529e-03  3.54014679e-02  7.60538712e-02  1.13318574e-01
  1.43807877e-01  1.60746378e-01  1.62440228e-01  1.47195577e-01
  1.15012424e-01  6.92784707e-02  1.16875660e-02 -5.26787393e-02
 -1.20432745e-01 -1.84799050e-01 -2.39002255e-01 -2.72879257e-01
 -2.83042358e-01 -2.61022306e-01 -2.00043701e-01 -9.84126930e-02
  4.38707186e-02  2.30194234e-01  4.52088602e-01  7.06166123e-01
  9.82263695e-01  1.27191207e+00  1.56325429e+00  1.84951497e+00
  2.12222484e+00  2.37460851e+00  2.60327828e+00  2.80654029e+00
  2.98439456e+00  3.13684107e+00  3.26387983e+00  3.36720469e+00
  3.44512180e+00  3.49085575e+00  3.49932500e+00  3.46206030e+00
  3.37059239e+00  3.21475818e+00  2.99116996e+00  2.69305233e+00
  2.32040530e+00  1.87322887e+00  1.35660458e+00  7.79001679e-01
  1.50583277e-01 -5.18487527e-01 -1.21465993e+00 -1.92777084e+00
 -2.64088175e+00 -3.33874801e+00 -4.00612496e+00 -4.62438026e+00
 -5.17488156e+00 -5.63560880e+00 -5.99301117e+00 -6.23015019e+00
 -6.33855660e+00 -6.31314885e+00 -6.16070234e+00 -5.88968632e+00
 -5.52042699e+00 -5.07325055e+00 -4.57187091e+00 -4.03830811e+00
 -3.49627607e+00 -2.95932558e+00 -2.44270128e+00 -1.95487244e+00
 -1.49922676e+00 -1.07915192e+00 -6.96341792e-01 -3.50796364e-01
 -4.25156385e-02  2.30194234e-01  4.67333253e-01  6.72289120e-01
  8.45061834e-01  9.90732946e-01  1.11269016e+00  1.21432116e+00
  1.30240137e+00  1.38031848e+00  1.45315403e+00  1.52598959e+00
  1.60221285e+00  1.68521150e+00  1.77667941e+00  1.87661657e+00
  1.98671683e+00  2.10528634e+00  2.23232510e+00  2.36613926e+00
  2.50503497e+00  2.65070608e+00  2.79976489e+00  2.95221141e+00
  3.10804562e+00  3.26387983e+00  3.42310174e+00  3.58062981e+00
  3.73815787e+00  3.89229823e+00  4.04305090e+00  4.19041586e+00
  4.33269927e+00  4.46990113e+00  4.60202144e+00  4.72906020e+00
  4.85101741e+00  4.97128077e+00  5.08476873e+00  5.19486899e+00
  5.29650000e+00  5.38796790e+00  5.46588501e+00  5.52178207e+00
  5.55057752e+00  5.54549597e+00  5.50145586e+00  5.40998796e+00
  5.26770455e+00  5.07121793e+00  4.82222196e+00  4.52071663e+00
  4.17008966e+00  3.77711642e+00  3.34687849e+00  2.89123280e+00
  2.41526091e+00  1.93251362e+00  1.45315403e+00  9.90732946e-01
  5.55413460e-01  1.62440228e-01 -1.79717500e-01 -4.59202772e-01
 -6.67546340e-01 -7.96278950e-01 -8.45400604e-01 -8.11523601e-01
 -7.01423342e-01 -5.18487527e-01 -2.76266958e-01  1.50752662e-02
  3.38600643e-01  6.80758371e-01  1.02291610e+00  1.34982918e+00
  1.64964065e+00  1.90710587e+00  2.11544944e+00  2.26789595e+00
  2.36105771e+00  2.39493471e+00  2.37291466e+00  2.29838525e+00
  2.17981574e+00  2.02398153e+00  1.83596416e+00  1.62423290e+00
  1.39386928e+00  1.14995486e+00  8.94183488e-01  6.31636717e-01
  3.65702245e-01  9.80739230e-02 -1.66166699e-01 -4.23631920e-01
 -6.70934040e-01 -9.02991509e-01 -1.11811048e+00 -1.31629094e+00
 -1.49753291e+00 -1.66353022e+00 -1.81936443e+00 -1.97011710e+00
 -2.12256361e+00 -2.28178552e+00 -2.45117054e+00 -2.63410635e+00
 -2.83059297e+00 -3.04063038e+00 -3.26083090e+00 -3.48611297e+00
 -3.71139504e+00 -3.92990171e+00 -4.13485757e+00 -4.32118109e+00
 -4.48379070e+00 -4.61929871e+00 -4.72601127e+00 -4.80392838e+00
 -4.85135618e+00 -4.87337623e+00 -4.87337623e+00 -4.85813158e+00
 -4.83272383e+00 -4.80562223e+00 -4.78360218e+00 -4.77513292e+00
 -4.78529603e+00 -4.81747918e+00 -4.87337623e+00 -4.95129334e+00
 -5.04784280e+00 -5.15794306e+00 -5.27651257e+00 -5.39846978e+00
 -5.51873314e+00 -5.63391495e+00 -5.74401520e+00 -5.84564621e+00
 -5.94050182e+00 -6.02858203e+00 -6.11158068e+00 -6.18780394e+00
 -6.25555795e+00 -6.31145500e+00 -6.35041355e+00 -6.37073976e+00
 -6.36565820e+00 -6.33347505e+00 -6.27419030e+00 -6.18611009e+00
 -6.07262213e+00 -5.93203257e+00 -5.76772911e+00 -5.57801789e+00
 -5.36459277e+00 -5.12406605e+00 -4.85135618e+00 -4.54307546e+00
 -4.19583618e+00 -3.80455680e+00 -3.36754346e+00 -2.88987772e+00
 -2.37494728e+00 -1.83291523e+00 -1.27902624e+00 -7.30218795e-01
 -2.01737551e-01  2.89478989e-01  7.28186174e-01  1.10422091e+00
  1.41080778e+00  1.64625295e+00  1.81733181e+00  1.93251362e+00
  2.00026763e+00  2.03753233e+00  2.05955238e+00  2.07987858e+00]","[ -2.79457088  -2.43914314  -2.13889597  -1.88733752  -1.6731071
  -1.48646697  -1.30794162  -1.1245474   -0.91843177  -0.67823403
  -0.39097051  -0.05177235   0.34098341   0.78567383   1.2741841
   1.79677648   2.34209027   2.89876477   3.45543926   3.99750714
   4.51847656   5.01185571   5.46790682   5.88825287   6.26802497
   6.60722314   6.9042244    7.16065171   7.37488213   7.54853861
   7.6832441    7.78062156   7.840671     7.86663832   7.85852353
   7.8211955    7.75465424   7.65889973   7.5371779    7.38948875
   7.21745523   7.02270031   6.80684693   6.57476398   6.32807441
   6.06840118   5.80061315   5.52795626   5.25205345   4.97777359
   4.7051167    4.44057459   4.18577023   3.94394953   3.71673545
   3.50412799   3.30937307   3.1276018    2.95232237   2.78028885
   2.59851759   2.39727083   2.16681084   1.89090803   1.56307057
   1.17193776   0.70777186   0.16408102  -0.46075769  -1.16999021
  -1.95874766  -2.81729229  -3.7342634   -4.68369366  -5.64286166
  -6.57768531  -7.46219726  -8.26556132  -8.96992497  -9.56392749
 -10.05081481 -10.4387017  -10.74706366 -11.00186802 -11.2290821
 -11.45142731 -11.69162505 -11.96103603 -12.26777504 -12.61184207
 -12.98999122 -13.39086177 -13.80633895 -14.21857021 -14.61294893
 -14.9748685  -15.28485342 -15.52829708 -15.69059285 -15.75875707
 -15.72629792 -15.59321539 -15.36437835 -15.05114751 -14.66975245
 -14.24291457 -13.79173233 -13.33730417 -12.90072855 -12.49336616
 -12.12982363 -11.81172392 -11.5439359  -11.32483661 -11.14793422
 -11.00998281 -10.90611352 -10.82983451 -10.77465394 -10.73408
 -10.70486676 -10.67889944 -10.65455507 -10.62696479 -10.5961286
 -10.56204648 -10.52634142 -10.49712818 -10.48252156 -10.48901339
 -10.52634142 -10.60262043 -10.72758817 -10.9028676  -11.13170464
 -11.41085337 -11.73706787 -12.10223335 -12.49498912 -12.90722038]",3.7973155863008117,5.784992185458648,5.90371,0.19410999999999845
053,2,2,csp,28b.png,1,1,288,317,284,1,1,387,pos_feedback_onset,6,"[nan nan nan nan nan nan nan nan nan nan nan nan nan nan nan nan nan nan
 nan nan nan nan nan nan nan nan nan nan nan nan nan nan nan nan nan nan
 nan nan nan nan nan nan nan nan nan nan nan nan nan nan nan nan nan nan
 nan nan nan nan nan nan nan nan nan nan nan nan nan nan nan nan nan nan
 nan nan nan nan nan nan nan nan nan nan nan nan nan nan nan nan nan nan
 nan nan nan nan nan nan nan nan nan nan nan nan nan nan nan nan nan nan
 nan nan nan nan nan nan nan nan nan nan nan nan nan nan nan nan nan nan
 nan nan nan nan nan nan nan nan nan nan nan nan nan nan nan nan nan nan
 nan nan nan nan nan nan nan nan nan nan nan nan nan nan nan nan nan nan
 nan nan nan nan nan nan nan nan nan nan nan nan nan nan nan nan nan nan
 nan nan nan nan nan nan nan nan nan nan nan nan nan nan nan nan nan nan
 nan nan nan nan nan nan nan nan nan nan nan nan nan nan nan nan nan nan
 nan nan nan nan nan nan nan nan nan nan nan nan nan nan nan nan nan nan
 nan nan nan nan nan nan nan nan nan nan nan nan nan nan nan nan nan nan
 nan nan nan nan nan nan nan nan]","[-5.80336678e-01 -3.60680996e-01 -1.64900932e-01  6.36683136e-04
  1.35931849e-01  2.37801151e-01  3.06244588e-01  3.44445576e-01
  3.52404116e-01  3.36487037e-01  2.98286049e-01  2.42576275e-01
  1.74132838e-01  9.29557378e-02  5.41180665e-03 -8.69072480e-02
 -1.84001426e-01 -2.82687312e-01 -3.82964906e-01 -4.84834208e-01
 -5.86703509e-01 -6.88572811e-01 -7.92033821e-01 -8.93903122e-01
 -9.95772424e-01 -1.09923343e+00 -1.20110274e+00 -1.30456374e+00
 -1.40643305e+00 -1.50830235e+00 -1.61176336e+00 -1.71363266e+00
 -1.81709367e+00 -1.91896297e+00 -2.02083227e+00 -2.12429328e+00
 -2.22616258e+00 -2.32962359e+00 -2.43149289e+00 -2.53336220e+00
 -2.63682321e+00 -2.73869251e+00 -2.84215352e+00 -2.94402282e+00
 -3.04748383e+00 -3.14935313e+00 -3.25122243e+00 -3.35468344e+00
 -3.45655274e+00 -3.56001375e+00 -3.66188305e+00 -3.76375236e+00
 -3.86721337e+00 -3.96908267e+00 -4.07254368e+00 -4.17441298e+00
 -4.27628228e+00 -4.37974329e+00 -4.48161259e+00 -4.58507360e+00
 -4.68694290e+00 -4.78881220e+00 -4.89227321e+00 -4.99414252e+00
 -5.09760352e+00 -5.19947283e+00 -5.30293384e+00 -5.40480314e+00
 -5.50826415e+00 -5.61172516e+00 -5.71677787e+00 -5.82183059e+00
 -5.93165843e+00 -6.04466969e+00 -6.16404778e+00 -6.29297611e+00
 -6.43463811e+00 -6.59380889e+00 -6.77526359e+00 -6.98536902e+00
 -7.22730861e+00 -7.50585748e+00 -7.82101564e+00 -8.17596648e+00
 -8.56911832e+00 -8.99410431e+00 -9.44933276e+00 -9.92684511e+00
 -1.04202745e+01 -1.09248459e+01 -1.14341924e+01 -1.19419472e+01
 -1.24449269e+01 -1.29383563e+01 -1.34142770e+01 -1.38663220e+01
 -1.42833495e+01 -1.46558091e+01 -1.49677838e+01 -1.52017649e+01
 -1.53434269e+01 -1.53736693e+01 -1.52813503e+01 -1.50569195e+01
 -1.46971935e+01 -1.42069475e+01 -1.35973234e+01 -1.28874217e+01
 -1.20995263e+01 -1.12622880e+01 -1.03995823e+01 -9.53528498e+00
 -8.69167982e+00 -7.88468395e+00 -7.12543931e+00 -6.41872103e+00
 -5.77089594e+00 -5.18037233e+00 -4.64715021e+00 -4.16963785e+00
 -3.74624357e+00 -3.37378394e+00 -3.05066724e+00 -2.77371008e+00
 -2.53813732e+00 -2.33758213e+00 -2.16567769e+00 -2.01924056e+00
 -1.88872052e+00 -1.77252585e+00 -1.66588142e+00 -1.57037895e+00
 -1.48761015e+00 -1.42235012e+00 -1.37937401e+00 -1.36664035e+00
 -1.38892426e+00 -1.45259257e+00 -1.56082871e+00 -1.71363266e+00]",,-0.2700673428847811,5.682835,0.7623700000000007
053,2,2,csm,29a.png,1,1,84,29,81,1,1,493,neu_feedback_onset,7,"[-7.02210454e-01 -3.28771313e-01 -1.48892761e-02  2.39435656e-01
  4.34203484e-01  5.74243162e-01  6.61164341e-01  6.98186325e-01
  6.90138068e-01  6.38629221e-01  5.46879087e-01  4.21326272e-01
  2.63580428e-01  7.84705092e-02 -1.29174530e-01 -3.51306433e-01
 -5.83096245e-01 -8.18105360e-01 -1.04989517e+00 -1.26880777e+00
 -1.47484316e+00 -1.65834343e+00 -1.82091823e+00 -1.95773860e+00
 -2.07041420e+00 -2.15894503e+00 -2.22655040e+00 -2.27162064e+00
 -2.29898471e+00 -2.30542332e+00 -2.29415576e+00 -2.26035308e+00
 -2.20562493e+00 -2.12836166e+00 -2.03017292e+00 -1.91266836e+00
 -1.77906729e+00 -1.63902761e+00 -1.49898793e+00 -1.36860616e+00
 -1.25593056e+00 -1.17383833e+00 -1.12715844e+00 -1.12393914e+00
 -1.16579008e+00 -1.25754021e+00 -1.39757989e+00 -1.58590911e+00
 -1.82091823e+00 -2.10099758e+00 -2.42131822e+00 -2.78027050e+00
 -3.17302546e+00 -3.59636380e+00 -4.04384691e+00 -4.51064583e+00
 -4.99193162e+00 -5.48126567e+00 -5.97381902e+00 -6.46315307e+00
 -6.94604851e+00 -7.41606674e+00 -7.86676915e+00 -8.28849783e+00
 -8.67159488e+00 -9.00157343e+00 -9.26716593e+00 -9.44905654e+00
 -9.53758737e+00 -9.51827156e+00 -9.38628014e+00 -9.14161311e+00
 -8.79070909e+00 -8.34644529e+00 -7.83135682e+00 -7.26797880e+00
 -6.68367532e+00 -6.10098148e+00 -5.54243242e+00 -5.02412465e+00
 -4.55571607e+00 -4.14525495e+00 -3.79274128e+00 -3.49978471e+00
 -3.25994664e+00 -3.07322707e+00 -2.93479704e+00 -2.84304691e+00
 -2.79475737e+00 -2.78831876e+00 -2.82373109e+00 -2.89616541e+00
 -3.00240240e+00 -3.13761313e+00 -3.29696862e+00 -3.47403029e+00
 -3.65914020e+00 -3.84425012e+00 -4.02292144e+00 -4.18710589e+00
 -4.33036487e+00 -4.44947908e+00 -4.54444851e+00 -4.61366353e+00
 -4.66034342e+00 -4.68931715e+00 -4.70541366e+00 -4.71507157e+00
 -4.72151018e+00 -4.73277774e+00 -4.74726460e+00 -4.76979972e+00
 -4.79555414e+00 -4.82291822e+00 -4.84706299e+00 -4.86315950e+00
 -4.86476916e+00 -4.84706299e+00 -4.80521205e+00 -4.73921634e+00
 -4.64585656e+00 -4.52674235e+00 -4.38509302e+00 -4.22573752e+00
 -4.05511447e+00 -3.87644315e+00 -3.69938149e+00 -3.52392948e+00
 -3.35813538e+00 -3.20199919e+00 -3.05713055e+00 -2.92191983e+00
 -2.79636702e+00 -2.67403350e+00 -2.55330964e+00 -2.42936648e+00
 -2.29737506e+00 -2.15733538e+00 -2.00280884e+00 -1.83218579e+00
 -1.64868552e+00 -1.45069839e+00 -1.23983404e+00 -1.02092144e+00
 -7.98789542e-01 -5.76657639e-01 -3.57745039e-01 -1.43661394e-01
  6.39836459e-02  2.65190080e-01  4.63177211e-01  6.61164341e-01
  8.62370775e-01  1.07001581e+00  1.28570911e+00  1.50784101e+00
  1.73319222e+00  1.95693377e+00  2.16940777e+00  2.36578525e+00
  2.53318900e+00  2.66518042e+00  2.75532090e+00  2.80039115e+00
  2.80039115e+00  2.75532090e+00  2.67322868e+00  2.56055308e+00
  2.42534235e+00  2.27403511e+00  2.11628927e+00  1.95693377e+00
  1.80240723e+00  1.65431930e+00  1.51427962e+00  1.38711715e+00
  1.26800295e+00  1.16015630e+00  1.06196756e+00  9.70217424e-01
  8.84905896e-01  8.06032974e-01  7.30379355e-01  6.57945038e-01
  5.87120374e-01  5.17905361e-01  4.50299999e-01  3.82694637e-01
  3.16698927e-01  2.52312868e-01  1.87926809e-01  1.25150402e-01
  6.55932974e-02  7.64584448e-03 -4.70823055e-02 -9.85911526e-02
 -1.45271045e-01 -1.87121983e-01 -2.24143967e-01 -2.57946648e-01
 -2.88530026e-01 -3.15894101e-01 -3.41648525e-01 -3.65793297e-01
 -3.91547720e-01 -4.17302144e-01 -4.46275870e-01 -4.75249597e-01
 -5.07442626e-01 -5.41245307e-01 -5.76657639e-01 -6.12069972e-01
 -6.49091955e-01 -6.87723591e-01 -7.26355226e-01 -7.64986861e-01
 -8.03618497e-01 -8.42250132e-01 -8.82491419e-01 -9.21123054e-01
 -9.59754689e-01 -9.99995976e-01 -1.03862761e+00 -1.07725925e+00
 -1.11750053e+00 -1.15613217e+00 -1.19476380e+00 -1.23500509e+00
 -1.27363673e+00 -1.31226836e+00 -1.35250965e+00 -1.39114128e+00
 -1.42977292e+00 -1.47001421e+00 -1.50864584e+00 -1.54727748e+00
 -1.58751876e+00 -1.62615040e+00 -1.66478203e+00 -1.70502332e+00
 -1.74365496e+00 -1.78228659e+00 -1.82252788e+00 -1.86115951e+00
 -1.89979115e+00 -1.94003243e+00 -1.97866407e+00 -2.01729571e+00
 -2.05753699e+00 -2.09616863e+00 -2.13480026e+00 -2.17504155e+00
 -2.21367318e+00 -2.25230482e+00 -2.29254611e+00 -2.33117774e+00
 -2.36980938e+00 -2.41005066e+00 -2.44868230e+00 -2.48731393e+00]","[nan nan nan nan nan nan nan nan nan nan nan nan nan nan nan nan nan nan
 nan nan nan nan nan nan nan nan nan nan nan nan nan nan nan nan nan nan
 nan nan nan nan nan nan nan nan nan nan nan nan nan nan nan nan nan nan
 nan nan nan nan nan nan nan nan nan nan nan nan nan nan nan nan nan nan
 nan nan nan nan nan nan nan nan nan nan nan nan nan nan nan nan nan nan
 nan nan nan nan nan nan nan nan nan nan nan nan nan nan nan nan nan nan
 nan nan nan nan nan nan nan nan nan nan nan nan nan nan nan nan nan nan
 nan nan nan nan nan nan nan nan nan nan nan nan nan nan]",1.3765739373282286,,6.212524999999999,
053,2,2,csm,62a.png,1,1,280,41,280,1,1,396,neu_feedback_onset,8,"[nan nan nan nan nan nan nan nan nan nan nan nan nan nan nan nan nan nan
 nan nan nan nan nan nan nan nan nan nan nan nan nan nan nan nan nan nan
 nan nan nan nan nan nan nan nan nan nan nan nan nan nan nan nan nan nan
 nan nan nan nan nan nan nan nan nan nan nan nan nan nan nan nan nan nan
 nan nan nan nan nan nan nan nan nan nan nan nan nan nan nan nan nan nan
 nan nan nan nan nan nan nan nan nan nan nan nan nan nan nan nan nan nan
 nan nan nan nan nan nan nan nan nan nan nan nan nan nan nan nan nan nan
 nan nan nan nan nan nan nan nan nan nan nan nan nan nan nan nan nan nan
 nan nan nan nan nan nan nan nan nan nan nan nan nan nan nan nan nan nan
 nan nan nan nan nan nan nan nan nan nan nan nan nan nan nan nan nan nan
 nan nan nan nan nan nan nan nan nan nan nan nan nan nan nan nan nan nan
 nan nan nan nan nan nan nan nan nan nan nan nan nan nan nan nan nan nan
 nan nan nan nan nan nan nan nan nan nan nan nan nan nan nan nan nan nan
 nan nan nan nan nan nan nan nan nan nan nan nan nan nan nan nan nan nan
 nan nan nan nan nan nan nan nan]","[-4.10717555 -3.76339974 -3.41274841 -3.05178381 -2.67878706 -2.29032039
 -1.88466493 -1.46182069 -1.01834989 -0.55425255 -0.06952866  0.4341029
  0.96007989  1.50668343  2.07219464  2.65489464  3.25134567  3.85810997
  4.47174979  5.08367073  5.69043504  6.28516719  6.86442943  7.42134624
  7.95419875  8.45954919  8.93567869  9.38086836  9.79339933 10.1732716
 10.52048517 10.83332116 11.11349844 11.36617366 11.59134682 11.79245567
 11.97809461 12.14826363 12.30811938 12.45766186 12.59860994 12.72408811
 12.83237749 12.91488369 12.96645006 12.98191997 12.95613678 12.8891005
 12.78081112 12.63814416 12.46797513 12.27717956 12.07263295 11.86636747
 11.6583831  11.45727425 11.26304092 11.07740198 10.89863856 10.73018841
 10.56861378 10.41735243 10.27640435 10.1492073  10.04091792  9.95325508
  9.89309432  9.86043562  9.86043562  9.8862188   9.93434741  9.99107042
 10.04263679 10.06841998 10.04779343  9.96184948  9.78996157  9.52181644
  9.14881969  8.67269019  8.09858459  7.44025391  6.71316807  5.93795362
  5.13695599  4.32908283  3.53839847  2.77865393  2.06875688  1.41730172
  0.82944509  0.30690585 -0.15547261 -0.56456582 -0.93240594 -1.27274399
 -1.59417438 -1.90872924 -2.21812747 -2.52408794 -2.8231729  -3.10678794
 -3.36805755 -3.59666847 -3.78402629 -3.92497437 -4.02123159 -4.07279797
 -4.08826788 -4.07451684 -4.04185814 -4.00232392 -3.96278971 -3.930131
 -3.90778558 -3.89403454 -3.88887791 -3.88544015 -3.87856463 -3.86309472
 -3.83387378 -3.78746404 -3.72042776 -3.63276493 -3.52103779 -3.38696522
 -3.23226611 -3.05522157 -2.86270711 -2.65816051 -2.4450195  -2.23531626
 -2.03764517 -1.86575727 -1.73340358 -1.65261626 -1.63714635 -1.69386936
 -1.82794193 -2.03936405]",,11.458907188266256,5.382995000000001,-0.22957999999999945
053,2,2,csp,57b.png,1,1,96,66,93,1,1,500,pos_feedback_onset,9,"[nan nan nan nan nan nan nan nan nan nan nan nan nan nan nan nan nan nan
 nan nan nan nan nan nan nan nan nan nan nan nan nan nan nan nan nan nan
 nan nan nan nan nan nan nan nan nan nan nan nan nan nan nan nan nan nan
 nan nan nan nan nan nan nan nan nan nan nan nan nan nan nan nan nan nan
 nan nan nan nan nan nan nan nan nan nan nan nan nan nan nan nan nan nan
 nan nan nan nan nan nan nan nan nan nan nan nan nan nan nan nan nan nan
 nan nan nan nan nan nan nan nan nan nan nan nan nan nan nan nan nan nan
 nan nan nan nan nan nan nan nan nan nan nan nan nan nan nan nan nan nan
 nan nan nan nan nan nan nan nan nan nan nan nan nan nan nan nan nan nan
 nan nan nan nan nan nan nan nan nan nan nan nan nan nan nan nan nan nan
 nan nan nan nan nan nan nan nan nan nan nan nan nan nan nan nan nan nan
 nan nan nan nan nan nan nan nan nan nan nan nan nan nan nan nan nan nan
 nan nan nan nan nan nan nan nan nan nan nan nan nan nan nan nan nan nan
 nan nan nan nan nan nan nan nan nan nan nan nan nan nan nan nan nan nan
 nan nan nan nan nan nan nan nan]","[ -2.93120536  -2.69640267  -2.44458529  -2.18085763  -1.91542849
  -1.64829789  -1.38116729  -1.11403669  -0.84350315  -0.55935787
  -0.25649642   0.07699146   0.44961313   0.86817445   1.3343769
   1.85332488   2.41821252   3.02223394   3.65347887   4.2949326
   4.93468487   5.55231804   6.1376233    6.67528744   7.15850458
   7.58557325   7.95479197   8.27296664   8.54690311   8.78340728
   8.99438941   9.18835685   9.37551842   9.56438145   9.76175183
   9.97103249  10.19732784  10.43893641  10.69415673  10.95788439
  11.22161206  11.47513091  11.70653066  11.90390104  12.0536303
  12.14380814  12.16762871  12.11998758  11.99748183  11.80181291
  11.53808525  11.21480618  10.84048305  10.42532466   9.9761369
   9.50653151   9.02161291   8.52988843   8.03816395   7.55664828
   7.0921473    6.65657129   6.25842759   5.90962649   5.6254812
   5.4127976    5.28008303   5.23244191   5.26306834   5.36515647
   5.52339307   5.71906198   5.92834264   6.12741449   6.29756137
   6.42176859   6.48642441   6.48812587   6.42517153   6.30096431
   6.12231008   5.89941767   5.63739148   5.34644031   5.03166859
   4.69988217   4.35448401   4.0005785    3.63816565   3.27405132
   2.909937     2.54922562   2.19532011   1.85162341   1.52153847
   1.20506527   0.9039053    0.61295413   0.33051031   0.04806649
  -0.2411832   -0.54744758  -0.879234    -1.24504979  -1.65510377
  -2.11279887  -2.61983657  -3.17621687  -3.78023829  -4.42509496
  -5.10568248  -5.8134935   -6.54002067  -7.27845813  -8.02199999
  -8.75703451  -9.47845728 -10.17435801 -10.82772203 -11.42663905
 -11.94898997 -12.37946157 -12.69593477 -12.88139486 -12.92223012
 -12.81163464 -12.54620551 -12.13615153 -11.59338299 -10.9383175
 -10.19817858  -9.40018971  -8.56987294  -7.73615323  -6.92114968
  -6.14527991  -5.42215568  -4.76368725  -4.17668052  -3.66283694]",,9.622401538127772,5.1892450000000006,-0.22490000000000077
053,2,2,csm,3a.png,1,1,44,271,44,1,1,331,neu_feedback_onset,10,"[ -1.90753194  -1.43939484  -0.99322807  -0.57579173  -0.19384594
   0.14415919   0.4348436    0.67144719   0.8505899    0.9688917
   1.02297252   1.01114234   0.93340116   0.78805895   0.57849578
   0.30471162  -0.02822343  -0.41185925  -0.84450581  -1.31433294
  -1.81627055  -2.3401785   -2.88267673  -3.43362509  -3.9879535
  -4.53721183  -5.07802003  -5.59854793  -6.08865536  -6.53482213
  -6.92521806  -7.23618277  -7.45419608  -7.5606677   -7.53869736
  -7.383215    -7.09253059  -6.67509426  -6.14780626  -5.53770701
  -4.88028703  -4.20765683  -3.55868699  -2.96210794  -2.44327006
  -2.0173836   -1.69289868  -1.46812527  -1.33292322  -1.27715237
  -1.2856025   -1.34306337  -1.43601478  -1.55431658  -1.68951863
  -1.83993091  -2.00048335  -2.17455599  -2.36383886  -2.57340204
  -2.80493555  -3.0651995   -3.35419388  -3.67360873  -4.02344404
  -4.4036998   -4.80930596  -5.23857247  -5.68811929  -6.15456636
  -6.63453365  -7.12633111  -7.63164877  -8.14710659  -8.67608462
  -9.21858285  -9.77629131 -10.34751997 -10.93226884 -11.52715787
 -12.12711697 -12.73045612 -13.33210525 -13.93037432 -14.5218833
 -15.10325212 -15.67617081 -16.23894934 -16.79158773 -17.33070591
 -17.85461385 -18.35993152 -18.84158883 -19.29113565 -19.69843183
 -20.05671726 -20.35416177 -20.57893518 -20.72427739 -20.78342828
 -20.74962777 -20.62456587 -20.40486254 -20.09558785 -19.69843183
 -19.21508449 -18.65230596 -18.01347626 -17.30197547 -16.5262537
 -15.69476109 -14.81763778 -13.90840399 -12.98226994 -12.05782592
 -11.1536622  -10.28667905  -9.47715677  -8.73523551  -8.07443549
  -7.5015168   -7.01985949  -6.62608352  -6.31680883  -6.08358529
  -5.9196528   -5.81318119  -5.75065024  -5.72360983  -5.71684972
  -5.72360983  -5.73036993  -5.73374998  -5.72360983  -5.69656942
  -5.65093872  -5.5833377   -5.49545637  -5.3856047   -5.2537827
  -5.10168039  -4.92760775  -4.72818473  -4.50172129  -4.24314737
  -3.94908291  -3.61445783  -3.23758211  -2.81676573  -2.35200868
  -1.84838104  -1.31264291  -0.75493445  -0.18708584   0.37738272
   0.92326101   1.44040885   1.91361603   2.33781246   2.702858
   3.00875264   3.25380636   3.44308923   3.58167133   3.67462274
   3.73208362   3.75912403   3.7641941    3.7506739    3.72532351
   3.691523     3.65096239   3.60533169   3.55632095   3.50393015
   3.45153936   3.39745854   3.34337772   3.28760687   3.23183603
   3.17606518   3.12029433   3.06452349   3.00875264   2.95129177
   2.89552093   2.83975008   2.78397923   2.72820839   2.67074752
   2.61497667   2.55920582   2.50343498   2.44597411   2.39020326
   2.33443241   2.27866157   2.22289072   2.16542985   2.109659
   2.05388816   1.99811731   1.94065644   1.88488559   1.82911475
   1.7733439    1.71588303   1.66011218   1.60434134   1.54857049
   1.49279965   1.43533877   1.37956793   1.32379708   1.26802624
   1.21056536   1.15479452   1.09902367   1.04325283   0.98748198
   0.93002111   0.87425026   0.81847942   0.76270857   0.7052477
   0.64947685   0.59370601   0.53793516   0.48047429   0.42470344
   0.3689326    0.31316175   0.2573909    0.19993003   0.14415919
   0.08838834   0.03261749  -0.02484338  -0.08061422  -0.13638507
  -0.19215592  -0.24792676  -0.30538763  -0.36115848  -0.41692932
  -0.47270017  -0.53016104  -0.58593189  -0.64170273  -0.69747358
  -0.75493445  -0.8107053   -0.86647614  -0.92224699  -0.97801784
  -1.03547871  -1.09124955  -1.1470204   -1.20279125  -1.25856209]","[nan nan nan nan nan nan nan nan nan nan nan nan nan nan nan nan nan nan
 nan nan nan nan nan nan nan nan nan nan nan nan nan nan nan nan nan nan
 nan nan nan nan nan nan nan nan nan nan nan nan nan nan nan nan nan nan
 nan nan nan nan nan nan nan nan nan nan nan nan nan nan nan nan nan nan
 nan nan nan nan nan nan nan nan nan nan nan nan nan nan nan nan nan nan
 nan nan nan nan nan nan nan nan nan nan nan nan nan nan nan nan nan nan
 nan nan nan nan nan nan nan nan nan nan nan nan nan nan nan nan nan nan
 nan nan nan nan nan nan nan nan nan nan nan nan nan nan]",2.2163841225471272,,5.917070000000001,0.5405549999999986
053,2,2,csp,34b.png,1,1,28,110,19,1,1,350,pos_feedback_onset,11,"[  1.31312718   1.07822707   0.85934288   0.67071098   0.51589046
   0.39844041   0.32014037   0.27209262   0.24717897   0.2329426
   0.2133676    0.17243803   0.094138    -0.03220979  -0.22084169
  -0.47353726  -0.79207604  -1.17289893  -1.60888777  -2.08758571
  -2.59831548  -3.13039981  -3.67138187  -4.21414348  -4.75156645
  -5.28009168  -5.7961601   -6.29977168  -6.78558781  -7.25004938
  -7.69137685  -8.09889294  -8.46369993  -8.77512052  -9.01891836
  -9.18263661  -9.25381846  -9.22000708  -9.07586384  -8.81960918
  -8.45302265  -7.98678153  -7.4315631   -6.80694237  -6.13605343
  -5.44025084  -4.74444826  -4.07177978  -3.4453795   -2.88126334
  -2.39366766  -1.9950493   -1.6871878   -1.47008316  -1.34195583
  -1.29212853  -1.309924    -1.3793263   -1.48965817  -1.62490368
  -1.77082647  -1.91496972  -2.04843569  -2.16232665  -2.25486306
  -2.32426536  -2.36875402  -2.39544721  -2.40968358  -2.41680176
  -2.42391995  -2.43993587  -2.4719677   -2.52001545  -2.58941775
  -2.68017461  -2.78694738  -2.90617698  -3.02718613  -3.14107709
  -3.23539304  -3.29767716  -3.31725217  -3.28699988  -3.19980211
  -3.05387932  -2.85101105  -2.60187457  -2.31892672  -2.01996295
  -1.72455827  -1.4522877   -1.22628532  -1.06434661  -0.98070794
  -0.98248749  -1.07324434  -1.24941942  -1.50033544  -1.81353558
  -2.17300393  -2.56094501  -2.96134292  -3.35818173  -3.74078417
  -4.09847297  -4.42768903  -4.72309371  -4.99002564  -5.22670529
  -5.44025084  -5.63600093  -5.82285329  -6.00614655  -6.19299891
  -6.39052854  -6.60229455  -6.83007647  -7.07921294  -7.34792443
  -7.63621092  -7.94229287  -8.26083165  -8.59182726  -8.9281615
  -9.26805483  -9.60438907  -9.93182558 -10.24146663 -10.52441448
 -10.76821232 -10.96040332 -11.08497155 -11.13123976 -11.08141246
 -10.92659194 -10.66143955 -10.28239619  -9.79835961  -9.21822754
  -8.55801588  -7.83729965  -7.08099249  -6.31044896  -5.54702362
  -4.80851193  -4.11270934  -3.47385224  -2.89727925  -2.39366766
  -1.96123792  -1.60354913  -1.31882173  -1.09815799  -0.93443974
  -0.82054878  -0.74402829  -0.69242145  -0.65327143  -0.61412141
  -0.56251457  -0.49133272  -0.39167813  -0.25999171  -0.09271436
   0.11015391   0.34505402   0.61020641   0.90027245   1.21525214
   1.54802728   1.8985979    2.26340488   2.64244823   3.0375075
   3.44858268   3.87389423   4.31700125   4.77612418   5.25126303
   5.73885871   6.23713166   6.74074325   7.24613438   7.74796642
   8.23912119   8.71248049   9.16270569   9.5862377    9.97773788
  10.33542667  10.66108364  10.95292922  11.21630207  11.45476126
  11.675425    11.88185237  12.079382    12.27157299  12.46198444
  12.64705725  12.82857097  13.0029665   13.16668476  13.31972574
  13.45497125  13.5759804   13.67741453  13.7646123   13.8340146
  13.89273963  13.94078738  13.9799374   14.01196923  14.04222151
  14.06713516  14.09204881  14.11518291  14.13653747  14.15967157
  14.18102612  14.20238068  14.22373523  14.24508979  14.26822389
  14.29135799  14.31449209  14.33940574  14.36609893  14.39635122
  14.4301626   14.46931261  14.51380127  14.5689672   14.63125132
  14.70421272  14.78785139  14.88216734  14.98538103  15.09393335
  15.20604476  15.31459708  15.41069258  15.49077216  15.542379
  15.55661537  15.52636309  15.44628351  15.31459708  15.13130382
  14.89996281  14.63125132  14.33584665  14.02798514  13.72190319
  13.4336167   13.1720234   12.94602102  12.76450731  12.6257027 ]","[ -6.43785163  -5.99373026  -5.48888916  -4.92679804  -4.3109266
  -3.64300969  -2.92998669  -2.18053187  -1.39984976  -0.59661462
   0.22049932   1.04281781   1.86340145   2.67531084   3.47334144
   4.25402355   5.01388747   5.75119835   6.46248649   7.15122159
   7.81219911   8.44715389   9.05261624   9.62511645  10.16465453
  10.66949563  11.13443519  11.55947323  11.94807944  12.29851896
  12.6142615   12.89877676  13.15553443  13.38800421  13.59965581
  13.79048921  13.96050442  14.10623175  14.22420149  14.3126788
  14.36645912  14.38207276  14.36125457  14.30053485  14.2033833
  14.07326962  13.9136635   13.72976949  13.52852699  13.309936
  13.08267077  12.84499643  12.60385241  12.35923868  12.11115525
  11.86133698  11.6115187   11.35823073  11.10147306  10.84298054
  10.57581377  10.30170761  10.01372266   9.70838921   9.38223757
   9.02832835   8.641457     8.21641896   7.75147939   7.2431686
   6.69148657   6.09990302   5.47015279   4.80917527   4.12217502
   3.42129597   2.71000782   2.00045453   1.29784063   0.60910553
  -0.05534169  -0.69029647  -1.28881942  -1.84223629  -2.34881224
  -2.80334271  -3.20409286  -3.55453238  -3.85813098  -4.12703259
  -4.36991147  -4.59717671  -4.82270709  -5.05344203  -5.29805575
  -5.56175282  -5.84279838  -6.14292728  -6.45520012  -6.77441236
  -7.09535945  -7.40589745  -7.69908695  -7.96451887  -8.19004925
  -8.36700386  -8.4849736   -8.53701908  -8.52140544  -8.43639783
  -8.2906705   -8.09116285  -7.85348852  -7.5915263   -7.32262469
  -7.06413217  -6.82992754  -6.63562443  -6.48816226  -6.4014198
  -6.38060161  -6.43264708  -6.56102592  -6.77094266  -7.06239732
  -7.43192018  -7.87604156  -8.38435235  -8.94644347  -9.54843612
 -10.17124696 -10.79752749 -11.40992924 -11.99457339 -12.53758117
 -13.03027832 -13.46572545 -13.84739226 -14.1735439  -14.44765006]",14.550663300443096,12.536800487145632,5.619409999999999,-0.9050149999999997
053,2,2,csp,16b.png,1,1,164,151,169,1,1,477,pos_feedback_onset,12,"[ 4.02232809  3.66062439  3.25015164  2.79903803  2.31744377  1.81146499
  1.29329395  0.76902678  0.25288779 -0.24699486 -0.72046095 -1.15735026
 -1.54343848 -1.87669358 -2.1449233  -2.34609558 -2.48224248 -2.553364
 -2.56962034 -2.53507561 -2.46395409 -2.36641601 -2.2485575  -2.11647469
 -1.97016757 -1.80760411 -1.62268817 -1.40322749 -1.13906187 -0.8119029
 -0.41362241  0.0659398   0.63084784  1.28110169  2.01060523  2.81326233
  3.67281665  4.57504387  5.50165561  6.43842756  7.36707135  8.27742674
  9.15730149  9.99653537 10.79309634 11.54088827 12.23584707 12.87594071
 13.45710509 13.97527613 14.4243577  14.80028571 15.09493198 15.30626448
 15.43225117 15.47085999 15.42818708 15.31032857 15.12947672 14.89579174
 14.62349794 14.32681962 14.01794904 13.70704641 13.39817583 13.09946547
 12.81294737 12.54065357 12.28258407 12.04077092 11.81521411 11.60997774
 11.4250618  11.26859447 11.14260778 11.04913379 10.99426862 10.97801228
 11.00036475 11.06132605 11.15886413 11.29094694 11.45554245 11.64858656
 11.87414337 12.12408469 12.40247462 12.70118499 13.02224783 13.35753497
 13.70095029 14.04842969 14.391845   14.71900397 15.02787455 15.30626448
 15.55010968 15.75534605 15.91994156 16.04796029 16.14143428 16.20849171
 16.2552287  16.28977344 16.32228613 16.35683087 16.40153582 16.45436894
 16.51939433 16.59254789 16.67179758 16.75307931 16.832329   16.9075146
 16.97660407 17.03959741 17.09446258 17.14323162 17.19200066 17.24280174
 17.29360282 17.34846799 17.40739725 17.47039059 17.53135189 17.59231319
 17.64514631 17.69188331 17.724396   17.74268439 17.74268439 17.72033191
 17.66953083 17.5882491  17.46835855 17.30782713 17.09852667 16.84045717
 16.5275225  16.16175471 15.74315379 15.27781588 14.76980506 14.22521745
 13.65421329 13.06085665 12.45733979 11.85179089 11.25640221 10.68133396
 10.14284248  9.65718414  9.24264731  8.91955242  8.71025196  8.63100227
  8.70009175  8.92158447  9.29548043  9.80958738 10.44561693 11.17105639
 11.94932897 12.73776177 13.49368187 14.17848046 14.75558075 15.20263028
 15.50337268 15.65374389 15.65780797 15.53588538 15.31439266 15.02177842
 14.69461945 14.36542844 14.06671808 13.82693697 13.66640555 13.59934812
 13.63186081 13.76191158 13.98746839 14.29430693 14.67023493 15.09696403
 15.55620581 16.03576803 16.51736229 16.98676429 17.4378779  17.85647881
 18.23647091 18.57175805 18.85827616 19.09196114 19.27281299 19.39676763
 19.46788914 19.49024162 19.46788914 19.41099193 19.3297102  19.23217212
 19.132602   19.0431921  18.97207058 18.93346176 18.93346176 18.98019875
 19.07773683 19.23014008 19.43334441 19.68734982 19.98606018 20.31931528
 20.68101899 21.05491495 21.43693909 21.8128671  22.17660285 22.51798612
 22.83701692 23.12963115 23.39582882 23.63764198 23.85710265 24.05624289
 24.24115883 24.41185047 24.57238189 24.72478514 24.86906021 25.0092712
 25.14745014 25.28359704 25.41974394 25.55995493 25.70423    25.85460121
 26.01106854 26.17159996 26.33822751 26.50485506 26.66945057 26.82794994
 26.97425706 27.10024374 27.19981386 27.26483925 27.28719173 27.25874312
 27.17542935 27.03521836 26.83607812 26.58410475 26.28539438 25.94604315
 25.57417923 25.17996283]","[-5.25582615 -4.75597365 -4.20531646 -3.61860435 -3.01386476 -2.40748632
 -1.80930217 -1.23078436 -0.67193287 -0.13602544  0.38513226  0.89317906
  1.39630929  1.90107837  2.41568062  2.94011603  3.47602347  4.02012521
  4.56750467  5.10996755  5.63768068  6.13917205  6.60460848  7.02743453
  7.3994559   7.71575601  7.97961257  8.18774788  8.34671736  8.46143761
  8.53846406  8.5827133   8.60237963  8.60237963  8.58599102  8.56140811
  8.52699204  8.48929824  8.44832672  8.40407749  8.35982825  8.31394015
  8.26805205  8.22052509  8.17463699  8.12874889  8.08122193  8.03533384
  7.98780688  7.94191878  7.89439182  7.84850372  7.80097676  7.75508866
  7.7075617   7.6616736   7.61414665  7.56825855  7.52073159  7.47320463
  7.42731653  7.37978957  7.33226261  7.28309679  7.23229211  7.17984857
  7.12248845  7.05693402  6.98154643  6.89304795  6.78324429  6.64885771
  6.48169393  6.28011406  6.03592383  5.75076207  5.42298994  5.05588515
  4.65600315  4.22989937  3.78904586  3.33835917  2.88603363  2.43370809
  1.98466026  1.5372513   1.08492576  0.62768363  0.16224721 -0.3081058
 -0.77845882 -1.24061752 -1.67983218 -2.0829919  -2.43862467 -2.73361959
 -2.96306008 -3.12694615 -3.23183323 -3.29083221 -3.31541512 -3.32688715
 -3.33999803 -3.36949753 -3.42685765 -3.51699499 -3.64646498 -3.81035104
 -4.00701432 -4.22989937 -4.47245075 -4.72647416 -4.98377528 -5.23452096
 -5.4705169  -5.68192992 -5.85401029 -5.97692484 -6.03920155 -6.02936838
 -5.94414763 -5.78026156 -5.54426563 -5.24927071 -4.91330427 -4.56422695
 -4.22662165 -3.92998787 -3.69726966 -3.54649448 -3.48585663 -3.51699499
 -3.63663181 -3.83001737 -4.08076305 -4.37411911 -4.69205808 -5.02146907
 -5.34924121 -5.66718018]",26.14565754042153,7.048084171883724,4.9211550000000015,0.3533699999999991
053,2,2,csp,53b.png,1,1,220,209,212,1,1,330,pos_feedback_onset,13,"[ -0.55899928  -0.70824463  -0.81892096  -0.88935134  -0.90947431
  -0.8843206   -0.81053639  -0.69482932  -0.54390706  -0.36615417
  -0.16827832   0.04133593   0.25430401   0.46559517   0.66850177
   0.86134688   1.03909977   1.20176042   1.34765194   1.47342049
   1.57906608   1.66123486   1.72328068   1.76017279   1.7735881
   1.76688045   1.74004982   1.69645006   1.64111189   1.57738916
   1.50863569   1.44155913   1.3778364    1.3191444    1.26883698
   1.22859105   1.19505277   1.17157597   1.15648375   1.14977609
   1.15480683   1.17157597   1.20008351   1.24536019   1.30572909
   1.3778364    1.45832827   1.53882014   1.60421979   1.64446572
   1.63943498   1.57403533   1.42982073   1.19169894   0.85296231
   0.40690318  -0.14647844  -0.79712107  -1.53664015  -2.34826653
  -3.21523107  -4.12076464  -5.04474426  -5.9720777   -6.88431893
  -7.76637569  -8.59980196  -9.36782857 -10.0536864  -10.64563705
 -11.13194211 -11.50757085 -11.77252326 -11.93853775 -12.02070653
 -12.04250642 -12.0290911  -12.00896814 -12.00393739 -12.03412185
 -12.11125989 -12.24205918 -12.42148898 -12.64619546 -12.9027633
 -13.18113103 -13.47291407 -13.76805093 -14.0631878  -14.35497083
 -14.64675387 -14.94021382 -15.23870452 -15.54557978 -15.86587036
 -16.19789933 -16.54334362 -16.9005263  -17.26777047 -17.64004538
 -18.0139972  -18.38794903 -18.75854702 -19.12243736 -19.47962004
 -19.82841816 -20.16380096 -20.48912228 -20.79767446 -21.09113441
 -21.36782522 -21.62606998 -21.86419177 -22.08219059 -22.28006644
 -22.4544655  -22.60538776 -22.72947939 -22.82506349 -22.89046314
 -22.92567833 -22.93070907 -22.91058611 -22.87034017 -22.82003275
 -22.76972533 -22.73115631 -22.71606408 -22.73618705 -22.8015867
 -22.91393993 -23.07492368 -23.2811841  -23.52265972 -23.78761213
 -24.05759529 -24.31584005 -24.54390035 -24.72333015 -24.83903722
 -24.87760624 -24.83065265 -24.69482261 -24.46843922 -24.15653322
 -23.76748917 -23.31304547 -22.80829435 -22.2632973  -21.69817728
 -21.12131886 -20.54949118 -19.99107882 -19.45278942 -18.94133065
 -18.45837941 -18.00561263 -17.58135339 -17.18224785 -16.80829603
 -16.45446717 -16.11740746 -15.79376305 -15.48185705 -15.17833561
 -14.878168   -14.57967731 -14.28118662 -13.9793421  -13.669113
 -13.34882243 -13.01176271 -12.65290312 -12.26385907 -11.83792291
 -11.3700639  -10.85022056 -10.27503905  -9.6461963   -8.9636923
  -8.23926544  -7.48800797  -6.73171975  -5.99387759  -5.30298902
  -4.68756157  -4.17107206  -3.77532035  -3.51204485  -3.38795322
  -3.39969162  -3.53719856  -3.78705875  -4.12914921  -4.54334697
  -5.00617524  -5.50086487  -6.01064673  -6.5221055   -7.02853353
  -7.52322316  -7.99946674  -8.45558735  -8.88823117  -9.2873367
  -9.64787321  -9.95474848 -10.19287026 -10.34546944 -10.39074612
 -10.30857733 -10.08554777  -9.70991903  -9.17833729  -8.50254094
  -7.69594531  -6.79041174  -5.82115544  -4.82842235  -3.85748914
  -2.95363249  -2.15374451  -1.4947173   -1.0033815   -0.69986006
  -0.59253756  -0.68309092  -0.96313556  -1.41422543  -2.01288373
  -2.72892601  -3.52713708  -4.37397865  -5.23088171  -6.06598489
  -6.85413447  -7.56849984  -8.19901951  -8.73730891  -9.1800142
  -9.53384306  -9.80550313 -10.00840972 -10.15597816 -10.26162374
 -10.3404387  -10.40248452 -10.46453033 -10.53496072 -10.62216025
 -10.73283658 -10.87034352 -11.03803493 -11.22920312 -11.44384812
 -11.67358533 -11.9083533  -12.14144434 -12.36112008 -12.55731902]","[-5.96694161e+00 -5.33232481e+00 -4.68913210e+00 -4.04422422e+00
 -3.39931633e+00 -2.75783880e+00 -2.12150682e+00 -1.48689002e+00
 -8.55703576e-01 -2.24517134e-01  4.08384489e-01  1.03785575e+00
  1.66561183e+00  2.28479201e+00  2.89196592e+00  3.47855767e+00
  4.03599135e+00  4.55912142e+00  5.03937197e+00  5.47674301e+00
  5.86780417e+00  6.21255546e+00  6.51785760e+00  6.78542577e+00
  7.02555104e+00  7.24166379e+00  7.44233992e+00  7.63444014e+00
  7.81967964e+00  8.00663432e+00  8.19530418e+00  8.38740440e+00
  8.58465016e+00  8.78532629e+00  8.98943277e+00  9.19525444e+00
  9.39764574e+00  9.59489151e+00  9.78356137e+00  9.95850978e+00
  1.01145912e+01  1.02466601e+01  1.03495709e+01  1.04147478e+01
  1.04387603e+01  1.04164630e+01  1.03427102e+01  1.02140717e+01
  1.00322625e+01  9.80071317e+00  9.52113874e+00  9.20211516e+00
  8.85393351e+00  8.48173933e+00  8.09925407e+00  7.70990808e+00
  7.32227728e+00  6.94150720e+00  6.56759784e+00  6.20569474e+00
  5.85579791e+00  5.51790734e+00  5.19716858e+00  4.89701198e+00
  4.62258310e+00  4.38245782e+00  4.18349688e+00  4.03599135e+00
  3.94851714e+00  3.92621979e+00  3.96909931e+00  4.07201014e+00
  4.22466121e+00  4.40818553e+00  4.59857057e+00  4.76665826e+00
  4.88157536e+00  4.91759415e+00  4.84727175e+00  4.65688671e+00
  4.33443276e+00  3.87819474e+00  3.29331817e+00  2.59523969e+00
  1.79939591e+00  9.24653834e-01 -8.40438469e-03 -9.75766214e-01
 -1.96199503e+00 -2.94650866e+00 -3.91558567e+00 -4.85721980e+00
 -5.76111994e+00 -6.62214058e+00 -7.43856652e+00 -8.20868259e+00
 -8.93420396e+00 -9.62199136e+00 -1.02737600e+01 -1.08963705e+01
 -1.14949685e+01 -1.20746995e+01 -1.26372788e+01 -1.31861365e+01
 -1.37178425e+01 -1.42306815e+01 -1.47195079e+01 -1.51740308e+01
 -1.55822438e+01 -1.59304254e+01 -1.62031391e+01 -1.63815179e+01
 -1.64518403e+01 -1.63969545e+01 -1.62082847e+01 -1.58806852e+01
 -1.54141561e+01 -1.48172732e+01 -1.41054733e+01 -1.32941929e+01
 -1.24091598e+01 -1.14761015e+01 -1.05190308e+01 -9.56539040e+00
 -8.64090809e+00 -7.76616601e+00 -6.96003115e+00 -6.23965532e+00
 -5.61532960e+00 -5.09219953e+00 -4.67712584e+00 -4.36667816e+00
 -4.15571095e+00 -4.03736349e+00 -3.99791434e+00 -4.02535723e+00
 -4.10254035e+00 -4.21231191e+00 -4.33923527e+00 -4.46787381e+00]",0.9371014709051249,8.469647307423788,5.963335,
053,2,2,csm,56a.png,1,1,284,307,287,1,1,562,neu_feedback_onset,14,"[ 2.54915835e+00  2.15812602e+00  1.76709370e+00  1.38537167e+00
  1.01854610e+00  6.68479070e-01  3.42618799e-01  3.91032325e-02
 -2.36481454e-01 -4.85997319e-01 -7.07582303e-01 -8.97512290e-01
 -1.05206316e+00 -1.16192462e+00 -1.21592433e+00 -1.20475197e+00
 -1.11537316e+00 -9.32891405e-01 -6.51720542e-01 -2.66274393e-01
  2.17860867e-01  7.93237003e-01  1.43750931e+00  2.12460897e+00
  2.82846715e+00  3.51370475e+00  4.15239088e+00  4.72031878e+00
  5.19886787e+00  5.58058990e+00  5.86362282e+00  6.05169075e+00
  6.15596604e+00  6.19134515e+00  6.17272456e+00  6.11500074e+00
  6.03120810e+00  5.93438105e+00  5.82824371e+00  5.71838224e+00
  5.61038284e+00  5.50238344e+00  5.39810815e+00  5.29755698e+00
  5.20072993e+00  5.11135111e+00  5.03128259e+00  4.96611053e+00
  4.91769701e+00  4.88976613e+00  4.88604201e+00  4.90466259e+00
  4.94562789e+00  5.00707582e+00  5.07969611e+00  5.15417846e+00
  5.21935051e+00  5.26217786e+00  5.26590198e+00  5.22121257e+00
  5.11507523e+00  4.94190377e+00  4.69611202e+00  4.37769999e+00
  3.99039178e+00  3.54163563e+00  3.04260390e+00  2.50074482e+00
  1.92909281e+00  1.34068226e+00  7.46685536e-01  1.60137048e-01
 -4.02204677e-01 -9.27305229e-01 -1.39840608e+00 -1.79874870e+00
 -2.11343662e+00 -2.32943542e+00 -2.43557277e+00 -2.42626248e+00
 -2.30336660e+00 -2.07433338e+00 -1.75033517e+00 -1.35371667e+00
 -9.04960524e-01 -4.33859675e-01  3.35170565e-02  4.71100849e-01
  8.49098764e-01  1.14702815e+00  1.34626843e+00  1.43006108e+00
  1.39095784e+00  1.22337256e+00  9.29167287e-01  5.13928199e-01
 -9.31029346e-03 -6.27513779e-01 -1.32578579e+00 -2.08550574e+00
 -2.89177715e+00 -3.73156562e+00 -4.59183673e+00 -5.46141814e+00
 -6.33286161e+00 -7.19685684e+00 -8.04967973e+00 -8.88015790e+00
 -9.68456726e+00 -1.04535975e+01 -1.11798004e+01 -1.18557277e+01
