sub,run,cat_cond,trial_type,picture,old,response_old,target_pos,response_pos,dot_resp_loc,cat_corr,TN_corr,TN_rt,feedback_type,trial,SP_timeseries,FB_timeseries,SP_peak_response,FB_peak_response,preStim_bl,anticipation
041,1,2,csp,33b.png,1,1,188,160,186,1,1,322,pos_feedback_onset,1,"[ 0.1672167   0.4084795   0.64581934  0.87139025  1.06753887  1.22641926
  1.33037803  1.37156924  1.33626249  1.2205348   1.0204632   0.73800919
  0.37513424 -0.05835421 -0.55068726 -1.08813448 -1.65696548 -2.2375654
 -2.81424235 -3.37326592 -3.90090572 -4.38146984 -4.81103532 -5.1837177
 -5.4975555  -5.75647168 -5.96242773 -6.12523109 -6.25076621 -6.34295606
 -6.4076851  -6.44887631 -6.46260672 -6.44887631 -6.40180064 -6.31745674
 -6.18996013 -6.01538786 -5.79177843 -5.52109333 -5.20529405 -4.84830356
 -4.45600632 -4.03624827 -3.59099089 -3.13004163 -2.651439   -2.15518298
 -1.64519657 -1.1136338  -0.5585332   0.02206672  0.63012745  1.26564898
  1.92470835  2.6014211   3.28597979  3.96073105  4.61390596  5.22785114
  5.78491323  6.27528478  6.69111986  7.03045698  7.29329613  7.48748327
  7.62282582  7.71305418  7.76601431  7.79739809  7.81308998  7.82093592
  7.82878187  7.83466633  7.84055079  7.84447376  7.84643524  7.8385893
  7.82289741  7.79151363  7.74443796  7.6816704   7.60124947  7.50317516
  7.39333193  7.27368127  7.14618466  7.01672657  6.88726848  6.76761782
  6.66169757  6.57343069  6.51066313  6.47731786  6.47731786  6.50870164
  6.57343069  6.66758203  6.78134823  6.91080632  7.04418738  7.17560696
  7.29329613  7.39529341  7.47571435  7.53848191  7.5816346   7.61301838
  7.63655622  7.65813257  7.6816704   7.71109269  7.74639945  7.78955214
  7.83662781  7.881742    7.92293321  7.9523555   7.96804739  7.9660859
  7.94450955  7.90527983  7.85035822  7.7817062   7.70716972  7.62674879
  7.54828934  7.47179138  7.40117787  7.33644883  7.27564275  7.22464411
  7.17756844  7.14030021  7.11087791  7.09518602  7.09518602  7.11676237
  7.16383804  7.240336    7.34821774  7.49140624  7.66794     7.87781902
  8.11319737  8.37015206  8.64083716  8.91544523  9.18220736  9.43131611
  9.65492554  9.83734376  9.9726863  10.04918427 10.05506873  9.98053225
  9.81772889  9.55292825  9.18220736  8.69379729  8.08769805  7.36390963
  6.52439353  5.58091866  4.5511384   3.45662909  2.32681303  1.18718953
  0.06914239 -0.99594463 -1.98649517 -2.88093288 -3.66748886 -4.34027863
 -4.8993022  -5.354367   -5.71331898 -5.98988854 -6.19780608 -6.34884052
 -6.4508378  -6.51556684 -6.54498914 -6.54695062 -6.5214513  -6.47437563
 -6.40572362 -6.32137971 -6.2233054  -6.11934663 -6.01342637 -5.90554463
 -5.79962438 -5.69762709 -5.59955278 -5.49951698 -5.39948119 -5.29552242
 -5.18764068 -5.07191299 -4.94833936 -4.81888127 -4.6855002  -4.55015765
 -4.41481511 -4.28143404 -4.15197595 -4.03036381 -3.91463612 -3.80871586
 -3.70868007 -3.61649021 -3.53018482 -3.4478024  -3.37130444 -3.29480647
 -3.22223148 -3.14965649 -3.07904299 -3.006468   -2.9358545  -2.86720248
 -2.80247343 -2.73970588 -2.68478426 -2.63967008 -2.60632481 -2.58474846
 -2.57690252 -2.58278698 -2.60044035 -2.62397819 -2.64555454 -2.65536197
 -2.64751602 -2.6082863  -2.52982685 -2.40625322 -2.22971946 -1.9963026
 -1.70404115 -1.35293512 -0.9429845  -0.47811227  0.0397201   0.60462813
  1.21072737  1.85017188  2.51903868  3.20752034  3.90777092  4.61782893
  5.33180991  6.04382941  6.75781039  7.4678684   8.17792641  8.88602294
  9.59411946 10.29829302]","[-7.75552212 -7.10415312 -6.34258271 -5.49048972 -4.56952085 -3.60722646
 -2.62722112 -1.65508732 -0.70853598  0.19668983  1.04681493  1.83987146
  2.57389152  3.24887511  3.87072588  4.44534748  4.97273991  5.4607747
  5.90354819  6.30106039  6.64543978  6.93471846  7.15708915  7.31255184
  7.39520289  7.40701019  7.35387737  7.24170808  7.08427751  6.89142505
  6.67495801  6.45061944  6.22628087  6.01178171  5.81302561  5.63394833
  5.47454987  5.33679812  5.21478942  5.10852378  5.00619391  4.90583192
  4.7975984   4.67362182  4.53587006  4.37843949  4.20526586  4.02422069
  3.84120765  3.66606613  3.51060344  3.37875533  3.27839334  3.21148535
  3.17803135  3.17409559  3.19967805  3.25084299  3.3275904   3.42598451
  3.5479932   3.69361649  3.868758    4.07144987  4.30169208  4.56145253
  4.84285969  5.1400099   5.44306376  5.7362782   6.00784595  6.24005605
  6.42503697  6.54704567  6.60411425  6.59427484  6.51949532  6.38764721
  6.21447358  6.00981383  5.7913789   5.57491186  5.37418788  5.19904636
  5.05932673  4.95306109  4.8861531   4.85073122  4.84482757  4.86057063
  4.88812098  4.92157497  4.95502897  4.98061144  4.9963545   4.99438662
  4.97470779  4.92747862  4.8526991   4.74446558  4.59884229  4.41189349
  4.18558703  3.92189082  3.62474061  3.30397581  2.96943584  2.63489586
  2.31413107  2.01894874  1.76115617  1.54862489  1.37938702  1.25147468
  1.15701634  1.08617258  1.02320035  0.95629235  0.87167342  0.76147202
  0.6197845   0.44661086  0.24588688  0.01958043 -0.22443696 -0.48026165
 -0.74198998 -1.00765408 -1.27725394 -1.55669321 -1.84597189 -2.15099363
 -2.4756942  -2.82007358 -3.18019602 -3.55606152 -3.94176643 -4.3314071
 -4.72104778 -5.10872057]",3.525748126021765,4.6137490025296986,5.0981749999999995,-0.47663999999999973
041,1,2,csp,54b.png,1,1,204,308,204,1,1,315,pos_feedback_onset,2,"[ 0.42986037  0.41602737  0.43677687  0.48058135  0.53591334  0.58893983
  0.63043882  0.64427181  0.62582782  0.56819033  0.46674836  0.32150189
  0.13936744 -0.07965501 -0.32864894 -0.59839238 -0.8819688  -1.17476723
 -1.46756566 -1.75344759 -2.02780202 -2.28140695 -2.5142624  -2.71714635
 -2.8877533  -3.02838877 -3.13674724 -3.21513422 -3.27046621 -3.3050487
 -3.32810369 -3.34654769 -3.36268618 -3.38113018 -3.39726867 -3.40879617
 -3.40879617 -3.38804668 -3.34193669 -3.26124421 -3.14135824 -2.98227878
 -2.78170033 -2.54423389 -2.27449046 -1.97938653 -1.66583861 -1.34306869
 -1.01568777 -0.68830685 -0.37014793 -0.06351651  0.22697642  0.50133085
  0.75954678  1.00162422  1.23217417  1.45119661  1.66099706  1.86849201
  2.07368146  2.27656541  2.47944935  2.6777223   2.87599526  3.06735171
  3.25179166  3.42700962  3.58608908  3.72672454  3.83969401  3.92269199
  3.96649648  3.97110748  3.93191399  3.85352701  3.73825204  3.59761657
  3.44545361  3.29329065  3.15726618  3.04890771  2.97974273  2.95438224
  2.97282623  3.03046372  3.12037819  3.23104217  3.34631714  3.45237011
  3.53997909  3.59992207  3.62758807  3.62297707  3.59761657  3.55842308
  3.52384059  3.5077021   3.52614609  3.59531108  3.72672454  3.92269199
  4.18551893  4.51059435  4.89100175  5.31290815  5.76709153  6.23971891
  6.72848479  7.22877817  7.73829354  8.26164191  8.80343427  9.36367063
  9.94465649 10.53947534 11.13659969 11.71989104 12.2685999  12.75967128
 13.17005018 13.4859036  13.69339855 13.79484052 13.79484052 13.71414804
 13.57812358 13.42134962 13.27149215 13.16313368 13.11932919 13.15391168
 13.27149215 13.4720706  13.73950854 14.05766746 14.40349237 14.75392828
 15.0905312  15.39716262 15.66229506 15.879012   16.04961896 16.17411593
 16.25480841 16.2963074  16.2940019  16.24558641 16.14414443 15.98045398
 15.74298754 15.42482861 15.01675522 14.51876734 13.93547599 13.27610315
 12.55678733 11.80058352 11.03285221 10.2766484   9.55963808  8.90257075
  8.32850139  7.84665201  7.46855011  7.19189018  7.01206122  6.92445224
  6.91523024  6.97056223  7.0766152   7.22186167  7.39016313  7.57229758
  7.76365403  7.95731598  8.14867244  8.33541789  8.51294134  8.6858538
  8.85184976  9.00862372  9.15617568  9.29450565  9.42361362  9.54119409
  9.64955256  9.74638354  9.83399251  9.91237949  9.98154448 10.04148746
 10.09681945 10.14754044 10.19595592 10.24206591 10.2881759  10.33889689
 10.38961787 10.44494986 10.50489285 10.56714133 10.63169531 10.7008603
 10.77002528 10.84149576 10.91296624 10.98213123 11.05129621 11.11585019
 11.17579318 11.22651417 11.26801316 11.29798465 11.30720665 11.29798465
 11.26801316 11.21037567 11.13429419 11.03746321 10.93141024 10.82305177
 10.72852629 10.65936131 10.62708432 10.64322281 10.71469329 10.84380126
 11.03285221 11.27723515 11.56772808 11.89972    12.26398891 12.65361831
 13.06169171 13.4835981  13.91703199 14.35738238 14.80926027 15.27266565
 15.75220953 16.25019741 16.77815678 17.33608764 17.93551749 18.57875183
 19.26809615 19.99663397 20.76436528 21.55054058 22.34363238 23.12289119
 23.865262   24.55230083 25.16556368 25.69121755 26.12234594 26.45664335
 26.69410979 26.84166176]","[-2.93117207 -2.55312453 -2.1862508  -1.8305509  -1.49347402 -1.17502018
 -0.87332707 -0.58653238 -0.30904921 -0.03715295  0.23101871  0.50105267
  0.77294893  1.04484519  1.31487915  1.5774639   1.82515022  2.0504889
  2.24789304  2.40991341  2.53468772  2.62221597  2.67249816  2.69298349
  2.69298349  2.67994737  2.67063586  2.67436046  2.70229501  2.76188871
  2.86059078  3.00026352  3.17904462  3.39320948  3.63344659  3.89230673
  4.16047839  4.42865004  4.68751018  4.9314719   5.14936137  5.33931629
  5.49574976  5.61121255  5.68570468  5.71177693  5.68570468  5.60376334
  5.4640906   5.26668647  5.00968863  4.6968217   4.33553489  3.93513971
  3.50494767  3.05613261  2.59614373  2.13615485  1.67989057  1.2292132
  0.78598505  0.34089459 -0.10792047 -0.56790935 -1.04838357 -1.54748082
 -2.0689257  -2.60526901 -3.14719924 -3.67609333 -4.17519058 -4.62400565
 -5.00205319 -5.29629709 -5.49556353 -5.5942656  -5.5979902  -5.51791117
 -5.37078922 -5.17710969 -4.95922022 -4.73760614 -4.52716588 -4.34093557
 -4.1826398  -4.04669166 -3.92750426 -3.81390377 -3.69285406 -3.55318133
 -3.38371174 -3.18072069 -2.94234589 -2.67044963 -2.36875651 -2.04657806
 -1.71136349 -1.37056202 -1.03534745 -0.7150313  -0.41520049 -0.14702883
  0.08017215  0.26081556  0.38372757  0.44332127  0.43400975  0.34834381
  0.18259883 -0.07067441 -0.40961358 -0.83794331 -1.35380129 -1.9497383
 -2.61830514 -3.34460337 -4.11000997 -4.89590191 -5.67434463 -6.4192659
 -7.10459346 -7.70611739 -8.20149003 -8.57581297 -8.82349929 -8.94268669
 -8.94268669 -8.83839771 -8.65030509 -8.39703186 -8.10278796 -7.78619642
 -7.46588028 -7.15487565 -6.86249405 -6.59246009 -6.35222298 -6.14178273
 -5.96486393 -5.82332889]",21.444707179890617,3.4562950037199833,4.337454999999999,0.1846350000000001
041,1,2,csp,43b.png,1,1,264,271,264,1,1,431,pos_feedback_onset,3,"[ 4.65598224  4.26928936  3.80925818  3.29589005  2.74918633  2.19137075
  1.63355516  1.09129619  0.5668162   0.0667823  -0.41325023 -0.87772616
 -1.33331259 -1.78223191 -2.22892885 -2.67340342 -3.11343324 -3.54901832
 -3.97349154 -4.38463051 -4.77799051 -5.14912677 -5.49803931 -5.82472812
 -6.12474846 -6.40254506 -6.65589557 -6.88035522 -7.07592403 -7.23371251
 -7.35372064 -7.42483657 -7.44483793 -7.40705759 -7.30705081 -7.14926234
 -6.92924743 -6.65367319 -6.32920676 -5.96695998 -5.57582236 -5.16690576
 -4.74909966 -4.33129357 -3.92015459 -3.52012748 -3.12898985 -2.7489641
 -2.37560546 -2.00669156 -1.6355553  -1.26219666 -0.8821709  -0.49325565
 -0.09767329  0.30902094  0.72238229  1.14463314  1.57577347  2.01580329
  2.46694498  2.92475379  3.39145209  3.8648175   4.34040529  4.80932597
  5.2649124   5.69827511  6.09385747  6.44277001  6.7383456   6.97169475
  7.1472622   7.26727034  7.33838627  7.37394423  7.38283373  7.37838898
  7.36505474  7.35172051  7.33394152  7.31394017  7.28504932  7.24282424
  7.17615305  7.08281339  6.95613814  6.79612729  6.60500323  6.38498832
  6.14719442  5.89384392  5.63604867  5.38269816  5.13823715  4.91155512
  4.70487444  4.52041749  4.35818428  4.21817479  4.1026114   4.00482699
  3.93148869  3.87592937  3.84259378  3.83148191  3.84703852  3.88481886
  3.94926767  4.03594021  4.14261411  4.26484462  4.40040936  4.54041885
  4.68487309  4.82488258  4.96044732  5.08934494  5.21379782  5.33602833
  5.46048121  5.59160121  5.73605544  5.90051103  6.08941273  6.30942764
  6.5583334   6.84057475  7.1472622   7.47839576  7.82508592  8.18066558
  8.53624523  8.88515777  9.22295844  9.54075776  9.84300047 10.12746419
 10.4052608  10.67861266 10.96529876 11.27420859 11.61867638 12.01203637
 12.46095569 12.97210144 13.54547364 14.17440515 14.84556175 15.54338683
 16.24343428 16.92348037 17.55241189 18.1080051  18.56359153 18.89694746
 19.0902939  19.13696373 19.03028983 18.77249458 18.37024509 17.84132036
 17.20127698 16.46567156 15.65895022 14.8011143  13.91216516 13.00988178
 12.1164879  11.24531774 10.41637267  9.64743166  8.95182896  8.34067642
  7.8273083   7.41839169  7.10948186  6.89835644  6.77168119  6.7138995
  6.70278763  6.7138995   6.72501136  6.7138995   6.66278492  6.56500052
  6.41832391  6.22942222  6.01607442  5.79161477  5.58048934  5.39825477
  5.2649124   5.18935172  5.18046223  5.23824393  5.36047443  5.54493138
  5.78494765  6.07163374  6.40054493  6.76945882  7.16948593  7.60062626
  8.05843507  8.53846761  9.03627913  9.54298014 10.05412589 10.5608269
 11.05641605 11.53422621 11.98759027 12.4187306  12.82542483 13.21434008
 13.58769872 13.95439024 14.32552651 14.70777464 15.11002412 15.53894208
 15.99452852 16.4790058  16.97903969 17.48351833 17.97244035 18.41469255
 18.78582882 19.04806881 19.17252169 19.13474135 18.91694882 18.50580984
 17.90576917 17.12793867 16.20120919 15.15669395 14.04106278 12.90320788
 11.7964662  10.77417469  9.88078081  9.16295438  8.6451415   8.34512117
  8.26511575  8.391791    8.69403371  9.13184116  9.66298827 10.23413809
 10.80528791 11.33421265 11.80313332 12.19427095 12.51873738 12.78986687
 13.03432788 13.28101127]","[-4.67184491 -4.3950756  -4.05959766 -3.67170128 -3.23557995 -2.75752388
 -2.2396298  -1.68399445 -1.09271457 -0.46998363  0.17581141  0.83838035
  1.5009493   2.14884108  2.76528181  3.33140084  3.83042429  4.25186845
  4.58944314  4.84524507  5.02346773  5.13878827  5.20378713  5.23943166
  5.26249577  5.28765661  5.32749462  5.39039673  5.47636296  5.5916835
  5.72797142  5.88732344  6.06344936  6.25425245  6.45763595  6.67779335
  6.91262791  7.16423637  7.43261873  7.71567825  8.00922145  8.30486139
  8.59421112  8.86259348  9.0953313   9.28403764  9.41193861  9.47274399
  9.46435704  9.38258429  9.23790943  9.03662266  8.79549789  8.52921227
  8.25873317  8.0008345   7.76809668  7.57519686  7.43052199  7.33407208
  7.2900406   7.29213734  7.33616882  7.4137481   7.52068169  7.6506794
  7.797451    7.9609965   8.13292894  8.31744181  8.51243837  8.71582187
  8.9317858   9.15823342  9.39306798  9.63209601  9.87112405 10.10176514
 10.31563233 10.5001452  10.64482006 10.73917324 10.77272103 10.73917324
 10.6301429  10.4435333  10.18353789  9.85435015  9.45806683  9.00936508
  8.51453511  7.98825408  7.43890894  6.87698338  6.31296109  5.75103553
  5.19959365  4.65863546  4.13445117  3.62494404  3.13221081  2.65625147
  2.19706604  1.75255776  1.3206299   0.90128247  0.49032199  0.08984519
 -0.30224466 -0.68385083 -1.0549733  -1.41141862 -1.74689657 -2.05721367
 -2.33607971 -2.57930122 -2.78268473 -2.94203675 -3.05945403 -3.13283983
 -3.16848436 -3.17267784 -3.14961373 -3.10767899 -3.05316382 -2.9902617
 -2.92735959 -2.86445747 -2.80784557 -2.75962062 -2.71978261 -2.68833155
 -2.66526744 -2.64849355 -2.63800986 -2.63381639 -2.63591312 -2.64220334
 -2.6568805  -2.67784787]",14.089288273983016,8.150646371648744,4.499695,-0.7480949999999993
041,1,2,csm,34a.png,1,1,244,239,243,1,1,250,neu_feedback_onset,4,"[-1.3235671  -1.29876572 -1.28016468 -1.26569721 -1.24709617 -1.21816123
 -1.17062524 -1.10035466 -0.992882   -0.84407371 -0.64152909 -0.37698101
 -0.0483627   0.34432586  0.79695108  1.29504551  1.82207488  2.3553046
  2.86579972  3.32875886  3.71938063  4.01079687  4.18854011  4.24227644
  4.16787229  3.96532767  3.64497648  3.22335298  2.72112499  2.15689354
  1.55752681  0.94782616  0.35259298 -0.21163846 -0.72420036 -1.17889237
 -1.56744736 -1.88779855 -2.1440795  -2.33835699 -2.47476459 -2.55743587
 -2.58430403 -2.5533023  -2.46029712 -2.29908814 -2.063475   -1.74932416
 -1.35870239 -0.88954291 -0.35424641  0.24098676  0.88375592  1.56166037
  2.2643662   2.9815395   3.70284637  4.41795289  5.12272551  5.81096386
  6.47646762  7.11717     7.72687064  8.301436    8.8367325   9.32862658
  9.7709179  10.15947289 10.4880912  10.75263928 10.94898356 11.07919081
 11.14119427 11.14119427 11.0812576  10.96965138 10.81464274 10.62449881
 10.40748671 10.1698068   9.91972619  9.66551202  9.40923107  9.15708369
  8.91113665  8.6775903   8.45644464  8.24976645  8.05962252  7.88601285
  7.72687064  7.58219591  7.45198866  7.33624887  7.23497656  7.15023851
  7.08823505  7.0489662   7.04276585  7.07583436  7.15437207  7.28457933
  7.47058969  7.70826961  7.9934855   8.31590347  8.65692248  8.9958747
  9.31002555  9.57457362  9.76678434  9.87012343  9.87012343  9.75645043
  9.5311712   9.19635254  8.75819479  8.23116542  7.62559833  6.95802779
  6.24705484  5.50508015  4.75070477  3.99426261  3.25435471  2.53924819
  1.86134374  1.22890849  0.64814279  0.12524698 -0.33771216 -0.74073462
 -1.09002075 -1.38557056 -1.63978472 -1.8588636  -2.0531411  -2.2350179
 -2.41069436 -2.59257116 -2.78271509 -2.98732649 -3.20227181 -3.42548425
 -3.65076347 -3.86570878 -4.05998628 -4.21912848 -4.33486826 -4.38860459
 -4.37413712 -4.28113194 -4.10752226 -3.85330809 -3.52675656 -3.13820157
 -2.70417738 -2.23915146 -1.76379164 -1.29256537 -0.83580658 -0.39971561
  0.02190789  0.43939782  0.87135523  1.34464828  1.87994478  2.50204611
  3.22748655  4.06246641  5.0090525   6.05071056  7.16677276  8.32830416
  9.49810269 10.64103306 11.7302271  12.73468308 13.63579997 14.42531064
 15.1011483  15.66124619 16.11387141 16.46935789 16.73183919 16.91164921
 17.01292152 17.03978968 16.99018692 16.86411323 16.66570217 16.39495375
 16.05186796 15.64677871 15.18795314 14.68572515 14.15249543 13.60479824
 13.05503427 12.51353742 11.98857483 11.48221328 10.99445276 10.52115971
 10.0561338   9.59317466  9.12401518  8.64865535  8.1650284   7.67933466
  7.19984127  6.73481535  6.29872438  5.8977687   5.53814866  5.22193104
  4.95118261  4.71970304  4.52542555  4.360083    4.21954184  4.09966849
  3.99839618  3.9157249   3.85165467  3.81445259  3.80825225  3.84545432
  3.9384595   4.10173527  4.34354875  4.67836741  5.1123916   5.64562132
  6.273923    6.98696274  7.76200594  8.57838477  9.41129786 10.23181025
 11.01925414 11.7529617  12.41846546 13.00956507 13.52006018 13.94788403
 14.29717016 14.56791859 14.7601293  14.8738023  14.91100437 14.86760195
 14.73946148 14.5203826  14.20829854 13.80114252 13.29271418 12.68921388
 11.99064161 11.20319772]","[ -3.07537848  -2.75832915  -2.42429504  -2.07705054  -1.72225724
  -1.36180235  -0.99946026  -0.63711817  -0.28043768   0.07058122
   0.40838973   0.73110065   1.03305239   1.30858336   1.55580634
   1.76717256   1.94079481   2.08044749   2.1842434    2.25595694
   2.3050241    2.33144488   2.34842966   2.35786565   2.36730165
   2.37862484   2.39372242   2.4163688    2.44278958   2.47298476
   2.50506713   2.5409239    2.57489347   2.61263744   2.6484942
   2.68623817   2.72398214   2.76172611   2.79380848   2.81834206
   2.82966525   2.82211646   2.79380848   2.74096692   2.66170459
   2.56168308   2.44278958   2.31257289   2.18046901   2.05780111
   1.952118     1.86908127   1.81812692   1.79736774   1.81057812
   1.85587089   1.92569723   2.02005714   2.13140185   2.25784414
   2.39372242   2.5352623    2.68246378   2.83343965   2.98441552
   3.13916578   3.29391605   3.45244071   3.61096538   3.77515164
   3.94122509   4.11296015   4.2884696    4.46586624   4.64515009
   4.81877234   4.9829586    5.12638568   5.23584318   5.30000793
   5.30189512   5.22640719   5.06033373   4.79423876   4.42057348
   3.9336763    3.33920881   2.64094541   1.85209649   0.98398523
   0.05737083  -0.91453633  -1.90908988  -2.90930502  -3.89819697
  -4.85689375  -5.76841056  -6.61953703  -7.39706276  -8.08777737
  -8.68413206  -9.17857803  -9.57300249  -9.86740544 -10.07311007
 -10.19955236 -10.2637171  -10.28636348 -10.28825068 -10.28825068
 -10.30146107 -10.33920504 -10.40714418 -10.50716569 -10.63172079
 -10.77326066 -10.91480054 -11.04879163 -11.16202353 -11.24317306
 -11.29035302 -11.30167621 -11.27902983 -11.22807547 -11.15636193
 -11.07143801 -10.98273968 -10.89970295 -10.82987661 -10.78080946
 -10.75816308 -10.76571187 -10.81100463 -10.89404136 -11.01482206
 -11.17334672 -11.36772815 -11.59041756 -11.83386615 -12.08863793]",12.390667239854182,1.821712594784514,4.838439999999999,-0.18456999999999812
041,1,2,csm,13a.png,1,1,236,235,235,1,1,314,neu_feedback_onset,5,"[-0.13749745 -0.24056198 -0.32254513 -0.37876215 -0.40452828 -0.39515878
 -0.35533839 -0.28506712 -0.19371447 -0.08596519  0.03349597  0.15295713
  0.26304879  0.35674382  0.42467271  0.45746597  0.44106934  0.37314045
  0.24430978  0.05223498 -0.20308397 -0.51696231 -0.88237292 -1.28760391
 -1.71625866 -2.15662529 -2.58996479 -3.00456529 -3.39105728 -3.74709838
 -4.06800385 -4.35611606 -4.61846214 -4.85504208 -5.07054064 -5.26964258
 -5.4500055  -5.60694468 -5.73577534 -5.83181274 -5.88334501 -5.88334501
 -5.82712799 -5.70766683 -5.5273039  -5.28369683 -4.98153037 -4.62783164
 -4.23197015 -3.79863065 -3.34186739 -2.87104988 -2.39788999 -1.92941485
 -1.47967872 -1.04868159 -0.64813535 -0.27569762  0.06628923  0.38016757
  0.67062216  0.93765299  1.18828718  1.4272095   1.65441995  1.87694564
  2.0924442   2.30091563  2.50470232  2.6991195   2.8818248   3.04813348
  3.19570315  3.31750668  3.41120171  3.47444585  3.50489674  3.50255436
  3.47210348  3.41822884  3.34327281  3.25192016  3.14651326  3.03173685
  2.90524856  2.77173315  2.62650585  2.47190906  2.31028514  2.14397646
  1.98001017  1.81838624  1.67315895  1.54667066  1.44829089  1.38504674
  1.36162299  1.37567724  1.43423663  1.52793166  1.6591047   1.81838624
  2.00109155  2.20253586  2.41569204  2.63587536  2.85840105  3.08795386
  3.31984906  3.556429    3.80237845  4.06003977  4.33409773  4.62689469
  4.94545778  5.29212938  5.66925187  6.07916761  6.52656137  7.00674838
  7.52675579  8.0842412   8.67686225  9.29993418  9.94877224 10.61634931
 11.29798064 11.97961196 12.65655853 13.32179323 13.96594654 14.58433372
 15.17929715 15.74615206 16.28958322 16.80724825 17.30383189 17.78167653
 18.24078217 18.67880642 19.09809167 19.49395316 19.86170614 20.19666586
 20.49648995 20.75649365 20.97199221 21.14298564 21.26713155 21.3397452
 21.3678537  21.35145707 21.29524006 21.21091453 21.10785    21.00947022
 20.93217183 20.90172094 20.94154133 21.0797415  21.33037569 21.70749818
 22.21345133 22.83886563 23.56265972 24.35672508 25.17655657 25.97999143
 26.72252452 27.3596507  27.85857673 28.19587882 28.35984512 28.352818
 28.18650932 27.88668523 27.48145424 26.99892485 26.46720557 25.91206253
 25.34520762 24.78303745 24.22320966 23.66806663 23.11760834 22.56949243
 22.02840365 21.49668437 20.99073122 20.51991371 20.09828608 19.7399026
 19.45179039 19.23160708 19.07232553 18.96223388 18.87556598 18.79124045
 18.68349117 18.5359215  18.33681957 18.08150062 17.78167653 17.45374394
 17.12581134 16.830672   16.60580394 16.47697328 16.4746309  16.61517344
 16.90562803 17.3413099  17.90816482 18.58745377 19.35106824 20.17324211
 21.02820923 21.89254586 22.74751298 23.58608348 24.39654546 25.17889894
 25.93548629 26.67099225 27.38307446 28.07876004 28.75336424 29.40454468
 30.02293186 30.5968139  31.10510942 31.5314218  31.85466964 32.05845633
 32.13106997 32.07016821 31.88277815 31.58529644 31.20817395 30.78186158
 30.34383733 29.93626396 29.58959236 29.33193103 29.17264948 29.1234596
 29.17030711 29.29913777 29.48652783 29.69734164 29.9034707  30.07446412
 30.1822134  30.20797954 30.13068114 29.94563346 29.64815175 29.23589363
 28.7182286  28.1021838 ]","[-4.74154472 -4.43078104 -4.05536182 -3.61528707 -3.11889944 -2.56828458
 -1.97595648 -1.34817213 -0.69953114 -0.04254751  0.60609347  1.22970651
  1.81369196  2.33927886  2.79603891  3.16937247  3.45302254  3.64698914
  3.75544358  3.78672851  3.7596149   3.68870238  3.5990189   3.50933542
  3.43842291  3.40296665  3.40713797  3.4551082   3.54270602  3.65950311
  3.7929855   3.92855355  4.05369329  4.15797641  4.23723158  4.28520181
  4.30397277  4.29563012  4.26643085  4.21846061  4.15797641  4.08706389
  4.00780872  3.92229656  3.83887007  3.75752924  3.69078805  3.64073215
  3.61778987  3.62821818  3.67410275  3.75544358  3.87432633  4.02866534
  4.2080323   4.41034155  4.62933609  4.85458762  5.08192482  5.30300502
  5.51157125  5.70136653  5.86196252  5.99127359  6.07887141  6.11849899
  6.10598502  6.03715816  5.90576143  5.70970918  5.44691572  5.11320975
  4.71067692  4.23931724  3.70747335  3.11931657  2.48736089  1.82203461
  1.14002303  0.45801145 -0.20731483 -0.83927052 -1.42742729 -1.95927119
 -2.42854521 -2.83107804 -3.16686967 -3.43383445 -3.63822936 -3.78214006
 -3.87182354 -3.90936546 -3.90102281 -3.85305258 -3.77171174 -3.65908598
 -3.52560359 -3.3754359  -3.22109689 -3.0709292  -2.93536115 -2.82482105
 -2.74973721 -2.71428095 -2.72470926 -2.78102214 -2.88113393 -3.01461632
 -3.17312666 -3.33789398 -3.49640432 -3.62780104 -3.71748452 -3.75085512
 -3.72374151 -3.62988671 -3.47763336 -3.27323845 -3.03547294 -2.7831078
 -2.53699965 -2.32009077 -2.15115212 -2.04895467 -2.02184106 -2.0802396
 -2.2241503  -2.45148749 -2.76016552 -3.1376704  -3.57774515 -4.06787579
 -4.59763402 -5.1524202  -5.71972035 -6.28910617 -6.84806367 -7.38407889
 -7.88672351 -8.34974054]",28.42320638437917,3.663987285802456,4.26917,0.031395000000001616
041,1,2,csm,30a.png,1,0,324,NaN,325,1,1,537,neu_feedback_onset,6,"[-0.92485642 -0.84654708 -0.71296054 -0.52870325 -0.30068486 -0.04042144
  0.23366127  0.50083434  0.74036881  0.92692932  1.03978691  1.06281907
  0.98681294  0.8094653   0.53538258  0.17838409 -0.23619481 -0.68992838
 -1.14826838 -1.58587944 -1.97512296 -2.29987643 -2.54401734 -2.70293925
 -2.7812486  -2.78585503 -2.73288106 -2.6384492  -2.52098518 -2.39430829
 -2.27454106 -2.16398668 -2.06955482 -1.99124548 -1.91754256 -1.84844608
 -1.77243995 -1.67800809 -1.5651505  -1.42004788 -1.24730668 -1.04001723
 -0.80048275 -0.53100647 -0.23389159  0.08395223  0.42252499  0.77491706
  1.1388252   1.50964299  1.882764    2.26049144  2.63821888  3.01594632
  3.39597697  3.77600763  4.15373507  4.53146251  4.90688673  5.27770452
  5.63930945  5.99170151  6.33257749  6.65272453  6.95214262  7.22852856
  7.47497268  7.69608142  7.88494514  8.04386705  8.17515037  8.2787951
  8.35480123  8.40316876  8.42850414  8.42850414  8.40316876  8.35480123
  8.28570474  8.19587932  8.08993138  7.97246735  7.84348725  7.7075975
  7.56940454  7.43351479  7.30223147  7.1778578   7.06500021  6.9636587
  6.87843971  6.80473679  6.74485318  6.69648564  6.65502775  6.61817629
  6.58593127  6.55138302  6.51683478  6.47768011  6.43622222  6.39246111
  6.34639679  6.3049389   6.26808744  6.23584242  6.21050704  6.19438453
  6.18517166  6.18517166  6.19438453  6.21281026  6.24275207  6.28420996
  6.33718393  6.40397719  6.48689297  6.58593127  6.7056985   6.84619468
  7.01202624  7.20549639  7.42890836  7.68686856  7.979377    8.30413047
  8.66343218  9.04806927  9.45573852  9.87031742 10.2825931  10.67183662
 11.01962225 11.30522105 11.50790406 11.60924557 11.60003271 11.47335582
 11.23151813 10.88603572 10.45994074  9.98087179  9.4810739   8.99739852
  8.56209068  8.20509218  7.94482876  7.79511972  7.75826826  7.82736474
  7.99089308  8.23273077  8.53214887  8.87532806  9.24153942  9.62157008
 10.00620717 10.38393461 10.75014597 11.09562838 11.41116899 11.68755492
 11.91096688 12.07219201 12.16201743 12.17583673 12.11134668 11.97776015
 11.78889643 11.56548446 11.32825321 11.10253803 10.90906788 10.76626848
 10.68104948 10.65571411 10.6833527  10.75014597 10.83306175 10.91367431
 10.9689515  10.98046758 10.93210004 10.81693923 10.63728838 10.3977539
 10.11215511  9.79431129  9.46495138  9.1378947   8.83156696  8.55518103
  8.31564655  8.11987318  7.96095127  7.83657761  7.73753931  7.66153318
  7.59934635  7.54867559  7.50952092  7.48648876  7.48879197  7.52564343
  7.606256    7.74675218  7.95404163  8.23503399  8.59663892  9.03424997
  9.55017038 10.13749048 10.79160386 11.50790406 12.27717824 13.09712317
 13.95622277 14.84526418 15.75733776 16.67632098 17.58609134 18.47513275
 19.32501949 20.11962904 20.85205176 21.51077157 22.09348524 22.602496
 23.04471349 23.42474414 23.75871048 24.05121892 24.31839199 24.56944254
 24.81358345 25.05772435 25.30647169 25.56903833 25.84772747 26.14253913
 26.45807974 26.79434929 27.15134778 27.52677201 27.91601553 28.31677513
 28.71753473 29.11599111 29.50293142 29.86914278 30.20541233 30.50943685
 30.76970027 30.98620258 31.15203414 31.26489173 31.32707857 31.33629143
 31.29483354 31.20500811]","[-4.24040775 -3.89837828 -3.52387766 -3.11041166 -2.65798027 -2.16874825
 -1.64488033 -1.090706   -0.51704898  0.06526702  0.64108878  1.19526311
  1.70830731  2.15857395  2.52874509  2.80366751  2.96818801  3.02014186
  2.96169378  2.80150276  2.55472201  2.24299895  1.89014576  1.52430412
  1.16279196  0.82942146  0.53501635  0.28823559  0.09124394 -0.05812336
 -0.16852528 -0.2442913  -0.29624514 -0.33304578 -0.3590227  -0.3785054
 -0.39798809 -0.41747078 -0.43911821 -0.46293039 -0.48674257 -0.51271949
 -0.53869641 -0.56467333 -0.59065026 -0.61879192 -0.6426041  -0.66641628
 -0.68806371 -0.70321692 -0.71187589 -0.70971115 -0.69022846 -0.64909833
 -0.57982654 -0.47375411 -0.3287163  -0.13388938  0.10856189  0.402967
  0.74716121  1.13248555  1.55461052  2.00487717  2.47246176  2.94870532
  3.42711363  3.90119245  4.36877704  4.8298674   5.28662827  5.74555389
  6.20664425  6.68288781  7.17644932  7.69382301  8.23933837  8.81516013
  9.41912356 10.04040494 10.66818054 11.28080295 11.8609542  12.38698686
 12.83292402 13.1857772  13.43039321 13.56677205 13.59491372 13.52347718
 13.37194514 13.15330605 12.88920735 12.60129646 12.30472661 12.01898047
 11.75271702 11.5124305  11.30245038 11.12061193 10.95609143 10.79806515
 10.62921516 10.43871774 10.20925493  9.93000302  9.59230304  9.1918255
  8.73073514  8.20903196  7.6332102   7.01192882  6.34951732  5.65463466
  4.93810457  4.20642128  3.46391427  2.71924251  1.97890025  1.24505221
  0.51986314 -0.19233746 -0.8915496  -1.57560854 -2.24884376 -2.90476103
 -3.54985458 -4.17546545 -4.78159362 -5.36390961 -5.91375446 -6.42679866
 -6.89654799 -7.31217874 -7.6736909  -7.97675498 -8.221371   -8.40970368
 -8.55257675 -8.65648443]",29.086049304946936,10.365224694960583,4.341755000000001,-0.8455149999999989
041,1,2,csm,20a.png,1,1,192,149,191,1,1,237,neu_feedback_onset,7,"[-3.53799233e-01 -4.52882352e-01 -5.37465502e-01 -6.09965345e-01
 -6.67965219e-01 -7.06631802e-01 -7.28381755e-01 -7.28381755e-01
 -7.01798479e-01 -6.43798605e-01 -5.49548809e-01 -4.11799108e-01
 -2.25716178e-01  1.11166426e-02  2.98699353e-01  6.32198630e-01
  1.00436449e+00  1.39828030e+00  1.79702944e+00  2.17644528e+00
  2.51477788e+00  2.78544396e+00  2.96911023e+00  3.04644340e+00
  3.00777682e+00  2.84586050e+00  2.56794444e+00  2.18127861e+00
  1.70761297e+00  1.16628081e+00  5.88698724e-01  3.86665829e-03
 -5.59215455e-01 -1.06913102e+00 -1.50171341e+00 -1.83762935e+00
 -2.06237886e+00 -2.16146198e+00 -2.13246205e+00 -1.97296239e+00
 -1.69262967e+00 -1.28904721e+00 -7.79131645e-01 -1.65299642e-01
  5.35532173e-01  1.31611382e+00  2.16436198e+00  3.06336003e+00
  4.00585799e+00  4.98218921e+00  5.98027038e+00  6.99043485e+00
  8.01026598e+00  9.03493042e+00  1.00547615e+01  1.10697593e+01
  1.20726738e+01  1.30586717e+01  1.40156696e+01  1.49364176e+01
  1.58015824e+01  1.65966640e+01  1.72999125e+01  1.78919946e+01
  1.83511602e+01  1.86604929e+01  1.88079092e+01  1.87861593e+01
  1.86000764e+01  1.82593271e+01  1.77808281e+01  1.71935794e+01
  1.65217475e+01  1.57943324e+01  1.50427507e+01  1.42863357e+01
  1.35492540e+01  1.28411722e+01  1.21693403e+01  1.15385917e+01
  1.09489263e+01  1.04003441e+01  9.89042857e+00  9.42401291e+00
  8.99868050e+00  8.61926466e+00  8.29059870e+00  8.01268264e+00
  7.79034979e+00  7.61876683e+00  7.50035042e+00  7.42543391e+00
  7.39160065e+00  7.38918399e+00  7.41335060e+00  7.46168383e+00
  7.53176701e+00  7.62843347e+00  7.75651653e+00  7.92084950e+00
  8.13109905e+00  8.38968182e+00  8.70384781e+00  9.07359701e+00
  9.49409610e+00  9.96534508e+00  1.04752606e+01  1.10214261e+01
  1.15893416e+01  1.21717570e+01  1.27590057e+01  1.33390044e+01
  1.39020865e+01  1.44361687e+01  1.49340010e+01  1.53762500e+01
  1.57580825e+01  1.60674152e+01  1.62969980e+01  1.64419977e+01
  1.65072476e+01  1.64951643e+01  1.64178311e+01  1.62921647e+01
  1.61326650e+01  1.59538321e+01  1.57677492e+01  1.55864996e+01
  1.54124999e+01  1.52385003e+01  1.50596674e+01  1.48639178e+01
  1.46415849e+01  1.43781688e+01  1.40712528e+01  1.37160036e+01
  1.33124212e+01  1.28653388e+01  1.23844232e+01  1.18769243e+01
  1.13573421e+01  1.08353432e+01  1.03181776e+01  9.81551207e+00
  9.33701310e+00  8.88509742e+00  8.46943165e+00  8.09484913e+00
  7.76618317e+00  7.48826711e+00  7.26593426e+00  7.10160128e+00
  6.99526818e+00  6.95176827e+00  6.96868490e+00  7.04601807e+00
  7.17893445e+00  7.36985070e+00  7.61635016e+00  7.92084950e+00
  8.28334872e+00  8.70868113e+00  9.20168006e+00  9.76717884e+00
  1.04100108e+01  1.11301759e+01  1.19228408e+01  1.27783390e+01
  1.36725037e+01  1.45811684e+01  1.54656665e+01  1.62849147e+01
  1.69954132e+01  1.75609120e+01  1.79499944e+01  1.81409107e+01
  1.81288274e+01  1.79258278e+01  1.75512453e+01  1.70389131e+01
  1.64347477e+01  1.57798325e+01  1.51176672e+01  1.44845020e+01
  1.39141699e+01  1.34260042e+01  1.30272551e+01  1.27227558e+01
  1.25028396e+01  1.23602566e+01  1.22780901e+01  1.22418401e+01
  1.22370068e+01  1.22515068e+01  1.22732567e+01  1.22950067e+01
  1.23119233e+01  1.23215900e+01  1.23191733e+01  1.23119233e+01
  1.22950067e+01  1.22780901e+01  1.22660068e+01  1.22635901e+01
  1.22829234e+01  1.23385066e+01  1.24448397e+01  1.26236726e+01
  1.28919221e+01  1.32761712e+01  1.37933368e+01  1.44675853e+01
  1.53085835e+01  1.63211646e+01  1.75004954e+01  1.88344925e+01
  2.02917394e+01  2.18384027e+01  2.34309826e+01  2.50211458e+01
  2.65605591e+01  2.80033060e+01  2.93155531e+01  3.04731340e+01
  3.14639652e+01  3.22856300e+01  3.29574619e+01  3.34963774e+01
  3.39337931e+01  3.42987090e+01  3.46249583e+01  3.49318743e+01
  3.52412070e+01  3.55577896e+01  3.58840389e+01  3.62030382e+01
  3.65027042e+01  3.67564537e+01  3.69377033e+01  3.70198698e+01
  3.69763699e+01  3.67902870e+01  3.64422877e+01  3.59347888e+01
  3.52702069e+01  3.44630420e+01  3.35471273e+01  3.25562961e+01
  3.15364650e+01  3.05311338e+01  2.95910526e+01  2.87573044e+01
  2.80564725e+01  2.75151404e+01  2.71405579e+01  2.69327250e+01
  2.68795584e+01  2.69641416e+01  2.71695578e+01  2.74692238e+01]","[-5.02890538 -4.65684515 -4.17817116 -3.60811396 -2.97060724 -2.2917605
 -1.59550743 -0.9123091  -0.26174764  0.33659484  0.8696636   1.33310705
  1.72910098  2.07070015  2.37531087  2.66686684  2.96930177  3.30654935
  3.69601591  4.1507562   4.67512179  5.26040953  5.89138887  6.54630192
  7.19468759  7.80826061  8.35873569  8.82000335  9.17900884  9.42922479
  9.57717856  9.63810071  9.63157334  9.59023331  9.54236591  9.51190484
  9.52278379  9.5924091   9.72948392  9.93400826 10.20380633 10.53235075
 10.90441098 11.31563545 11.74861783 12.19465495 12.64069208 13.07585024
 13.48707471 13.86348653 14.18767937 14.44442269 14.62283754 14.70769338
 14.68811126 14.55538802 14.30734786 13.94399079 13.46966839 12.89961119
 12.24034656 11.51145663 10.72817192  9.91007456  9.07457088  8.2368914
  7.41444246  6.61810301  5.85875201  5.14291682  4.47494903  3.85920022
  3.29131881  2.76912901  2.28610344  1.83571474  1.41143552  1.00238684
  0.60421712  0.21039897 -0.18124338 -0.56635836 -0.94059438 -1.2930725
 -1.61291375 -1.88923919 -2.10899407 -2.26565101 -2.35050685 -2.3613858
 -2.30046366 -2.16991621 -1.97191924 -1.71300013 -1.39751046 -1.02327443
 -0.59464364 -0.11161807  0.42797806  1.02196896  1.67035463  2.3666077
  3.10855238  3.88530971  4.69035233  5.51062547  6.33525021  7.14899598
  7.93445648  8.67640115  9.3552479   9.94706301 10.43008858 10.78474248
 10.98926682 11.02407948 10.88047728 10.54758128 10.03191885  9.34001736
  8.49145893  7.51235305  6.43533658  5.29957376  4.14205303  2.99758705
  1.89881267  0.8696636  -0.07462963 -0.92971543 -1.69559381 -2.38096792
 -2.99671673 -3.55589498 -4.06720583 -4.54152823 -4.97886219 -5.37920771
 -5.73603741 -6.04064812]",32.26309467996155,10.689442845238155,4.1379399999999995,-0.06869999999999887
041,1,2,csp,22b.png,1,1,148,144,148,1,1,225,pos_feedback_onset,8,"[ 5.31630256  4.27559469  3.28727943  2.37993458  1.56784903  0.85816723
  0.25327067 -0.25160363 -0.66121863 -0.98510025 -1.23277444 -1.41376711
 -1.5376042  -1.61857461 -1.66382278 -1.68763761 -1.69716354 -1.70668947
 -1.72574133 -1.7567006  -1.80194877 -1.8662488  -1.94007475 -2.02104516
 -2.09487112 -2.15440818 -2.18774894 -2.19013042 -2.1520267  -2.07105629
 -1.94483772 -1.77813394 -1.56856348 -1.32565226 -1.04940028 -0.74457052
 -0.41830741 -0.07061096  0.29137439  0.66526715  1.04868584  1.43686749
  1.82743063  2.21799377  2.59903097  2.96816077  3.31347574  3.63021292
  3.90646489  4.13270573  4.29702803  4.39228733  4.41133919  4.35656509
  4.22796504  4.03744643  3.79929818  3.53495361  3.27060905  3.03484228
  2.85861257  2.7728792   2.80383847  2.97530522  3.30156833  3.79453521
  4.44944291  5.25914698  6.20459555  7.25959231  8.38603356  9.54581556
 10.69845311 11.79631656 12.80130219 13.67530629 14.38736957 14.92082166
 15.26375515 15.41617003 15.38521076 15.19231067 14.85652163 14.40642143
 13.86820637 13.27045426 12.6369799  11.98921665 11.34621636 10.71750497
 10.11975285  9.55772297  9.03617829  8.56226327  8.13597789  7.75732217
  7.43344054  7.15957005  6.93571069  6.76424394  6.63564389  6.552292
  6.50704383  6.4975179   6.52133273  6.57372534  6.65707723  6.76900691
  6.90951438  7.07859964  7.27626269  7.49774057  7.74303327  8.00737783
  8.28362981  8.5717892   8.86233007  9.1576339   9.45055625  9.74824157
 10.05545282 10.37695296 10.73179386 11.13188293 11.59865351 12.15115746
 12.80606516 13.57290254 14.46119553 15.46856264 16.57833351 17.77145626
 19.01697164 20.27439442 21.50562089 22.66302141 23.71325521 24.62536303
 25.37553003 25.95899325 26.3757527  26.64009726 26.77346028 26.80918252
 26.77584176 26.71392322 26.65676764 26.63295281 26.66629357 26.77584176
 26.96874185 27.24023086 27.57840138 27.95467562 28.34285728 28.70484263
 29.00967239 29.22162434 29.31926512 29.28830585 29.12398355 28.83344268
 28.4357351  27.95229414 27.4116976  26.84014179 26.26382302 25.70417462
 25.17310401 24.68013713 24.22765544 23.82042193 23.45129213 23.12502902
 22.83925112 22.5963399  22.40343981 22.26531383 22.18910638 22.17958045
 22.23673604 22.36533609 22.56299914 22.82734371 23.15122533 23.53226254
 23.96569236 24.44913332 24.98020393 25.55175974 26.1566563  26.78774918
 27.43074946 28.06898679 28.6810278  29.24305768 29.73364308 30.13849512
 30.44332488 30.65051386 30.76244354 30.79816578 30.77911392 30.72672131
 30.66718424 30.61717311 30.5909768  30.59335828 30.62193607 30.66242128
 30.70528796 30.73386575 30.73148427 30.68861759 30.60050273 30.46713971
 30.29567297 30.1003914  29.90034686 29.71697271 29.57408375 29.49549483
 29.50740224 29.62409489 29.85986166 30.21708404 30.69099907 31.26493636
 31.91031813 32.59142214 33.27728911 33.92743385 34.51327855 35.00862692
 35.40157154 35.68496796 35.86357915 35.94454956 35.94693104 35.8850125
 35.7754643  35.63495683 35.4753975  35.30631224 35.14198994 34.98243061
 34.83477869 34.70141567 34.58234155 34.4799378  34.38705998 34.30608957
 34.23226361 34.15843765 34.07746725 33.98697091 33.87504123 33.73691524
 33.56306702 33.35349655]","[-3.72425276 -3.42812284 -3.1096435  -2.76322737 -2.39073691 -1.98844721
 -1.55822072 -1.10936972 -0.64375664 -0.17255621  0.29678178  0.75494504
  1.19448379  1.61353556  2.00465054  2.37155365  2.71238242  3.02899931
  3.32140433  3.58959746  3.83730362  4.06079789  4.26194274  4.44073816
  4.59532171  4.72941827  4.84302786  4.93801293  5.01437348  5.07397195
  5.11867081  5.14288269  5.14847004  5.13170797  5.09259647  5.02554819
  4.93615048  4.82254089  4.69403168  4.55434776  4.41466383  4.28615462
  4.17440748  4.09245958  4.04403582  4.03472356  4.06266035  4.12970863
  4.22655615  4.349478    4.49102438  4.64188301  4.79832901  4.95291255
  5.10377119  5.24718001  5.38500149  5.51909805  5.64574481  5.77052911
  5.89531342  6.01823527  6.14301958  6.26780388  6.39072573  6.50992268
  6.62166982  6.72037979  6.80232769  6.86192617  6.8917254   6.88986295
  6.85261391  6.78184072  6.67381848  6.53599701  6.37023876  6.18026862
  5.97539887  5.75749195  5.53399767  5.31236585  5.09632138  4.89517653
  4.7126562   4.55621021  4.43328836  4.3457531   4.29919179  4.28987953
  4.31409141  4.36624007  4.4314259   4.49847419  4.55062285  4.57297228
  4.5524853   4.47984966  4.34761555  4.15392051  3.90621435  3.60822198
  3.26925566  2.90607746  2.52986209  2.15178428  1.78674362  1.44218995
  1.12557305  0.84434275  0.59849905  0.38990439  0.21483387  0.06770014
 -0.05708416 -0.1651064  -0.26381637 -0.36252634 -0.46496122 -0.57484591
 -0.69776776 -0.83186432 -0.97899806 -1.13171915 -1.29189004 -1.45019849
 -1.60291958 -1.74632841 -1.87297517 -1.98285985 -2.07225756 -2.1411683
 -2.19145451 -2.2231162  -2.23987827 -2.24546563 -2.24546563 -2.23987827
 -2.23429091 -2.22870356]",33.487038185881886,5.704272372475554,4.199064999999999,-0.29482500000000034
041,1,2,csp,1b.png,1,1,276,272,275,1,1,310,pos_feedback_onset,9,"[ 4.22197907  3.79888031  3.35756198  2.90207288  2.44051059  1.97894831
  1.51941041  1.06594571  0.6185542   0.17926027 -0.25193608 -0.68110803
 -1.1042068  -1.53135435 -1.9605263  -2.39577144 -2.84113856 -3.29865206
 -3.76831193 -4.25011817 -4.7440708  -5.24004782 -5.73804923 -6.22390427
 -6.68749095 -7.12273609 -7.51546892 -7.85961624 -8.14708047 -8.37988601
 -8.55398406 -8.67544782 -8.75035047 -8.78476521 -8.788814   -8.76857004
 -8.73213091 -8.68354541 -8.62078913 -8.54386208 -8.44466668 -8.31308094
 -8.13898288 -7.90820174 -7.61061553 -7.23812666 -6.78668636 -6.25427021
 -5.64290262 -4.96270556 -4.22380103 -3.43428659 -2.60833302 -1.7580867
 -0.89569401 -0.03532571  0.81492061  1.64087417  2.42836422  3.17131755
  3.85556339  4.47705297  5.02566428  5.50342174  5.90830093  6.25042386
  6.53586369  6.77474242  6.97920642  7.16140206  7.32942692  7.4954274
  7.65940347  7.82945273  8.00355079  8.18574643  8.37199086  8.56228409
  8.75257731  8.94489493  9.13721255  9.32345698  9.50565262  9.67772628
  9.83967796  9.98543447 10.11499581 10.2243132  10.30933783 10.36602092
 10.39638686 10.39436246 10.36399652 10.30326464 10.21419122 10.09880065
  9.95911732  9.79514125  9.61497     9.4145548   9.19996882  8.97121208
  8.73233335  8.48535704  8.23028314  7.96913606  7.70596458  7.4407687
  7.17759722  6.91442574  6.65732745  6.40832675  6.17147241  5.95283765
  5.76052003  5.59856835  5.47508019  5.39410435  5.35766522  5.36576281
  5.41434831  5.49734855  5.60666593  5.73015409  5.85971543  5.98320359
  6.09656976  6.19374077  6.27269221  6.33544849  6.38605839  6.4326195
  6.481205    6.53788809  6.60874195  6.69781537  6.80713276  6.9366941
  7.08447501  7.24642669  7.41647595  7.59057401  7.76062327  7.92055055
  8.06428267  8.18777083  8.28494183  8.35579569  8.40033241  8.41652757
  8.4043812   8.36794207  8.30721019  8.22218556  8.11286817  7.98128243
  7.82742834  7.65333028  7.45898827  7.25047548  7.02779192  6.79498638
  6.55813205  6.31722893  6.0783502   5.84554466  5.6208367   5.40827512
  5.21190871  5.03578626  4.88395656  4.75844401  4.6632974   4.60256552
  4.57422397  4.58434595  4.62888266  4.70378532  4.80905391  4.93254206
  5.07222539  5.2179819   5.36171402  5.49329976  5.60464154  5.69169056
  5.74432486  5.76254442  5.74230046  5.68561737  5.59451956  5.47912898
  5.34754324  5.21393311  5.09449374  5.00137153  4.95076163  4.95481042
  5.02566428  5.1653476   5.37588479  5.65525144  5.99534996  6.38605839
  6.81118155  7.25452427  7.697867    8.12299015  8.50964979  8.84367513
  9.1129198   9.30928621  9.42467678  9.4651647   9.43074997  9.33357896
  9.18377366  8.99550483  8.77889446  8.54608892  8.30923459  8.07238025
  7.84362351  7.61891555  7.40635397  7.19986558  6.99945038  6.80308396
  6.61279074  6.42249752  6.23625309  6.05000865  5.86376422  5.68156858
  5.49734855  5.3192017   5.14307925  4.97505438  4.81917589  4.67949256
  4.56410199  4.48717495  4.45680901  4.48717495  4.59244354  4.78880995
  5.08437176  5.48520217  5.99332557  6.59861997  7.288939    8.03796552
  8.81735798  9.59270165 10.33363058 11.00168126 11.56851214 12.01590365
 12.32563624 12.49163671]","[-7.14812975 -6.67747431 -6.08010395 -5.35199596 -4.50521844 -3.55787352
 -2.53812007 -1.48417371 -0.43022734  0.57946937  1.51273485  2.34141024
  3.0433707   3.60855949  4.03898797  4.33666748  4.5217115   4.60819946
  4.61624485  4.56596115  4.47746184  4.362815    4.23408873  4.09731706
  3.95048866  3.79561486  3.62666162  3.43558356  3.22036932  2.97498486
  2.69943019  2.39772798  2.07390095  1.74202852  1.41216745  1.1004085
  0.82284248  0.59153745  0.41655018  0.30592603  0.25966503  0.27776716
  0.35218704  0.47487927  0.63377576  0.82083113  1.02598863  1.23516882
  1.44032632  1.63743843  1.8164484   1.9713222   2.09803713  2.19458183
  2.25693362  2.28509249  2.2810698   2.25291092  2.20262722  2.14027543
  2.0759123   2.0175832   1.97333355  1.95120872  1.95322007  1.98540164
  2.04775342  2.13826409  2.25894497  2.40577337  2.57472661  2.76178197
  2.96291678  3.17611967  3.3953566   3.62062758  3.84388721  4.0611128
  4.2662703   4.44729162  4.59412003  4.68865338  4.71681225  4.65647181
  4.48952993  4.20190716  3.77952407  3.21835798  2.52243156  1.70381291
  0.78462686 -0.20897906 -1.24281194 -2.28066753 -3.28835289 -4.23770916
 -5.1066115  -5.88098049 -6.55880478 -7.14008436 -7.63688732 -8.06128175
 -8.42935844 -8.75318547 -9.04281959 -9.30027214 -9.52353177 -9.70656444
 -9.83529071 -9.9016652  -9.88959711 -9.7930524  -9.60800838 -9.3364764
 -8.98851319 -8.58222089 -8.13369028 -7.67108023 -7.21450423 -6.78206441
 -6.39186289 -6.04993373 -5.76029961 -5.5169265  -5.3157917  -5.14281577
 -4.98794197 -4.83910221 -4.68825111 -4.53337731 -4.36643543 -4.19144815
 -4.01042683 -3.82538281 -3.6363161  -3.44926073 -3.26019401 -3.0711273
 -2.88206059 -2.69500522]",7.556737674284223,0.9884267034609184,4.939745,0.12283000000000222
041,1,2,csm,53a.png,1,1,220,16,219,1,0,268,neu_feedback_onset,10,"[-4.46890950e+00 -4.18506081e+00 -3.84785710e+00 -3.46156678e+00
 -3.01978724e+00 -2.52465269e+00 -1.97829731e+00 -1.38072113e+00
 -7.44729325e-01 -8.31271162e-02  5.89146096e-01  1.24647990e+00
  1.86539810e+00  2.41815607e+00  2.87700922e+00  3.21848132e+00
  3.42336459e+00  3.48312221e+00  3.39775418e+00  3.17579731e+00
  2.83645940e+00  2.41175347e+00  1.93369252e+00  1.44069216e+00
  9.69033815e-01  5.52864684e-01  2.11392577e-01 -3.83089021e-02
 -1.96239752e-01 -2.66668374e-01 -2.62399973e-01 -2.04776555e-01
 -1.08737524e-01  2.24091071e-03  1.17487747e-01  2.24197781e-01
  3.18102610e-01  3.94933834e-01  4.58959855e-01  5.16583273e-01
  5.67804089e-01  6.19024905e-01  6.72379922e-01  7.30003340e-01
  7.87626758e-01  8.40981775e-01  8.90068390e-01  9.28484003e-01
  9.51960210e-01  9.64765414e-01  9.66899615e-01  9.69033815e-01
  9.81839019e-01  1.01812043e+00  1.09495166e+00  1.22513790e+00
  1.41935016e+00  1.68612524e+00  2.02759735e+00  2.44376648e+00
  2.92609583e+00  3.46604860e+00  4.05508799e+00  4.67614038e+00
  5.31853479e+00  5.96946599e+00  6.61399459e+00  7.24358379e+00
  7.84542838e+00  8.41099156e+00  8.93387073e+00  9.40979748e+00
  9.83236921e+00  1.02015859e+01  1.05153134e+01  1.07756859e+01
  1.09805692e+01  1.11299632e+01  1.12238680e+01  1.12622837e+01
  1.12430759e+01  1.11705130e+01  1.10403268e+01  1.08589197e+01
  1.06305603e+01  1.03595168e+01  1.00521919e+01  9.72139077e+00
  9.37565026e+00  9.02350715e+00  8.67990085e+00  8.35550234e+00
  8.06525105e+00  7.81981797e+00  7.63200831e+00  7.51249308e+00
  7.46554066e+00  7.49328527e+00  7.58932430e+00  7.74725515e+00
  7.94573581e+00  8.17196108e+00  8.40032056e+00  8.61374062e+00
  8.79087928e+00  8.91466292e+00  8.97655474e+00  8.96801794e+00
  8.88691831e+00  8.73325586e+00  8.51129899e+00  8.22958450e+00
  7.89878340e+00  7.53383508e+00  7.14754476e+00  6.75912024e+00
  6.38350092e+00  6.04416301e+00  5.75391172e+00  5.53195485e+00
  5.38896341e+00  5.33774259e+00  5.38042661e+00  5.52341805e+00
  5.76244853e+00  6.09538383e+00  6.51155296e+00  7.00455332e+00
  7.56157969e+00  8.17196108e+00  8.82716069e+00  9.51437331e+00
  1.02271963e+01  1.09570930e+01  1.16976606e+01  1.24424966e+01
  1.31809301e+01  1.39086925e+01  1.46193813e+01  1.52980571e+01
  1.59425857e+01  1.65380277e+01  1.70801147e+01  1.75581756e+01
  1.79679422e+01  1.83030117e+01  1.85633842e+01  1.87511938e+01
  1.88643065e+01  1.89133931e+01  1.89048563e+01  1.88472328e+01
  1.87575964e+01  1.86466180e+01  1.85377738e+01  1.84481373e+01
  1.83990507e+01  1.84118559e+01  1.85036265e+01  1.86871678e+01
  1.89646139e+01  1.93338306e+01  1.97777443e+01  2.02664763e+01
  2.07616109e+01  2.12183298e+01  2.15832781e+01  2.18095034e+01
  2.18564558e+01  2.16899881e+01  2.13015636e+01  2.06997190e+01
  1.99121990e+01  1.89838217e+01  1.79764790e+01  1.69541969e+01
  1.59852697e+01  1.51230527e+01  1.44123639e+01  1.38745453e+01
  1.35159996e+01  1.33111163e+01  1.32300167e+01  1.32172115e+01
  1.32257483e+01  1.32001379e+01  1.31019646e+01  1.29034840e+01
  1.25897565e+01  1.21671847e+01  1.16528424e+01  1.10723398e+01
  1.04598242e+01  9.84304021e+00  9.25613503e+00  8.71831646e+00
  8.24452391e+00  7.83902578e+00  7.50609048e+00  7.23931539e+00
  7.03656633e+00  6.89144068e+00  6.80393845e+00  6.77192544e+00
  6.80393845e+00  6.89784328e+00  7.06004253e+00  7.28626781e+00
  7.57011650e+00  7.89664920e+00  8.25092651e+00  8.60733802e+00
  8.94240753e+00  9.23265882e+00  9.46315249e+00  9.61894914e+00
  9.69791457e+00  9.70645137e+00  9.65523055e+00  9.56559412e+00
  9.46315249e+00  9.37138186e+00  9.31589265e+00  9.31802685e+00
  9.39058967e+00  9.54425212e+00  9.78114839e+00  1.01012785e+01
  1.04961056e+01  1.09592272e+01  1.14863747e+01  1.20690115e+01
  1.26986007e+01  1.33751423e+01  1.40900995e+01  1.48392040e+01
  1.56096504e+01  1.63950363e+01  1.71761537e+01  1.79359292e+01
  1.86530206e+01  1.93124886e+01  1.98929912e+01  2.03817231e+01
  2.07744161e+01  2.10668015e+01  2.12610138e+01  2.13677238e+01
  2.13997369e+01  2.13677238e+01  2.12908926e+01  2.11756458e+01
  2.10369227e+01  2.08768577e+01  2.06997190e+01  2.05012384e+01
  2.02707447e+01  1.99975670e+01  1.96667659e+01  1.92676704e+01]","[-2.85649613e+00 -2.70087695e+00 -2.49043738e+00 -2.22871421e+00
 -1.92101266e+00 -1.57617470e+00 -1.20481075e+00 -8.13994408e-01
 -4.17872863e-01 -2.88249160e-02  3.47844232e-01  7.01524184e-01
  1.02514134e+00  1.32046410e+00  1.58395566e+00  1.82268963e+00
  2.04197120e+00  2.25241077e+00  2.46108194e+00  2.68213191e+00
  2.92086588e+00  3.18789424e+00  3.48498540e+00  3.81213936e+00
  4.16405091e+00  4.53187806e+00  4.89970521e+00  5.25338516e+00
  5.57169712e+00  5.83518868e+00  6.02617585e+00  6.12874304e+00
  6.13051144e+00  6.02971265e+00  5.82104148e+00  5.51333992e+00
  5.11721838e+00  4.64328724e+00  4.11453572e+00  3.54687939e+00
  2.96507587e+00  2.39034595e+00  1.84744723e+00  1.35760049e+00
  9.42026551e-01  6.16640995e-01  3.92054226e-01  2.68266243e-01
  2.41740247e-01  2.93023840e-01  4.00896225e-01  5.35294607e-01
  6.62619389e-01  7.54576176e-01  7.81102173e-01  7.24513381e-01
  5.75967801e-01  3.30160235e-01 -4.06731944e-03 -4.19641262e-01
 -9.02414396e-01 -1.43647112e+00 -2.00766424e+00 -2.60184656e+00
 -3.20840768e+00 -3.82204240e+00 -4.43037191e+00 -5.03162783e+00
 -5.61873655e+00 -6.18639287e+00 -6.72752320e+00 -7.23505393e+00
 -7.70014306e+00 -8.11394861e+00 -8.46762856e+00 -8.75234092e+00
 -8.96278049e+00 -9.09717887e+00 -9.15376766e+00 -9.13962047e+00
 -9.06004248e+00 -8.92210730e+00 -8.73465692e+00 -8.50653335e+00
 -8.24304179e+00 -7.95125583e+00 -7.62940707e+00 -7.28280072e+00
 -6.90613157e+00 -6.50116803e+00 -6.06614169e+00 -5.60282095e+00
 -5.11120582e+00 -4.60367509e+00 -4.08730236e+00 -3.57623483e+00
 -3.08638810e+00 -2.63544616e+00 -2.23932461e+00 -1.90863386e+00
 -1.65575269e+00 -1.48421792e+00 -1.39579793e+00 -1.38872433e+00
 -1.45415512e+00 -1.58678510e+00 -1.77423548e+00 -2.00943264e+00
 -2.28353461e+00 -2.58593097e+00 -2.90954812e+00 -3.25084927e+00
 -3.60276083e+00 -3.96351438e+00 -4.32780473e+00 -4.69563188e+00
 -5.06345903e+00 -5.43128617e+00 -5.79557652e+00 -6.15279328e+00
 -6.49939963e+00 -6.83185878e+00 -7.14132874e+00 -7.41896750e+00
 -7.65946987e+00 -7.84868864e+00 -7.97955023e+00 -8.04674942e+00
 -8.04321262e+00 -7.96893983e+00 -7.83100465e+00 -7.63648067e+00
 -7.39774671e+00 -7.13248674e+00 -6.85838478e+00 -6.58958802e+00
 -6.34554885e+00 -6.13687768e+00 -5.97241650e+00 -5.86100732e+00]",17.802808394664897,3.1043373540849055,4.685595000000001,0.029980000000000118
041,1,2,csp,13b.png,1,1,340,324,340,1,1,342,pos_feedback_onset,11,"[ 8.53083180e-01  6.52404018e-01  4.87138827e-01  3.57287605e-01
  2.56948024e-01  1.84152642e-01  1.34966573e-01  1.03487489e-01
  8.18456187e-02  6.80735194e-02  5.43014201e-02  3.65944353e-02
  1.10176794e-02 -3.22660612e-02 -9.71916722e-02 -1.99498696e-01
 -3.47056902e-01 -5.57573277e-01 -8.38917592e-01 -1.20879683e+00
 -1.66917844e+00 -2.22202985e+00 -2.86144875e+00 -3.57169558e+00
 -4.33112849e+00 -5.10630093e+00 -5.86376639e+00 -6.56417602e+00
 -7.17211583e+00 -7.66200907e+00 -8.01024644e+00 -8.20895816e+00
 -8.26207911e+00 -8.17944652e+00 -7.98663713e+00 -7.71316259e+00
 -7.38656709e+00 -7.03832972e+00 -6.69402724e+00 -6.36743174e+00
 -6.07034788e+00 -5.80867800e+00 -5.57848719e+00 -5.37584059e+00
 -5.19286841e+00 -5.01776601e+00 -4.84659849e+00 -4.66952864e+00
 -4.47671925e+00 -4.26226799e+00 -4.01437020e+00 -3.72909100e+00
 -3.39265829e+00 -2.99720230e+00 -2.53878813e+00 -2.01544836e+00
 -1.42718298e+00 -7.83829194e-01 -1.01126558e-01  6.01250507e-01
  1.29772524e+00  1.96468834e+00  2.57853048e+00  3.11957724e+00
  3.57602396e+00  3.93803342e+00  4.20757308e+00  4.39448014e+00
  4.51055927e+00  4.56958255e+00  4.58728953e+00  4.58335465e+00
  4.56761511e+00  4.55384301e+00  4.54597323e+00  4.55187556e+00
  4.56958255e+00  4.60106163e+00  4.64041049e+00  4.68172679e+00
  4.71910820e+00  4.74468495e+00  4.75255472e+00  4.73681518e+00
  4.69156400e+00  4.61286629e+00  4.50268949e+00  4.35906617e+00
  4.18396377e+00  3.98721949e+00  3.76883335e+00  3.54060999e+00
  3.30845174e+00  3.07629350e+00  2.85200502e+00  2.63755376e+00
  2.43490716e+00  2.24603265e+00  2.06699536e+00  1.89386040e+00
  1.72269288e+00  1.55152536e+00  1.37642295e+00  1.19738566e+00
  1.01244604e+00  8.21604095e-01  6.28794705e-01  4.37952758e-01
  2.53013139e-01  7.98781759e-02 -7.35823591e-02 -1.97531253e-01
 -2.84098734e-01 -3.25415032e-01 -3.11642933e-01 -2.38847551e-01
 -1.08996329e-01  7.59432904e-02  2.98264322e-01  5.38292338e-01
  7.70450584e-01  9.61292531e-01  1.08327398e+00  1.10294841e+00
  1.00064139e+00  7.62580813e-01  3.82864361e-01 -1.30638199e-01
 -7.58252439e-01 -1.47833649e+00 -2.25744382e+00 -3.06409535e+00
 -3.86877944e+00 -4.64198444e+00 -5.36206849e+00 -6.01722693e+00
 -6.60155743e+00 -7.11702743e+00 -7.57150671e+00 -7.97876736e+00
 -8.35454892e+00 -8.71459095e+00 -9.07266553e+00 -9.43860988e+00
 -9.81242401e+00 -1.01921405e+01 -1.05698895e+01 -1.09318989e+01
 -1.12565270e+01 -1.15280341e+01 -1.17267458e+01 -1.18369226e+01
 -1.18526621e+01 -1.17700296e+01 -1.15988620e+01 -1.13529317e+01
 -1.10558478e+01 -1.07351547e+01 -1.04242987e+01 -1.01547590e+01
 -9.95407989e+00 -9.84587053e+00 -9.84587053e+00 -9.95801477e+00
 -1.01803358e+01 -1.05010290e+01 -1.08964850e+01 -1.13450619e+01
 -1.18152807e+01 -1.22756623e+01 -1.27006300e+01 -1.30665743e+01
 -1.33538210e+01 -1.35525327e+01 -1.36548397e+01 -1.36646769e+01
 -1.35859792e+01 -1.34266164e+01 -1.31983930e+01 -1.29072115e+01
 -1.25648764e+01 -1.21713879e+01 -1.17287133e+01 -1.12309502e+01
 -1.06702290e+01 -1.00367125e+01 -9.32449820e+00 -8.52374900e+00
 -7.63643232e+00 -6.66451560e+00 -5.62177093e+00 -4.52787276e+00
 -3.41036528e+00 -2.29876012e+00 -1.22650381e+00 -2.25075451e-01
  6.77980774e-01  1.46692532e+00  2.12601864e+00  2.65919563e+00
  3.07039117e+00  3.37731224e+00  3.59569838e+00  3.74915892e+00
  3.86327060e+00  3.95574041e+00  4.04821022e+00  4.15445213e+00
  4.29020568e+00  4.46334064e+00  4.68172679e+00  4.94536411e+00
  5.25425263e+00  5.60249000e+00  5.98220645e+00  6.38749966e+00
  6.80459752e+00  7.22563027e+00  7.63682581e+00  8.03031436e+00
  8.39429127e+00  8.72088677e+00  9.00026364e+00  9.23045444e+00
  9.40162196e+00  9.51770108e+00  9.57475692e+00  9.58065925e+00
  9.54327784e+00  9.47244990e+00  9.38391497e+00  9.28751028e+00
  9.19700791e+00  9.12027765e+00  9.06125436e+00  9.02584039e+00
  9.01010085e+00  9.01403574e+00  9.02977528e+00  9.05928692e+00
  9.09470089e+00  9.13995207e+00  9.19504047e+00  9.26193352e+00
  9.35046845e+00  9.46064524e+00  9.60230112e+00  9.77543608e+00
  9.98398502e+00  1.02220456e+01  1.04856829e+01  1.07630923e+01
  1.10405018e+01  1.13080740e+01  1.15481020e+01  1.17566509e+01
  1.19258510e+01  1.20517674e+01  1.21422697e+01  1.21993256e+01]","[ -7.5225373   -6.94449044  -6.26809533  -5.51743725  -4.71258727
  -3.87361648  -3.01056039  -2.13546167  -1.25434162  -0.37121447
   0.50789847   1.37898298   2.24003195   3.08703118   3.91195222
   4.70475955   5.45742474   6.15991225   6.79817233   7.36417655
   7.84588227   8.23325395   8.52227738   8.70492414   8.78119421
   8.7510876    8.61661142   8.37776567   8.04257877   7.61506494
   7.10325262   6.51717732   5.8648675    5.16438709   4.43580719
   3.69719176   2.97864739   2.30425938   1.70413434   1.20235755
   0.82100719   0.57814722   0.47779186   0.517934     0.68653101
   0.9635118    1.32077687   1.72621252   2.14569792   2.55113356
   2.91040575   3.2054505    3.41820386   3.5426445    3.57475822
   3.52257343   3.39612568   3.2054505    2.96861185   2.7016666
   2.41465028   2.12361974   1.83459631   1.55560841   1.28866316
   1.03978187   0.81097165   0.60223251   0.42159286   0.27306693
   0.16468314   0.10246282   0.09443439   0.14461207   0.25901718
   0.42962129   0.65040308   0.90530569   1.17626515   1.43718909
   1.6639922    1.83459631   1.92692324   1.92692324   1.82456077
   1.61381452   1.29669158   0.87519908   0.35736543  -0.25078804
  -0.93521158  -1.68386256  -2.48469832  -3.3196549   -4.17066834
  -5.02168178  -5.85061703  -6.64141726  -7.3800327   -8.05040649
  -8.64852442  -9.16635807  -9.60992876  -9.97923648 -10.28632387
 -10.53921938 -10.74795852 -10.92257684 -11.06909567 -11.1915292
 -11.29589878 -11.37819017 -11.43840339 -11.47252421 -11.47453132
 -11.4424176  -11.37216885 -11.26579217 -11.12128045 -10.94064081
 -10.72788745 -10.48703459 -10.22410355  -9.94712276  -9.66010644
  -9.37509722  -9.10413775  -8.85726357  -8.64852442  -8.48996296
  -8.39562892  -8.37154364  -8.42974974  -8.56623303  -8.78300061
  -9.06600272  -9.40118961  -9.77250444 -10.15586191 -10.52918384]",10.446053000659388,3.8277540771873264,5.082739999999999,-0.3436300000000001
041,1,2,csm,37a.png,1,1,288,315,289,1,1,455,neu_feedback_onset,12,"[ 1.83640976e+00  1.75373117e+00  1.63798113e+00  1.48679741e+00
  1.30726674e+00  1.09702688e+00  8.65526804e-01  6.15128766e-01
  3.52919499e-01  8.12612502e-02 -1.92759245e-01 -4.62055248e-01
 -7.17177778e-01 -9.55764588e-01 -1.16364220e+00 -1.33844838e+00
 -1.47073414e+00 -1.55577498e+00 -1.59357091e+00 -1.58412193e+00
 -1.53451477e+00 -1.44947393e+00 -1.34081063e+00 -1.21797385e+00
 -1.09041259e+00 -9.65213571e-01 -8.47101288e-01 -7.40800234e-01
 -6.46310409e-01 -5.61269565e-01 -4.83315459e-01 -4.12448090e-01
 -3.41580720e-01 -2.73075597e-01 -2.02208227e-01 -1.28978612e-01
 -5.10245059e-02  2.45673547e-02  1.02521461e-01  1.78113322e-01
  2.51342937e-01  3.15123569e-01  3.67092973e-01  4.00164412e-01
  4.14337886e-01  3.97802167e-01  3.48195008e-01  2.60791919e-01
  1.35592900e-01 -3.21265408e-02 -2.35279666e-01 -4.69141985e-01
 -7.26626760e-01 -9.95922764e-01 -1.26521877e+00 -1.52034130e+00
 -1.74711688e+00 -1.93845878e+00 -2.08019352e+00 -2.17232110e+00
 -2.20775478e+00 -2.18885681e+00 -2.11798945e+00 -2.00696390e+00
 -1.86050467e+00 -1.69042298e+00 -1.50380558e+00 -1.30773919e+00
 -1.10458606e+00 -8.99070693e-01 -6.86468584e-01 -4.64417494e-01
 -2.28192929e-01  3.16540916e-02  3.15123569e-01  6.29302240e-01
  9.74190104e-01  1.34742492e+00  1.74191994e+00  2.15295068e+00
  2.56634367e+00  2.97264992e+00  3.35769596e+00  3.71439505e+00
  4.02857372e+00  4.29078299e+00  4.49629836e+00  4.64511984e+00
  4.73488517e+00  4.77504335e+00  4.77268110e+00  4.73724742e+00
  4.68764026e+00  4.63567085e+00  4.59551268e+00  4.58133920e+00
  4.59787492e+00  4.65693106e+00  4.75614538e+00  4.90024237e+00
  5.07977304e+00  5.29473739e+00  5.53332420e+00  5.79080897e+00
  6.05538049e+00  6.31995200e+00  6.57507453e+00  6.81602358e+00
  7.02862569e+00  7.21288085e+00  7.36406457e+00  7.47981461e+00
  7.55776872e+00  7.60265138e+00  7.61918710e+00  7.60973812e+00
  7.57902893e+00  7.52705952e+00  7.45382991e+00  7.35697784e+00
  7.23177882e+00  7.06878387e+00  6.86326850e+00  6.61050821e+00
  6.30814077e+00  5.96325291e+00  5.58056911e+00  5.17426286e+00
  4.76323212e+00  4.36401260e+00  3.99786453e+00  3.68368586e+00
  3.43801231e+00  3.27029287e+00  3.18997652e+00  3.19470101e+00
  3.28446635e+00  3.44509905e+00  3.66242565e+00  3.91991042e+00
  4.19393092e+00  4.46558917e+00  4.71834945e+00  4.93095156e+00
  5.09630875e+00  5.20733430e+00  5.26875269e+00  5.28528841e+00
  5.27347718e+00  5.24985472e+00  5.23095676e+00  5.23804349e+00
  5.28528841e+00  5.38214048e+00  5.53568644e+00  5.74592631e+00
  6.00104884e+00  6.28924281e+00  6.59397249e+00  6.89161545e+00
  7.16091145e+00  7.37351356e+00  7.51288605e+00  7.55540647e+00
  7.49398808e+00  7.31918191e+00  7.04279917e+00  6.67665109e+00
  6.24908463e+00  5.79317122e+00  5.34906904e+00  4.96166075e+00
  4.66638005e+00  4.50338510e+00  4.49393612e+00  4.65693106e+00
  4.99000770e+00  5.48844153e+00  6.13333459e+00  6.90342667e+00
  7.77037083e+00  8.70818235e+00  9.69087653e+00  1.06948309e+01
  1.17058721e+01  1.27051020e+01  1.36854339e+01  1.46374189e+01
  1.55563325e+01  1.64374501e+01  1.72760473e+01  1.80650373e+01
  1.87996957e+01  1.94776602e+01  2.00894819e+01  2.06304361e+01
  2.11005230e+01  2.14926558e+01  2.18068344e+01  2.20477835e+01
  2.22202274e+01  2.23288907e+01  2.23832224e+01  2.23997581e+01
  2.23855846e+01  2.23548754e+01  2.23194418e+01  2.22887326e+01
  2.22698346e+01  2.22698346e+01  2.22934571e+01  2.23454265e+01
  2.24351918e+01  2.25674775e+01  2.27540950e+01  2.30068552e+01
  2.33375696e+01  2.37533249e+01  2.42588454e+01  2.48564936e+01
  2.55391826e+01  2.62880144e+01  2.70793667e+01  2.78848925e+01
  2.86715203e+01  2.94109032e+01  3.00746942e+01  3.06392709e+01
  3.10975466e+01  3.14424344e+01  3.16786590e+01  3.18156692e+01
  3.18652764e+01  3.18463784e+01  3.17684243e+01  3.16503121e+01
  3.14991283e+01  3.13266844e+01  3.11377047e+01  3.09392761e+01
  3.07313985e+01  3.05211586e+01  3.03109188e+01  3.00959544e+01
  2.98857146e+01  2.96778369e+01  2.94746838e+01  2.92833419e+01
  2.91038112e+01  2.89384541e+01  2.87919948e+01  2.86667958e+01
  2.85628570e+01  2.84801784e+01  2.84187600e+01  2.83762396e+01
  2.83597039e+01  2.83620661e+01  2.83927753e+01  2.84518314e+01]","[  0.23421899  -0.34952997  -0.79350805  -1.08538254  -1.22309796
  -1.2169316   -1.08332708  -0.85106077  -0.55096447  -0.22003636
   0.10266993   0.39043351   0.62064436   0.77891433   0.8652434
   0.8919643    0.87963158   0.85702159   0.85291068   0.90018612
   1.02556882   1.24550241   1.57231961   2.00807588   2.54249394
   3.15913017   3.83331912   4.54039533   5.24952699   5.92782684
   6.54857398   7.08710295   7.51874831   7.83117733   8.01822366
   8.07577637   8.01822366   7.85789824   7.62357647   7.34197926
   7.04804932   6.77467393   6.55268489   6.40674764   6.35741675
   6.41291401   6.57735033   6.84661482   7.2104302    7.65646374
   8.16621635   8.72941077   9.32549246   9.94418414  10.57109764
  11.19595569  11.80848101  12.40045179  12.96364621  13.49189791
  13.97904053  14.42507407  14.82383217  15.17737027  15.48774384
  15.75289742  15.97694192  16.16398824  16.31403639  16.43325273
  16.52163725  16.58124542  16.61618814  16.62646541  16.61413269
  16.58330087  16.53602543  16.47436181  16.40036546  16.32020275
  16.23181822  16.14137824  16.04888281  15.95638737  15.86389194
  15.77550741  15.6912338   15.61312654  15.54118565  15.47746657
  15.4178584   15.36236114  15.30275297  15.23286753  15.1403721
  15.01087849  14.83205398  14.58334404  14.25241593  13.82693693
  13.29457432  12.65327264  11.90919826  11.06851753  10.1476741
   9.1672225    8.14771726   7.11793476   6.09842953   5.11181156
   4.17246904   3.2968456    2.48494123   1.73675594   1.04612336
   0.40276623  -0.21181454  -0.81200714  -1.41219974  -2.02472506
  -2.65780492  -3.31349478  -3.98973917  -4.68037175  -5.37305978
  -6.05341509  -6.70499403  -7.3154639   -7.87043651  -8.36169004
  -8.78511358  -9.14070714  -9.42641526  -9.65457066  -9.82928426
  -9.96288878 -10.06566148 -10.14787964 -10.21982054 -10.29381689]",28.652681385031855,15.165191707064889,4.2332600000000005,0.05259500000000106
041,1,2,csm,48a.png,1,1,152,317,151,1,1,306,neu_feedback_onset,13,"[ 1.90866947  1.79648416  1.65391533  1.48096297  1.27061551  1.02754734
  0.75409564  0.457272    0.15109959 -0.15273563 -0.44021049 -0.69730183
 -0.91232367 -1.07826445 -1.19278695 -1.25589119 -1.26991435 -1.24186803
 -1.17642659 -1.08293883 -0.96841633 -0.83987066 -0.70197621 -0.55473299
 -0.40515258 -0.25323497 -0.09898017  0.05761183  0.21654102  0.37780741
  0.54374818  0.71903773  0.90835044  1.1186979   1.35709169  1.63521777
  1.96242493  2.35039913  2.80848916  3.34604377  3.96540018  4.66188399
  5.43082081  6.25818748  7.12528645  8.01575736  8.90155388  9.76631566
 10.59368233 11.36729354 12.08013771 12.72754044 13.31183894 13.83537039
 14.30982077 14.73986447 15.13485025 15.50646409 15.86171758 16.20762229
 16.55118981 16.89475732 17.24767362 17.60760149 17.97454095 18.35082918
 18.7317918  19.11041722 19.47969387 19.83494736 20.16682891 20.46598974
 20.73242985 20.96381206 21.15546196 21.31672835 21.44994841 21.56213372
 21.66029587 21.74443485 21.82389944 21.89868965 21.96646828 22.02489813
 22.0739792  22.10669992 22.12072308 22.11604869 22.08800237 22.04125849
 21.97815425 21.90102685 21.81688786 21.73274888 21.65562148 21.59018005
 21.55278494 21.54343617 21.57849408 21.65562148 21.78182995 21.95478231
 22.16980415 22.41287233 22.66996367 22.92238062 23.14675124 23.32437799
 23.42955171 23.44591207 23.35476151 23.14441405 22.80552092 22.33574493
 21.73274888 21.00821874 20.17150329 19.24130009 18.23864387 17.19158096
 16.13049489 15.07875759 14.0667526  13.11317745 12.2367297  11.45143252
 10.7596231  10.16130144  9.65880474  9.24278421  8.90622827  8.64679974
  8.45748703  8.33361574  8.26349992  8.24012798  8.24713957  8.26817431
  8.28453467  8.27752309  8.22610482  8.12093109  7.94797874  7.70958495
  7.40808692  7.05283344  6.65551046  6.23247835  5.79776027  5.36304219
  4.94234727  4.55203587  4.20145677  3.91164472  3.69662287  3.57976317
  3.58210037  3.7246692   4.02616722  4.49828041  5.15035753  5.9800614
  6.97336884  8.10924512  9.3619811  10.69651887 12.07780051 13.46843094
 14.83568942 16.15152964 17.39024245 18.53313031 19.56850725 20.48936168
 21.29335641 21.98516583 22.56712713 23.04391471 23.42020294 23.69832902
 23.88063015 23.96710633 23.96476914 23.87128138 23.69832902 23.45759804
 23.15843721 22.82889286 22.48766254 22.16512977 21.88232929 21.66730745
 21.5317502  21.4896807  21.53876178 21.66964464 21.86363174 22.09501395
 22.32873335 22.53440642 22.67931244 22.7354051  22.68866122 22.52739484
 22.24926875 21.86596894 21.38450697 20.82825481 20.21357279 19.55448408
 18.86968624 18.17086524 17.46269546 16.75218849 16.0486931  15.35922087
 14.69545778 14.06908979 13.50348885 13.02202688 12.64340146 12.3956589
 12.29048517 12.33956624 12.53822773 12.87945805 13.33521088 13.87743988
 14.47108716 15.07408321 15.65604451 16.18658754 16.64000318 17.00927983
 17.28740591 17.47905582 17.59591552 17.64967098 17.65901976 17.63798501
 17.6029271  17.565532   17.53748567 17.52813689 17.54216006 17.58189236
 17.65434537 17.76419349 17.9137739  18.11243539 18.36718954 18.68504792
 19.07068493 19.52877495 20.05698079 20.65062806 21.2980308  21.98282864
 22.69099841 23.40384258]","[-6.40048066e+00 -5.77914116e+00 -5.10309253e+00 -4.39187374e+00
 -3.66697766e+00 -2.94208159e+00 -2.22890889e+00 -1.53136739e+00
 -8.51410958e-01 -1.85131815e-01  4.71377840e-01  1.12397970e+00
  1.77462766e+00  2.42527562e+00  3.07201579e+00  3.70703257e+00
  4.31860257e+00  4.89304852e+00  5.41669313e+00  5.87781300e+00
  6.26077697e+00  6.55776943e+00  6.76683649e+00  6.88407036e+00
  6.91728662e+00  6.87234697e+00  6.75902090e+00  6.59293959e+00
  6.38778032e+00  6.15722039e+00  5.91298316e+00  5.66874594e+00
  5.43037041e+00  5.20567217e+00  4.99855900e+00  4.80903092e+00
  4.63708791e+00  4.48077609e+00  4.33423375e+00  4.19550701e+00
  4.06264196e+00  3.93173081e+00  3.80081966e+00  3.66795461e+00
  3.53508956e+00  3.40417841e+00  3.27131336e+00  3.14040221e+00
  3.00949106e+00  2.88248770e+00  2.75743824e+00  2.63238879e+00
  2.50929323e+00  2.38815156e+00  2.26700990e+00  2.14586824e+00
  2.02472658e+00  1.90553881e+00  1.78635105e+00  1.66716328e+00
  1.54602162e+00  1.42878775e+00  1.30959999e+00  1.19236612e+00
  1.07708615e+00  9.63760081e-01  8.56295703e-01  7.52739120e-01
  6.56998129e-01  5.69072729e-01  4.90916818e-01  4.22530395e-01
  3.63913462e-01  3.11158222e-01  2.58402982e-01  1.97832150e-01
  1.17722341e-01  8.30406557e-03 -1.44099961e-01 -3.53167024e-01
 -6.30620509e-01 -9.88183803e-01 -1.43171860e+00 -1.96513269e+00
 -2.58842609e+00 -3.29964488e+00 -4.08315789e+00 -4.92919563e+00
 -5.81626522e+00 -6.71896600e+00 -7.61385118e+00 -8.47356621e+00
 -9.27271040e+00 -9.99174478e+00 -1.06111304e+01 -1.11230516e+01
 -1.15255545e+01 -1.18205931e+01 -1.20179368e+01 -1.21312629e+01
 -1.21801103e+01 -1.21801103e+01 -1.21527557e+01 -1.21117239e+01
 -1.20667842e+01 -1.20277063e+01 -1.19964439e+01 -1.19729971e+01
 -1.19534582e+01 -1.19378270e+01 -1.19182880e+01 -1.18928873e+01
 -1.18557633e+01 -1.18069158e+01 -1.17424372e+01 -1.16564657e+01
 -1.15490013e+01 -1.14122285e+01 -1.12422394e+01 -1.10331723e+01
 -1.07791656e+01 -1.04763114e+01 -1.01226559e+01 -9.72406079e+00
 -9.28247989e+00 -8.81354442e+00 -8.32897777e+00 -7.85027281e+00
 -7.39696853e+00 -6.99055779e+00 -6.65057957e+00 -6.39266507e+00
 -6.22853765e+00 -6.16405903e+00 -6.19922919e+00 -6.32623254e+00
 -6.53334571e+00 -6.80493750e+00 -7.12146894e+00 -7.46340105e+00]",19.610109298876854,3.8241687386124497,4.278635,-0.5651600000000006
041,1,2,csp,27b.png,1,1,32,28,33,1,1,259,pos_feedback_onset,14,"[ 1.19992978  1.00395622  0.79369292  0.57118127  0.34254545  0.11595102
 -0.10451923 -0.30457557 -0.47605244 -0.60874287 -0.69039852 -0.71489522
 -0.68223296 -0.59037035 -0.44747296 -0.26987192 -0.06777419  0.13432354
  0.32213154  0.47319449  0.57526405  0.60996771  0.57322266  0.45890475
  0.26905537  0.00979868 -0.31478253 -0.69039852 -1.10888373 -1.5579898
 -2.02955118 -2.50927812 -2.99104646 -3.46464923 -3.92192087 -4.35469581
 -4.7548085  -5.11205197 -5.41826065 -5.6632276  -5.83674586 -5.93677403
 -5.95310516 -5.88573925 -5.7346763  -5.4999163  -5.19166622 -4.81809163
 -4.38939946 -3.91987948 -3.42178001 -2.9114322  -2.40312578 -1.9091091
 -1.44571328 -1.02518669 -0.65569487 -0.35152757 -0.11676758  0.04246094
  0.12411659  0.13024076  0.06083346 -0.07185697 -0.25966497 -0.48830079
 -0.74551608 -1.01293834 -1.2783192  -1.52328615 -1.73967362 -1.91523327
 -2.04179953 -2.11937239 -2.14386909 -2.11528961 -2.03975814 -1.91931605
 -1.76008753 -1.56615537 -1.34160233 -1.09051121 -0.81696478 -0.52300444
 -0.20658879  0.12819937  0.48136006  0.85289326  1.2407576   1.64087029
  2.05323132  2.47579931  2.91061564  3.35359754  3.80474501  4.26814082
  4.73766081  5.21126358  5.68690774  6.15642773  6.61369937  7.0485157
  7.45271117  7.81812021  8.13861863  8.41012367  8.62855253  8.79390522
  8.90414035  8.9633407   8.96946487  8.92659565  8.83677444  8.70204262
  8.52444158  8.30397132  8.04879742  7.76300264  7.44862839  7.11588162
  6.77292789  6.42793276  6.0931446   5.77877035  5.49501696  5.25209141
  5.06224202  4.93159298  4.86218568  4.85810289  4.91526185  5.02549698
  5.18064271  5.3704921   5.57667261  5.7889773   5.99311643  6.17684164
  6.33198738  6.45447085  6.53816789  6.58103711  6.58103711  6.54225067
  6.46263642  6.34219433  6.18092442  5.98495086  5.75223226  5.49093418
  5.2071808   4.90709628  4.60292899  4.30488587  4.02521526  3.77412414
  3.55977806  3.3883012   3.26173494  3.17599651  3.12700312  3.1065892
  3.1065892   3.11679616  3.13312729  3.14945842  3.16578955  3.18416207
  3.20865877  3.24540381  3.30052137  3.38217702  3.49037076  3.62714397
  3.79249666  3.97826327  4.17831961  4.38858291  4.59884621  4.80298533
  5.00100028  5.18880828  5.36845071  5.54196896  5.70936305  5.87471574
  6.04006843  6.20337973  6.36464964  6.52183676  6.67494111  6.82600406
  6.97094284  7.11588162  7.26082039  7.40984196  7.5629463   7.72013343
  7.87936194  8.03450768  8.17944646  8.30601271  8.40399949  8.46319984
  8.47953097  8.44482732  8.36113028  8.22639846  8.04675603  7.83036855
  7.58948439  7.33431048  7.07505379  6.82192128  6.58716128  6.3728152
  6.1870486   6.02577869  5.89308826  5.78285313  5.69507331  5.62158322
  5.56034148  5.50726531  5.46031331  5.4174441   5.37661627  5.33987123
  5.30720897  5.28271227  5.26433975  5.25821558  5.26433975  5.28679506
  5.3235401   5.37865766  5.45010636  5.5338034   5.62362461  5.71344583
  5.79306009  5.85226043  5.88492269  5.87675713  5.82776374  5.73590113
  5.6032107   5.43581662  5.24596723  5.04591089  4.85402011  4.68254325
  4.54985282  4.46411438  4.43553491  4.47227995  4.57230812  4.73561942
  4.95404828  5.21330497]","[ -3.90878118  -3.66562506  -3.3834897   -3.06423127  -2.70413746
  -2.30320827  -1.8614437   -1.38255605  -0.8721138   -0.33568539
   0.21559225   0.76872604   1.31072291   1.82858978   2.30933358
   2.74552969   3.12975349   3.462005     3.74042805   3.9705911
   4.15806262   4.30469876   4.41792413   4.49959489   4.55342335
   4.57755335   4.57012873   4.52929335   4.45504721   4.34182183
   4.19518569   4.01513879   3.80724958   3.57894268   3.33949886
   3.09819888   2.86246737   2.63972893   2.43740818   2.25364897
   2.0921636    1.94738361   1.81745286   1.69680287   1.58172134
   1.46849597   1.35527059   1.23833291   1.12139523   1.0026014
   0.88566372   0.76872604   0.65364451   0.54041914   0.43090607
   0.32510531   0.22116071   0.11907226   0.01883996  -0.08139234
  -0.17976848  -0.27814463  -0.37466462  -0.47304076  -0.56956075
  -0.66608074  -0.76260073  -0.85912072  -0.9519284   -1.04473609
  -1.13568762  -1.21921453  -1.29902914  -1.36770682  -1.42710374
  -1.47165143  -1.5050622   -1.52547989  -1.53847296  -1.55146604
  -1.57373988  -1.62385603  -1.71851987  -1.87629293  -2.1138806
  -2.4461321   -2.88418436  -3.42803739  -4.07583501  -4.81272802
  -5.62572332  -6.49069093  -7.38535699  -8.28744767  -9.17840142
 -10.03780057 -10.85636433 -11.62295579 -12.33200649 -12.97794797
 -13.56263637 -14.08421555 -14.5426855  -14.93804623 -15.27401004
 -15.55243309 -15.77888384 -15.9607869  -16.10556688 -16.22621687
 -16.32830532 -16.42668147 -16.52320146 -16.62714606 -16.73480297
 -16.84802835 -16.95754141 -17.05591756 -17.13758832 -17.19141677
 -17.20997831 -17.18770447 -17.12273909 -17.01136987 -16.85545296
 -16.65870067 -16.42296916 -16.15197072 -15.85127383 -15.51902233
 -15.16078467 -14.77656086 -14.36449475 -13.92829864 -13.46797253
 -12.98722873 -12.49720417 -12.0071796  -11.53757273 -11.10880123]",6.490093128268773,2.562420127387828,4.89862,-0.4906150000000018
041,2,2,csm,41a.png,1,1,256,238,255,1,1,311,neu_feedback_onset,1,"[ 3.45113197  3.20462254  2.91669953  2.59327917  2.24816597  1.88727617
  1.52047014  1.15366412  0.78685809  0.41807999  0.04535773 -0.3372249
 -0.74150035 -1.17338487 -1.64076674 -2.1416739  -2.68005049 -3.2480082
 -3.83568668 -4.4273093  -5.01104362 -5.56914096 -6.08582472 -6.54729037
 -6.9456496  -7.27695827 -7.5392443  -7.73645184 -7.88041335 -7.97901712
 -8.04212353 -8.08353711 -8.11114617 -8.12889485 -8.14269938 -8.14664353
 -8.13875523 -8.10917409 -8.05001183 -7.94746391 -7.79364203 -7.58262996
 -7.31048355 -6.98114696 -6.59659225 -6.16865189 -5.70915832 -5.22797192
 -4.73692514 -4.23996214 -3.74497121 -3.25195235 -2.75696143 -2.25605427
 -1.73937051 -1.20099393 -0.63303621 -0.02958113  0.6093713   1.28184902
  1.98193579  2.69385501  3.40380216  4.09205648  4.73495306  5.32065946
  5.82945492  6.25542321  6.59462018  6.84901791  7.03044884  7.14877337
  7.21976808  7.25920959  7.27893035  7.29273487  7.31048355  7.34006468
  7.38345034  7.44261261  7.51755147  7.60629486  7.70687071  7.81533486
  7.92971523  8.04409561  8.1565039   8.2610239   8.35568352  8.43062239
  8.48189635  8.49767295  8.47400805  8.40104126  8.27285635  8.08156504
  7.82716731  7.50769109  7.12708054  6.6892798   6.2002051   5.67366096
  5.11753569  4.54366175  3.9697878   3.40380216  2.8634535   2.35860219
  1.90305277  1.50666561  1.17732902  0.91898714  0.73952828  0.63698036
  0.6093713   0.65275696  0.75924903  0.92095922  1.12408298  1.35678788
  1.60329731  1.85177881  2.08842786  2.30338408  2.48678709  2.63272068
  2.73921275  2.80823539  2.84373274  2.85162105  2.84176067  2.82401199
  2.81217954  2.81217954  2.83387237  2.88317425  2.96402934  3.07052142
  3.20462254  3.35844443  3.52409876  3.69172517  3.85540743  4.00331309
  4.12755384  4.21826931  4.26559912  4.26165497  4.1946044   4.05458705
  3.83568668  3.53395914  3.14348821  2.66821803  2.11800899  1.50469354
  0.84602035  0.15973811 -0.52851621 -1.19704978 -1.82416976 -2.39409955
 -2.89106255 -3.30322632 -3.62861876 -3.86526781 -4.01317346 -4.07825195
 -4.06839158 -3.99148063 -3.86329573 -3.69172517 -3.49648971 -3.29139386
 -3.09418632 -2.92064369 -2.78259841 -2.69188294 -2.65244143 -2.66427388
 -2.71949199 -2.80823539 -2.91472746 -3.02121953 -3.10996292 -3.16123689
 -3.16123689 -3.09813047 -2.96402934 -2.75696143 -2.47495464 -2.12195314
 -1.70387316 -1.22663091 -0.6981147  -0.1281849   0.47527017  1.10830638
  1.76106334  2.43156898  3.11390708  3.80216139  4.49238779  5.18064211
  5.85903605  6.51968131  7.14877337  7.73447977  8.26299598  8.7185454
  9.08535142  9.34960953  9.50343141  9.53695669  9.45412953  9.25494991
  8.95322237  8.56669559  8.11509032  7.62009939  7.10933186  6.60645263
  6.13118246  5.70127002  5.32460361  5.00907155  4.75072967  4.54563383
  4.38195157  4.24982251  4.13347006  4.02697799  3.92048592  3.8100497
  3.6976414   3.58720517  3.49057348  3.41760669  3.38210933  3.39985801
  3.4807131   3.63650706  3.86921196  4.18079987  4.56141043  5.00118325
  5.4863138   5.99510925  6.51179301  7.01467224  7.49388657  7.93563146
  8.33004654  8.67713181  8.97688728  9.22734085  9.43835292  9.61189556
  9.75782914  9.88009781]","[ -7.03011381  -6.47178543  -5.85598207  -5.1847564   -4.46837183
  -3.71298637  -2.92270539  -2.10163424  -1.25593096  -0.38764822
   0.49705595   1.38586547   2.26851695   3.12243095   3.92913335
   4.66193935   5.29005878   5.79091218   6.13576206   6.31023968
   6.30613433   6.12344599   5.76833272   5.26132129   4.6290965
   3.8962905    3.10190417   2.27467498   1.44539312   0.64279608
  -0.10848403  -0.79613111  -1.40782912  -1.93947269  -2.3931145
  -2.77491258  -3.09307765  -3.3578731   -3.58161499  -3.77251403
  -3.93672826  -4.08452106  -4.21589245  -4.33494776  -4.43963434
  -4.52789948  -4.59769053  -4.64900748  -4.68185032  -4.69621907
  -4.69416639  -4.67979765  -4.65516551  -4.62642802  -4.59358518
  -4.55868965  -4.52174145  -4.48068789  -4.43758166  -4.38421203
  -4.32057902  -4.24052458  -4.14199604  -4.02499341  -3.88951667
  -3.74172386  -3.5898257   -3.44203289  -3.31681954  -3.22650171
  -3.18544816  -3.20597493  -3.29629276  -3.46050699  -3.69861762
  -4.00036127  -4.35547454  -4.74753602  -5.15807159  -5.56860717
  -5.96272132  -6.32809798  -6.65447376  -6.93774331  -7.17585394
  -7.37291102  -7.53301989  -7.6623386   -7.76086713  -7.83271086
  -7.88402781  -7.9127653   -7.92508136  -7.92302869  -7.9127653
  -7.89839655  -7.89018584  -7.89429119  -7.92097601  -7.97229295
  -8.05234739  -8.16524467  -8.30482677  -8.46698832  -8.64762397
  -8.83647034  -9.02736938  -9.21416307  -9.39069336  -9.55490759
  -9.70680576  -9.84638785  -9.97365388 -10.0927092  -10.2035538
 -10.30618769 -10.40061088 -10.48477067 -10.55045636 -10.5935626
 -10.60793134 -10.58329921 -10.51556084 -10.3985582  -10.23229129
 -10.01881279  -9.76428074  -9.48306387  -9.19363629  -8.91241942
  -8.6640454   -8.46698832  -8.33766962  -8.28840535  -8.31919551
  -8.4320928   -8.61888648  -8.86726051  -9.16284612  -9.49127458]",6.7841272345492545,0.5127405110162383,5.0708,-0.4077199999999994
041,2,2,csm,38a.png,1,1,208,239,206,1,1,330,neu_feedback_onset,2,"[-1.31281668e+00 -1.25256810e+00 -1.17544991e+00 -1.07664223e+00
 -9.56145054e-01 -8.16368336e-01 -6.57312070e-01 -4.83796143e-01
 -2.98230499e-01 -1.05435025e-01  9.21803361e-02  2.87385754e-01
  4.80181228e-01  6.60926985e-01  8.29623025e-01  9.76629574e-01
  1.09953669e+00  1.19111454e+00  1.24895318e+00  1.26823273e+00
  1.24895318e+00  1.19111454e+00  1.09712674e+00  9.66989800e-01
  8.07933534e-01  6.24777833e-01  4.22342586e-01  2.05447677e-01
 -1.62671181e-02 -2.37981913e-01 -4.50056935e-01 -6.45262352e-01
 -8.16368336e-01 -9.53735111e-01 -1.05254279e+00 -1.10797149e+00
 -1.11761126e+00 -1.08387206e+00 -1.01157375e+00 -9.00716356e-01
 -7.60939637e-01 -5.94653541e-01 -4.09087897e-01 -2.04242705e-01
  1.98820333e-02  2.63286319e-01  5.30790040e-01  8.22393194e-01
  1.14050573e+00  1.48271769e+00  1.84661915e+00  2.22257033e+00
  2.59852150e+00  2.96724284e+00  3.31427470e+00  3.63479717e+00
  3.92399038e+00  4.18185433e+00  4.41561884e+00  4.63733364e+00
  4.86386832e+00  5.10727261e+00  5.38200616e+00  5.70252863e+00
  6.07847981e+00  6.50744974e+00  6.99425831e+00  7.52926575e+00
  8.11006212e+00  8.72459769e+00  9.36564264e+00  1.00235572e+01
  1.06911115e+01  1.13610758e+01  1.20286301e+01  1.26889546e+01
  1.33299996e+01  1.39517650e+01  1.45446111e+01  1.51037179e+01
  1.56170359e+01  1.60797450e+01  1.64846155e+01  1.68244175e+01
  1.70895113e+01  1.72823068e+01  1.73931642e+01  1.74293133e+01
  1.73931642e+01  1.72919466e+01  1.71401201e+01  1.69521445e+01
  1.67448894e+01  1.65376343e+01  1.63424289e+01  1.61785527e+01
  1.60532357e+01  1.59761175e+01  1.59496081e+01  1.59785274e+01
  1.60580555e+01  1.61930124e+01  1.63785780e+01  1.66195724e+01
  1.69184053e+01  1.72750770e+01  1.76944071e+01  1.81763958e+01
  1.87162231e+01  1.93066593e+01  1.99380645e+01  2.05935691e+01
  2.12514836e+01  2.18901186e+01  2.24805548e+01  2.30035125e+01
  2.34397123e+01  2.37746944e+01  2.40012291e+01  2.41169064e+01
  2.41313660e+01  2.40542478e+01  2.39096512e+01  2.37120359e+01
  2.34855012e+01  2.32493267e+01  2.30276119e+01  2.28324065e+01
  2.26733502e+01  2.25600829e+01  2.24950144e+01  2.24757349e+01
  2.24974244e+01  2.25528531e+01  2.26347911e+01  2.27360088e+01
  2.28492761e+01  2.29697733e+01  2.30950903e+01  2.32179975e+01
  2.33433145e+01  2.34686316e+01  2.35915387e+01  2.37072160e+01
  2.38108435e+01  2.38903717e+01  2.39289308e+01  2.39096512e+01
  2.38132535e+01  2.36228680e+01  2.33240350e+01  2.29047048e+01
  2.23672874e+01  2.17190126e+01  2.09791600e+01  2.01718290e+01
  1.93283488e+01  1.84872785e+01  1.76847674e+01  1.69545545e+01
  1.63231493e+01  1.58098314e+01  1.54290603e+01  1.51832461e+01
  1.50627489e+01  1.50603390e+01  1.51543268e+01  1.53302526e+01
  1.55640171e+01  1.58435706e+01  1.61520433e+01  1.64870255e+01
  1.68461070e+01  1.72268781e+01  1.76341585e+01  1.80679484e+01
  1.85282475e+01  1.90078263e+01  1.94922249e+01  1.99645738e+01
  2.04031835e+01  2.07791347e+01  2.10731478e+01  2.12635333e+01
  2.13454714e+01  2.13189620e+01  2.11984649e+01  2.10032594e+01
  2.07719049e+01  2.05381404e+01  2.03405250e+01  2.02152079e+01
  2.01935185e+01  2.02923261e+01  2.05236807e+01  2.08899921e+01
  2.13864405e+01  2.20009760e+01  2.27263690e+01  2.35457498e+01
  2.44470686e+01  2.54230957e+01  2.64545515e+01  2.75293862e+01
  2.86283205e+01  2.97272547e+01  3.07996795e+01  3.18142657e+01
  3.27420939e+01  3.35590647e+01  3.42458986e+01  3.47977756e+01
  3.52267456e+01  3.55472680e+01  3.57930823e+01  3.59979274e+01
  3.62051826e+01  3.64413570e+01  3.67377801e+01  3.71065014e+01
  3.75475211e+01  3.80463794e+01  3.85813868e+01  3.91212141e+01
  3.96345321e+01  4.00827816e+01  4.04442731e+01  4.06973171e+01
  4.08346839e+01  4.08539635e+01  4.07672055e+01  4.05888697e+01
  4.03406455e+01  4.00418125e+01  3.97212900e+01  3.94031775e+01
  3.91091644e+01  3.88609402e+01  3.86777845e+01  3.85765669e+01
  3.85669271e+01  3.86488652e+01  3.88175613e+01  3.90585556e+01
  3.93477488e+01  3.96586315e+01  3.99671043e+01  4.02418378e+01
  4.04659626e+01  4.06226089e+01  4.07093668e+01  4.07262365e+01
  4.06780376e+01  4.05720001e+01  4.04129438e+01  4.02008688e+01
  3.99309551e+01  3.95911531e+01  3.91718229e+01  3.86609149e+01]","[-4.95748699 -4.70258625 -4.38340618 -4.00437986 -3.56994033 -3.08895371
 -2.56142    -1.99177225 -1.38222699 -0.73943381 -0.06560923  0.63481368
  1.35518535  2.08885618  2.82474355  3.55398133  4.26548688  4.94817757
  5.59097075  6.18500031  6.71918361  7.19130412  7.59471225  7.93384107
  8.20869056  8.43255991  8.6120987   8.75838956  8.88473167  9.00442419
  9.12190019  9.25045882  9.3901001   9.54525707  9.71592974  9.90433464
 10.11047177 10.32990806 10.56264352 10.80867815 11.0635789  11.3229127
 11.57781344 11.82384807 12.04328436 12.22947273 12.36689748 12.44004291
 12.44447597 12.36911401 12.21617356 11.98122157 11.67755721 11.307397
 10.88404011 10.41856919  9.9242834   9.40783232  8.88473167  8.35719795
  7.84074688  7.33759498  6.85882489  6.40886966  5.99881194  5.63086826
  5.31390472  5.05013787  4.83956769  4.68662724  4.58466694  4.52925374
  4.51152151  4.52038763  4.54920249  4.58245042  4.61569834  4.63343057
  4.63564709  4.61348181  4.56471819  4.49157276  4.39182899  4.26991994
  4.12584561  3.95960599  3.77341762  3.5672805   3.33897809  3.08629388
  2.81144438  2.5144296   2.19746606  1.86720336  1.52807455  1.19116226
  0.86533261  0.55945172  0.27795264  0.02748495 -0.19416787 -0.38922235
 -0.55989503 -0.71283547 -0.85247675 -0.98325191 -1.10516096 -1.22263696
 -1.33346337 -1.43099061 -1.51965174 -1.59279717 -1.65264343 -1.696974
 -1.72800539 -1.74573762 -1.75682026 -1.76346984 -1.7679029  -1.77455248
 -1.78785165 -1.81223346 -1.85656403 -1.92084334 -2.011721   -2.13141352
 -2.27992091 -2.45502664 -2.65229765 -2.86286783 -3.0800876  -3.29287431
 -3.48571226 -3.65195187 -3.78051051 -3.86695511 -3.90906915 -3.90685262
 -3.86473858 -3.79159315]",38.459082173045964,9.795226041546622,4.149475000000001,-0.992845
041,2,2,csp,25b.png,1,1,88,86,88,1,1,291,pos_feedback_onset,3,"[-3.53095653e-01 -2.75990629e-01 -2.19295759e-01 -1.78475452e-01
 -1.46726325e-01 -1.19512787e-01 -9.00314543e-02 -5.82823268e-02
 -1.97298149e-02  1.88226970e-02  6.19107986e-02  1.02731105e-01
  1.36748028e-01  1.63961565e-01  1.82103924e-01  1.88907308e-01
  1.86639514e-01  1.70764950e-01  1.43551412e-01  1.04998900e-01
  5.73752089e-02 -3.85525119e-03 -7.86924802e-02 -1.67136478e-01
 -2.71455040e-01 -3.96183755e-01 -5.34519239e-01 -6.90997081e-01
 -8.63349488e-01 -1.04477307e+00 -1.23753563e+00 -1.43483378e+00
 -1.63439973e+00 -1.83169788e+00 -2.02899602e+00 -2.22402638e+00
 -2.41452114e+00 -2.59821252e+00 -2.77283273e+00 -2.93384616e+00
 -3.07671723e+00 -3.19464256e+00 -3.28535435e+00 -3.34431702e+00
 -3.37153056e+00 -3.37153056e+00 -3.35338820e+00 -3.32163907e+00
 -3.29442553e+00 -3.28081876e+00 -3.29442553e+00 -3.34204922e+00
 -3.42822543e+00 -3.55522194e+00 -3.71850316e+00 -3.90673013e+00
 -4.11309946e+00 -4.32173659e+00 -4.52357033e+00 -4.70272612e+00
 -4.85466837e+00 -4.96805811e+00 -5.04289534e+00 -5.07237667e+00
 -5.06103770e+00 -5.00887842e+00 -4.91816662e+00 -4.79117011e+00
 -4.63242448e+00 -4.44192971e+00 -4.22195361e+00 -3.97476398e+00
 -3.70036081e+00 -3.40554748e+00 -3.08578841e+00 -2.74788698e+00
 -2.39411099e+00 -2.02672823e+00 -1.64573870e+00 -1.25794579e+00
 -8.61081693e-01 -4.59682010e-01 -5.37467372e-02  3.52188535e-01
  7.55856013e-01  1.15498790e+00  1.54731641e+00  1.92603814e+00
  2.28434972e+00  2.61998335e+00  2.92613565e+00  3.20280662e+00
  3.44546067e+00  3.65409779e+00  3.83325358e+00  3.98973143e+00
  4.13033470e+00  4.26413460e+00  4.40247008e+00  4.54987675e+00
  4.71996136e+00  4.91045612e+00  5.12362883e+00  5.35267611e+00
  5.58852677e+00  5.81757405e+00  6.02394338e+00  6.19176019e+00
  6.30968552e+00  6.36411260e+00  6.35050583e+00  6.26659742e+00
  6.11919076e+00  5.91282143e+00  5.66336400e+00  5.38669303e+00
  5.09641530e+00  4.80840535e+00  4.53400218e+00  4.28227696e+00
  4.06003306e+00  3.86500271e+00  3.69491810e+00  3.54524364e+00
  3.41144375e+00  3.28444724e+00  3.16198632e+00  3.04179319e+00
  2.91933227e+00  2.79913915e+00  2.68121381e+00  2.57235966e+00
  2.47938008e+00  2.40227505e+00  2.34784798e+00  2.32063444e+00
  2.32290223e+00  2.35691916e+00  2.42268521e+00  2.51793259e+00
  2.64266130e+00  2.79006797e+00  2.95561699e+00  3.13250498e+00
  3.30939298e+00  3.47720980e+00  3.62688425e+00  3.74480958e+00
  3.82418240e+00  3.85593153e+00  3.83552138e+00  3.76068415e+00
  3.63141984e+00  3.45226405e+00  3.22775237e+00  2.96922376e+00
  2.68574940e+00  2.38413269e+00  2.07798039e+00  1.77409589e+00
  1.48155036e+00  1.20487939e+00  9.48618573e-01  7.17303501e-01
  5.10934173e-01  3.31778382e-01  1.75300540e-01  4.37684400e-02
 -6.96213009e-02 -1.64868683e-01 -2.51044886e-01 -3.25882115e-01
 -3.98451550e-01 -4.68753189e-01 -5.41322623e-01 -6.18427647e-01
 -7.02336055e-01 -7.93047848e-01 -8.90563025e-01 -9.94881587e-01
 -1.10373574e+00 -1.21258989e+00 -1.32371184e+00 -1.43256599e+00
 -1.53461675e+00 -1.62986414e+00 -1.71377254e+00 -1.78634198e+00
 -1.84530464e+00 -1.89292834e+00 -1.92467746e+00 -1.94281982e+00
 -1.94735541e+00 -1.94055203e+00 -1.92240967e+00 -1.89519613e+00
 -1.85891141e+00 -1.81582331e+00 -1.76819962e+00 -1.71150475e+00
 -1.64800649e+00 -1.57543706e+00 -1.48699306e+00 -1.37813891e+00
 -1.24887461e+00 -1.08786117e+00 -8.97366410e-01 -6.72854723e-01
 -4.16593908e-01 -1.30851761e-01  1.84371719e-01  5.22273147e-01
  8.80584728e-01  1.25477087e+00  1.64029599e+00  2.03489229e+00
  2.43402418e+00  2.83315607e+00  3.22321678e+00  3.59740292e+00
  3.94664332e+00  4.25733121e+00  4.51359203e+00  4.70408679e+00
  4.81294094e+00  4.82654771e+00  4.73583592e+00  4.54080557e+00
  4.23918886e+00  3.84232476e+00  3.36155226e+00  2.81728150e+00
  2.23445824e+00  1.63802820e+00  1.05293713e+00  5.01862993e-01
  7.48372290e-03 -4.21129498e-01 -7.72637695e-01 -1.04930866e+00
 -1.25114240e+00 -1.38721009e+00 -1.47111850e+00 -1.50967101e+00
 -1.51874219e+00 -1.50286763e+00 -1.47111850e+00 -1.42576260e+00
 -1.36906773e+00 -1.30103389e+00 -1.22392886e+00 -1.13321707e+00
 -1.03116630e+00 -9.20044358e-01 -8.04386822e-01 -6.86461492e-01
 -5.73071751e-01 -4.71020984e-01 -3.84844781e-01 -3.19078731e-01]","[ -5.12424636  -4.4436369   -3.75499666  -3.06635641  -2.38173156
  -1.70714519  -1.05263581  -0.42221879   0.17205968   0.7221688
   1.22007778   1.64972505   2.0070952    2.27813437   2.45681945
   2.53712735   2.51303498   2.38855773   2.16369561   1.8444717
   1.4409245    0.9630925    0.42904496  -0.14917193  -0.75549657
  -1.37386741  -1.98621515  -2.58651671  -3.16071819  -3.70480422
  -4.21475939  -4.6925914   -5.14030794  -5.55991672  -5.95744083
  -6.33689566  -6.70028891  -7.04962827  -7.38290606  -7.69610687
  -7.98722301  -8.25223908  -8.485132    -8.68188635  -8.83848676
  -8.95894861  -9.04126421  -9.09547204  -9.1235798   -9.13964139
  -9.15168757  -9.16774915  -9.19987231  -9.25408014  -9.33037265
  -9.43075752  -9.54720398  -9.67569662  -9.80418926  -9.91862802
 -10.00696671 -10.06117454 -10.06920533 -10.02905138  -9.93870499
  -9.79615847  -9.6114503   -9.38458048  -9.1275952   -8.84450985
  -8.54335522  -8.23416981  -7.920969    -7.60977588  -7.31263665
  -7.03356669  -6.7846122   -6.57179627  -6.40917277  -6.3027648
  -6.26261085  -6.29071862  -6.39511889  -6.56978857  -6.81472767
  -7.11788999  -7.46722936  -7.85270728  -8.25625448  -8.65980168
  -9.05331039  -9.41871134  -9.74596603 -10.03105908 -10.26796739
 -10.46070635 -10.61128366 -10.73375321 -10.83614578 -10.93452296
 -11.04293863 -11.17143127 -11.33405477 -11.53482452 -11.77976361
 -12.06284896 -12.38408056 -12.73341993 -13.10082858 -13.47426031
 -13.84367666 -14.19903912 -14.52830151 -14.82544074 -15.08443372
 -15.29724966 -15.45987315 -15.57029652 -15.62851974 -15.63253514
 -15.5843504  -15.48998862 -15.34944979 -15.1767878  -14.97802575
 -14.76320212 -14.54637079 -14.33957794 -14.15486977 -13.99826936
 -13.88182291 -13.8075381  -13.77943034 -13.79749961 -13.85572284
 -13.95008462 -14.07255417 -14.2151007  -14.3696934  -14.52830151]",4.570627067945411,-1.0413926996103258,4.4095699999999995,0.15353000000000083
041,2,2,csp,30b.png,1,1,76,61,77,1,1,434,pos_feedback_onset,4,"[ 2.49426066e-02 -9.97704262e-02 -1.71035016e-01 -1.93941492e-01
 -1.78670508e-01 -1.35402721e-01 -7.43187869e-02 -8.14452459e-03
  5.80297377e-02  1.14023344e-01  1.52200803e-01  1.72562115e-01
  1.75107279e-01  1.57291131e-01  1.24204000e-01  7.83910492e-02
  2.74877705e-02 -2.59606721e-02 -7.68639508e-02 -1.20131738e-01
 -1.50673705e-01 -1.68489852e-01 -1.71035016e-01 -1.60854361e-01
 -1.37947885e-01 -1.02315590e-01 -6.15929672e-02 -1.32348525e-02
  3.51232623e-02  8.60265410e-02  1.29294328e-01  1.70016951e-01
  2.00558918e-01  2.20920229e-01  2.26010557e-01  2.15829902e-01
  1.90378262e-01  1.42020148e-01  7.58458852e-02 -8.14452459e-03
 -1.07405918e-01 -2.19393131e-01 -3.36470672e-01 -4.51003049e-01
 -5.55354770e-01 -6.39345180e-01 -7.02974279e-01 -7.43696902e-01
 -7.56422721e-01 -7.48787229e-01 -7.25880754e-01 -6.92793623e-01
 -6.57161328e-01 -6.26619361e-01 -6.03712885e-01 -5.90987065e-01
 -5.88441902e-01 -5.88441902e-01 -5.85896738e-01 -5.75716082e-01
 -5.50264443e-01 -5.01906328e-01 -4.28096574e-01 -3.23744852e-01
 -1.83760836e-01 -1.32348525e-02  1.87833098e-01  4.16897852e-01
  6.71414246e-01  9.46291951e-01  1.23898580e+00  1.54440548e+00
  1.86255097e+00  2.18578679e+00  2.51156777e+00  2.83989392e+00
  3.16567490e+00  3.48891072e+00  3.80705621e+00  4.12011138e+00
  4.42807621e+00  4.73349588e+00  5.03637039e+00  5.33924490e+00
  5.64720974e+00  5.96026490e+00  6.28095556e+00  6.61437203e+00
  6.95796916e+00  7.31683728e+00  7.68843121e+00  8.07020580e+00
  8.46216105e+00  8.86429695e+00  9.26897801e+00  9.67874941e+00
  1.00885208e+01  1.04957470e+01  1.08953378e+01  1.12796575e+01
  1.16461611e+01  1.19846679e+01  1.22824521e+01  1.25293330e+01
  1.27151300e+01  1.28220269e+01  1.28423882e+01  1.27711236e+01
  1.26031428e+01  1.23460812e+01  1.20050292e+01  1.15952579e+01
  1.11345832e+01  1.06382762e+01  1.01266983e+01  9.61512031e+00
  9.10863269e+00  8.61996121e+00  8.14910588e+00  7.69606670e+00
  7.25320818e+00  6.82053031e+00  6.39803310e+00  5.98317138e+00
  5.58103547e+00  5.19926088e+00  4.84548310e+00  4.52988277e+00
  4.26518572e+00  4.06157261e+00  3.92413375e+00  3.85541433e+00
  3.85286916e+00  3.91649826e+00  4.03103064e+00  4.18883080e+00
  4.37971810e+00  4.59351187e+00  4.81748629e+00  5.04909621e+00
  5.28325129e+00  5.51995154e+00  5.75665179e+00  5.99844236e+00
  6.24277810e+00  6.48965900e+00  6.73908506e+00  6.98851113e+00
  7.23030170e+00  7.45682129e+00  7.66806990e+00  7.85386687e+00
  8.01421220e+00  8.14401556e+00  8.24836728e+00  8.32726736e+00
  8.38580613e+00  8.43161908e+00  8.46979654e+00  8.50288367e+00
  8.53851597e+00  8.57923859e+00  8.62505154e+00  8.68104515e+00
  8.74721941e+00  8.82357433e+00  8.91265506e+00  9.01446162e+00
  9.12644883e+00  9.25116187e+00  9.38605556e+00  9.52603957e+00
  9.66856875e+00  9.81364310e+00  9.95362711e+00  1.00859756e+01
  1.02081435e+01  1.03175856e+01  1.04143018e+01  1.05008374e+01
  1.05771923e+01  1.06510020e+01  1.07248118e+01  1.08062570e+01
  1.09029733e+01  1.10149605e+01  1.11498542e+01  1.13101995e+01
  1.14959965e+01  1.17072451e+01  1.19414001e+01  1.21984617e+01
  1.24784297e+01  1.27762139e+01  1.30892691e+01  1.34150501e+01
  1.37561020e+01  1.41098798e+01  1.44712931e+01  1.48428870e+01
  1.52221165e+01  1.56064362e+01  1.59958463e+01  1.63827112e+01
  1.67721213e+01  1.71564410e+01  1.75382156e+01  1.79123547e+01
  1.82763132e+01  1.86326361e+01  1.89787784e+01  1.93198304e+01
  1.96532469e+01  1.99866633e+01  2.03226250e+01  2.06662221e+01
  2.10250902e+01  2.13992293e+01  2.17988201e+01  2.22187721e+01
  2.26667210e+01  2.31375763e+01  2.36338833e+01  2.41480064e+01
  2.46799456e+01  2.52271559e+01  2.57870919e+01  2.63521183e+01
  2.69196899e+01  2.74821711e+01  2.80370169e+01  2.85740465e+01
  2.90881696e+01  2.95641152e+01  2.99993383e+01  3.03785677e+01
  3.06992583e+01  3.09563199e+01  3.11421169e+01  3.12591944e+01
  3.13100977e+01  3.12948267e+01  3.12159266e+01  3.10835781e+01
  3.09003263e+01  3.06712615e+01  3.04040193e+01  3.01036900e+01
  2.97779090e+01  2.94317667e+01  2.90703534e+01  2.86987595e+01
  2.83246204e+01  2.79504813e+01  2.75814325e+01  2.72225644e+01
  2.68738769e+01  2.65455508e+01  2.62375860e+01  2.59627083e+01]","[-6.80857857 -6.25299345 -5.63993401 -4.97578628 -4.27119366 -3.53254217
 -2.76834655 -1.98286414 -1.18248097 -0.37145442  0.44595817  1.26337076
  2.07439732  2.86839444  3.63471875  4.3563408   5.01835985  5.59948912
  6.08057049  6.44457453  6.67447182  6.76174765  6.69788729  6.48501942
  6.13378745  5.65909212  5.08009153  4.42871587  3.73263796  3.02591666
  2.34261082  1.70826459  1.15267947  0.68862753  0.32675217  0.06705338
 -0.09685488 -0.18200202 -0.20967484 -0.20328881 -0.1841307  -0.17348731
 -0.19051674 -0.24160502 -0.3331382  -0.46085892 -0.61838114 -0.79719014
 -0.98238518 -1.16545155 -1.33787451 -1.49113938 -1.62524613 -1.74445213
 -1.85088606 -1.95519131 -2.05949657 -2.17657389 -2.30642329 -2.45117343
 -2.61082433 -2.77898994 -2.94502687 -3.10254909 -3.2409132  -3.34734713
 -3.41333617 -3.43462296 -3.40482146 -3.32606035 -3.20046831 -3.03017402
 -2.82582087 -2.59166622 -2.33622479 -2.0658826  -1.78489703 -1.49965409
 -1.21228248 -0.92278218 -0.63328189 -0.33952424 -0.04363791  0.26289181
  0.57793625  0.90575275  1.24634133  1.59544463  1.9466766   2.28726518
  2.60656697  2.88329519  3.10254909  3.24729924  3.3005162   3.25368527
  3.10042041  2.84497898  2.49374701  2.06375392  1.57202916  1.04198819
  0.49917514 -0.04150923 -0.55664946 -1.03773083 -1.4783673  -1.87217285
 -2.22340482 -2.53632058 -2.81517748 -3.06423288 -3.28561545 -3.47932521
 -3.64749082 -3.79224097 -3.91144697 -4.01149486 -4.09664201 -4.17327444
 -4.25416423 -4.34782609 -4.46490341 -4.61178224 -4.79059124 -5.00558778
 -5.25038582 -5.52072801 -5.80597094 -6.10185727 -6.39561492 -6.68298654
 -6.95971476 -7.22579958 -7.47911234 -7.71965303 -7.951679   -8.17519025
 -8.38805811 -8.58602522]",28.2598459666787,1.6724495769251018,3.9290200000000004,-0.08781500000000175
041,2,2,csm,6a.png,1,1,332,329,332,1,1,451,neu_feedback_onset,5,"[ 5.82953537e-01  4.04594162e-01  2.56743627e-01  1.39401933e-01
  5.49159129e-02  3.28556744e-03 -2.25296053e-02 -2.48764392e-02
