sub,run,cat_cond,trial_type,picture,old,response_old,target_pos,response_pos,dot_resp_loc,cat_corr,TN_corr,TN_rt,feedback_type,trial,SP_timeseries,FB_timeseries,SP_peak_response,FB_peak_response,preStim_bl,anticipation
023,1,1,csp,4a.png,1,1,312,229,311,1,1,589,neg_feedback_onset,1,"[-1.7453016  -1.65316478 -1.55411771 -1.44816037 -1.33068594 -1.19708756
 -1.04506181 -0.87000187 -0.6696043  -0.43926226 -0.18127918  0.10204152
  0.40609301  0.72396502  1.05105071  1.37583297  1.69140156  1.99084621
  2.26956007  2.52293631  2.7486715   2.95367591  3.13794954  3.30840265
  3.47424891  3.64009518  3.81745854  4.00864243  4.21595026  4.44398888
  4.69045486  4.95074136  5.22254496  5.49665198  5.76845558  6.03334892
  6.28442174  6.51706719  6.72437502  6.91095207  7.06758466  7.1965762
  7.29562327  7.36472588  7.40158061  7.40618745  7.3785464   7.31635405
  7.22191382  7.0952257   6.93859312  6.75201607  6.5401014   6.30745594
  6.05868654  5.79840004  5.5335067   5.26861336  5.01063028  4.76646773
  4.54303595  4.34724522  4.18139896  4.05240742  3.95796719  3.89577484
  3.86813379  3.86583037  3.88656115  3.9257193   3.97639455  4.03167664
  4.09156557  4.14915107  4.20212974  4.24589473  4.28044603  4.30348024
  4.31269392  4.30808708  4.2873563   4.25280499  4.20443316  4.13993739
  4.0616211   3.96948429  3.86352695  3.75065935  3.6308815   3.5064968
  3.3821121   3.26233424  3.15177006  3.05041957  2.96288959  2.88687672
  2.82468437  2.77170571  2.72333388  2.67956889  2.63119706  2.5782184
  2.52063289  2.4538337   2.38473109  2.31332506  2.24422245  2.1820301
  2.13596169  2.10832065  2.1037138   2.12444459  2.17281642  2.24652587
  2.34557294  2.4653508   2.60355602  2.75558176  2.91912461  3.08727429
  3.25542398  3.41896682  3.57329599  3.71610805  3.84279617  3.95105692
  4.04089032  4.10768951  4.15606134  4.18830922  4.20443316  4.20904
  4.20904     4.20443316  4.20212974  4.20673658  4.22286053  4.25050157
  4.2988734   4.36797601  4.4578094   4.56837358  4.69966854  4.84478402
  4.99911318  5.15804919  5.31007493  5.45058357  5.57036143  5.66480166
  5.73160085  5.76845558  5.77536584  5.75693848  5.71547691  5.6578914
  5.59109221  5.52429302  5.46210067  5.40912201  5.37226728  5.3515365
  5.3515365   5.36996386  5.40451516  5.45288699  5.51507934  5.58878879
  5.67171193  5.770759    5.88823344  6.03334892  6.21071229  6.42953722
  6.6990374   7.01921283  7.39006351  7.80467917  8.25154272  8.71222679
  9.16600059  9.59213336  9.96298403 10.2647321  10.47434335 10.58721095
 10.59642463 10.50428782 10.32462103 10.06433453  9.74646252  9.38482553
  8.99554749  8.59475235  8.19395721  7.80007233  7.41770455  7.04685387
  6.68982372  6.34200725  6.00110103  5.66710508  5.33310913  5.00372002
  4.67893775  4.35876233  4.04549716  3.74374909  3.45812497  3.19092821
  2.94446223  2.72333388  2.52523973  2.35478662  2.20967114  2.09450012
  2.00236331  1.94017096  1.90101281  1.88949571  1.90331623  1.94017096
  2.00236331  2.08528644  2.18894036  2.31332506  2.45153028  2.6012526
  2.7601886   2.92373145  3.08727429  3.2462103   3.40053946  3.54565494
  3.67925332  3.80594144  3.92111246  4.0270698   4.12842029  4.22286053
  4.31730076  4.41404441  4.51078807  4.61213856  4.72039932  4.83787376
  4.96456188  5.10046368  5.250186    5.41142543  5.58187853  5.76154532
  5.94581895  6.12548573  6.29593884  6.44566116  6.56774244  6.64836215
  6.68521688  6.66678952]","[-3.56597634 -3.14690249 -2.69361853 -2.21253886 -1.712216   -1.20975501
 -0.71798468 -0.25187193  0.17789257  0.55848004  0.88347609  1.14860444
  1.35600323  1.50567246  1.60402653  1.65961796  1.68099928  1.67458488
  1.6489273   1.61257906  1.56767829  1.52277752  1.47787675  1.43511411
  1.39876587  1.37097016  1.34958884  1.33889818  1.33676005  1.34745071
  1.36883202  1.40304213  1.4479429   1.5078106   1.58264521  1.66817049
  1.76652455  1.87129301  1.98033774  2.0851062   2.179184    2.25188049
  2.29678126  2.30319565  2.26470928  2.17490774  2.0316529   1.83494477
  1.58692147  1.29399741  0.9647251   0.61193334  0.24631279 -0.11716963
 -0.46996139 -0.79495743 -1.08574336 -1.33590479 -1.53688919 -1.69083468
 -1.79346501 -1.84905644 -1.86188523 -1.83622765 -1.78063622 -1.70366348
 -1.60744754 -1.50481721 -1.39791062 -1.29741842 -1.20761688 -1.1349204
 -1.0814671  -1.04939512 -1.04298073 -1.06008578 -1.09857216 -1.15416358
 -1.2225838  -1.29955655 -1.37866743 -1.45350205 -1.5240604  -1.58178996
 -1.63096699 -1.6651771  -1.68655842 -1.69511095 -1.69297282 -1.68014402
 -1.65662457 -1.62241446 -1.57751369 -1.52192227 -1.45136391 -1.37225304
 -1.2824515  -1.18409743 -1.08360523 -0.9873893  -0.89758776 -0.82489128
 -0.77785237 -0.76288545 -0.7864049  -0.85268699 -0.96814611 -1.13278227
 -1.34231919 -1.59889501 -1.89181908 -2.21681512 -2.56533062 -2.92881304
 -3.30084798 -3.6707448  -4.03636535 -4.38488084 -4.71629128 -5.02418227
 -5.30641568 -5.56085337 -5.78321909 -5.97778909 -6.14456337 -6.28568008
 -6.39900106 -6.49307887 -6.56791348 -6.62564304 -6.66840568 -6.70261579
 -6.72613524 -6.74110216 -6.74965469 -6.75179282 -6.74751656 -6.74110216
 -6.7304115  -6.71758271]",7.644418697323667,0.8941132953316331,4.3413699999999995,-0.13068499999999883
023,1,1,csp,65a.png,1,1,76,87,75,1,0,563,neg_feedback_onset,2,"[-1.58737765 -1.4867439  -1.37892202 -1.26151598 -1.13452576 -0.99795138
 -0.8493968  -0.68406992 -0.50197074 -0.30070324 -0.08266344  0.15214865
  0.39894095  0.65531742  0.91169388  1.16567431  1.41246661  1.6472787
  1.86292245  2.05939787  2.23191288  2.38286351  2.50745768  2.61048747
  2.68716081  2.74706185  2.78539852  2.81415102  2.8357154   2.85488373
  2.88363623  2.92676498  2.99385415  3.08969582  3.21908208  3.38440896
  3.58328042  3.81330043  4.06488481  4.33324149  4.6039942   4.86516275
  5.10476693  5.3156186   5.48573756  5.61272777  5.69179715  5.72534174
  5.71575757  5.66783673  5.58637131  5.48334152  5.36114339  5.22696505
  5.08559859  4.93944005  4.79088546  4.63753879  4.48419211  4.32365732
  4.16072648  3.99300356  3.82048855  3.64797355  3.48025063  3.31492375
  3.16397312  3.02739874  2.90999269  2.81654706  2.7494579   2.70632914
  2.69195289  2.69914102  2.72549748  2.7614381   2.80456686  2.84529957
  2.87884415  2.89801248  2.90280457  2.88842832  2.85967582  2.81175498
  2.75424998  2.68476477  2.60809143  2.52662601  2.44276455  2.35890309
  2.27504163  2.19357621  2.11450683  2.0378335   1.96595225  1.89646704
  1.83177391  1.76947682  1.71436786  1.6592589   1.60654599  1.54904098
  1.48913994  1.41965473  1.33818931  1.2399516   1.1249416   0.9931593
  0.83981263  0.66969367  0.48519845  0.29111907  0.08745552 -0.11620802
 -0.31987157 -0.51874304 -0.71042638 -0.89492159 -1.06743659 -1.23036743
 -1.3837141  -1.52747661 -1.66165495 -1.78624912 -1.89886308 -1.99949683
 -2.08335829 -2.14565538 -2.18638809 -2.20076434 -2.18399205 -2.13367517
 -2.04981371 -1.9348037  -1.78864516 -1.61613015 -1.42684286 -1.22317931
 -1.00993159 -0.79668388 -0.58343616 -0.37018845 -0.16173282  0.0515149
  0.27195074  0.50436679  0.75595117  1.03628805  1.34777348  1.69280349
  2.07617017  2.49068539  2.93634915  3.39638917  3.86601335  4.33084544
  4.77171712  5.18144026  5.54324256  5.84514382  6.08235195  6.25247092
  6.34831259  6.37706509  6.3435205   6.25247092  6.11589654  5.94098549
  5.74211403  5.52407423  5.29645026  5.06403422  4.83401421  4.60878629
  4.38835045  4.17270669  3.95945897  3.7486073   3.54015167  3.33409208
  3.13282457  2.94353728  2.76862623  2.62007164  2.5026656   2.42599226
  2.39723976  2.41880414  2.49068539  2.61288352  2.77581435  2.97468582
  3.1975177   3.43232979  3.66953792  3.89955793  4.11520169  4.31646919
  4.49856837  4.66389525  4.81724192  4.96100442  5.0975788   5.23175714
  5.36833152  5.50969798  5.66064861  5.81878736  5.99130237  6.18298571
  6.39144134  6.62385739  6.88023385  7.15577865  7.44809575  7.75239305
  8.05908639  8.35619556  8.63174036  8.87374058  9.07261204  9.22116663
  9.31461226  9.35055289  9.33138455  9.2595033   9.14209726  8.98635454
  8.79706724  8.58621557  8.35619556  8.11898743  7.87938326  7.64457117
  7.42173929  7.22047178  7.04795678  6.90659031  6.80116448  6.73886739
  6.71251093  6.72449114  6.76522385  6.82991698  6.90419427  6.97847156
  7.04076865  7.08150136  7.09108553  7.06472907  6.99284782  6.8826299
  6.72928322  6.53999593  6.32435217  6.08714404  5.8379557   5.58876736
  5.34676714  5.12393526]","[-1.43386911e+00 -1.25373201e+00 -1.07581882e+00 -9.09025203e-01
 -7.53351162e-01 -6.11020610e-01 -4.79809633e-01 -3.61942145e-01
 -2.50746401e-01 -1.41774573e-01 -3.28027443e-02  8.50647437e-02
  2.16275721e-01  3.67501932e-01  5.38743377e-01  7.34447885e-01
  9.54615457e-01  1.19702218e+00  1.46389196e+00  1.74632915e+00
  2.03988591e+00  2.34011442e+00  2.63811901e+00  2.92500403e+00
  3.19187382e+00  3.42760879e+00  3.62331330e+00  3.76564385e+00
  3.85237653e+00  3.87239176e+00  3.82568955e+00  3.71226989e+00
  3.53658062e+00  3.30751739e+00  3.03619977e+00  2.72929952e+00
  2.40016012e+00  2.05545332e+00  1.70629868e+00  1.35714405e+00
  1.01243724e+00  6.72178269e-01  3.36367124e-01  5.00380845e-03
 -3.21911677e-01 -6.46603248e-01 -9.66846989e-01 -1.28709073e+00
 -1.60511056e+00 -1.92535430e+00 -2.24337412e+00 -2.56139395e+00
 -2.87718986e+00 -3.19520969e+00 -3.51322951e+00 -3.83124934e+00
 -4.14926917e+00 -4.46728899e+00 -4.78308490e+00 -5.10110473e+00
 -5.41690064e+00 -5.73047264e+00 -6.04404463e+00 -6.35539272e+00
 -6.66229297e+00 -6.96474539e+00 -7.26052607e+00 -7.54741109e+00
 -7.82540044e+00 -8.09004631e+00 -8.34134869e+00 -8.57708367e+00
 -8.79947516e+00 -9.00407532e+00 -9.19533200e+00 -9.37324519e+00
 -9.53781489e+00 -9.69126502e+00 -9.83804340e+00 -9.97370221e+00
 -1.01071371e+01 -1.02316763e+01 -1.03517677e+01 -1.04674113e+01
 -1.05741592e+01 -1.06720115e+01 -1.07587442e+01 -1.08321333e+01
 -1.08877312e+01 -1.09255378e+01 -1.09411052e+01 -1.09388813e+01
 -1.09188660e+01 -1.08810595e+01 -1.08365812e+01 -1.07898790e+01
 -1.07454007e+01 -1.07120419e+01 -1.06986985e+01 -1.07053702e+01
 -1.07342811e+01 -1.07832072e+01 -1.08499247e+01 -1.09255378e+01
 -1.09989270e+01 -1.10611966e+01 -1.11012270e+01 -1.11056749e+01
 -1.10700922e+01 -1.09878074e+01 -1.08565964e+01 -1.06786832e+01
 -1.04585156e+01 -1.02072133e+01 -9.93589565e+00 -9.65123455e+00
 -9.37102128e+00 -9.10192758e+00 -8.85507303e+00 -8.63935329e+00
 -8.45699227e+00 -8.31466171e+00 -8.21236163e+00 -8.14786810e+00
 -8.11895721e+00 -8.12340504e+00 -8.15676376e+00 -8.21236163e+00
 -8.28575082e+00 -8.37025959e+00 -8.46144010e+00 -8.55262061e+00
 -8.63935329e+00 -8.71274248e+00 -8.77278818e+00 -8.81281865e+00
 -8.83060996e+00 -8.82171430e+00 -8.78835558e+00 -8.72830988e+00]",7.533394831737979,1.5917670671566495,4.17355,-0.155994999999999
023,1,1,csm,16b.png,1,1,256,250,NaN,0,1,699,neu_feedback_onset,3,"[ 0.15558769  0.0841118   0.02284676 -0.02565474 -0.06394539 -0.09202521
 -0.11244689 -0.12265773 -0.12521044 -0.12521044 -0.11755231 -0.10478876
 -0.08436707 -0.05883997 -0.02310203  0.02284676  0.07900638  0.14537685
  0.22706358  0.31896115  0.42106956  0.5308361   0.64570806  0.76058003
  0.87289928  0.98011311  1.08222152  1.1766718   1.26346395  1.34515068
  1.42683741  1.51107685  1.60297442  1.70253012  1.81740208  1.9450376
  2.08543666  2.23604657  2.39686731  2.55768806  2.71850881  2.86401329
  2.99675423  3.10396806  3.18565479  3.23670899  3.25968339  3.25457797
  3.22905086  3.1882075   3.139706    3.08609909  3.03759759  2.99675423
  2.96867442  2.95335815  2.95080544  2.963569    2.99164881  3.03249217
  3.09120451  3.16778582  3.26478881  3.38221348  3.52261255  3.68343329
  3.86978114  4.07655068  4.30374189  4.54880208  4.81173124  5.08231852
  5.36566937  5.65412563  5.94768731  6.2438017   6.54502151  6.84624133
  7.15001385  7.45889179  7.77287516  8.08941123  8.41105272  8.73524693
  9.05688842  9.37087179  9.6720916   9.94778431 10.19029179 10.39450861
 10.55022394 10.65743777 10.71104468 10.71359739 10.66764861 10.58596188
 10.47364263 10.33834898 10.19029179 10.03457646  9.87630842  9.71548768
  9.55466693  9.38618805  9.21005104  9.02115048  8.81948637  8.602506
  8.37786749  8.14812357  7.92348506  7.71416282  7.53036768  7.38231048
  7.27764936  7.21893703  7.20617347  7.23935871  7.3108346   7.4103903
  7.53036768  7.66310861  7.79584955  7.92093235  8.0332516   8.12770188
  8.20173048  8.25278469  8.28341721  8.29362805  8.2808645   8.24767927
  8.19662506  8.1328073   8.056226    7.97198656  7.88519441  7.80095497
  7.71926824  7.64779235  7.5839746   7.5354731   7.49973516  7.47420805
  7.4614445   7.45378637  7.45378637  7.45123366  7.44868095  7.4359174
  7.4103903   7.36699422  7.30062375  7.20872618  7.0887488   6.94069161
  6.7645546   6.5654432   6.35101553  6.12637703  5.90173852  5.68475815
  5.48819946  5.31972058  5.18442694  5.08487123  5.0261589   5.00573722
  5.02360619  5.06955497  5.14358357  5.24058656  5.35545852  5.48309404
  5.6234931   5.77665572  5.94002918  6.11616619  6.30761946  6.51438899
  6.73902749  6.97898226  7.23170058  7.49207703  7.75755889  8.01793534
  8.26810095  8.50295029  8.70971983  8.88840955  9.03391403  9.14623328
  9.2253673   9.2738688   9.29173777  9.28663235  9.26365796  9.2253673
  9.17941852  9.12836431  9.07731011  9.03136132  8.99307067  8.96499085
  8.9522273   8.9522273   8.97264899  9.01093964  9.06709927  9.14368057
  9.23813085  9.35045011  9.48063833  9.62359011  9.78185814  9.95288973
 10.13413216 10.32558543 10.52469683 10.72891366 10.93568319 11.14500543
 11.35688038 11.56364992 11.76276132 11.9567673  12.13800973 12.30648861
 12.45965122 12.59494487 12.70726412 12.8017144  12.87319029 12.92424449
 12.95232431 12.95487702 12.93700804 12.89105926 12.81703066 12.71236954
 12.57452319 12.39838618 12.18395851 11.92868749 11.6351258  11.30582618
 10.94334132 10.55788207 10.15710655  9.74867291  9.34279198  8.9522273
  8.58718973  8.25789011  7.96943385  7.73203179  7.54823665  7.42060114
  7.34912525  7.33891441]","[-2.15481025 -1.90653638 -1.65826252 -1.40998866 -1.16631245 -0.92263625
 -0.68355772 -0.44907685 -0.21689481  0.00839074  0.22677978  0.4359735
  0.63827073  0.82907379  1.00838269  1.17849626  1.33711568  1.49113743
  1.63596385  1.77849144  1.91412253  2.04975362  2.17848822  2.30262515
  2.41756676  2.51871537  2.60147332  2.66124296  2.6934266   2.6934266
  2.66124296  2.59227799  2.49342821  2.36239479  2.20377537  2.02216764
  1.82446808  1.61527436  1.39918414  1.17849626  0.96240605  0.74861467
  0.54401861  0.34861788  0.16241249 -0.01229875 -0.17551583 -0.33183641
 -0.47666283 -0.61229392 -0.74332735 -0.86746428 -0.98700355 -1.10194516
 -1.20999026 -1.31343771 -1.40768982 -1.49044778 -1.55711391 -1.60538938
 -1.63297537 -1.63297537 -1.60538938 -1.55021741 -1.46516063 -1.35481669
 -1.22148442 -1.06516384 -0.89275144 -0.70884487 -0.51574298 -0.32034225
 -0.12724036  0.05666621  0.22907862  0.38310037  0.51183496  0.61528241
  0.68424737  0.71872985  0.71643102  0.67735087  0.60148941  0.49114547
  0.35091672  0.18769964  0.01068957 -0.17781466 -0.36402006 -0.54332896
 -0.70884487 -0.85137246 -0.96631406 -1.05137085 -1.10424399 -1.12493348
 -1.11343932 -1.076658   -1.0191872  -0.95022224 -0.87206195 -0.79849932
 -0.73183319 -0.68355772 -0.6536729  -0.64907524 -0.66976473 -0.71344254
 -0.78010867 -0.86516545 -0.9617164  -1.06976151 -1.18240428 -1.29964472
 -1.41458632 -1.52722909 -1.63757303 -1.74561814 -1.84906558 -1.94791536
 -2.04676514 -2.14331609 -2.2375682  -2.33182032 -2.42607243 -2.52492221
 -2.62607082 -2.73411593 -2.85135637 -2.98468863 -3.13411271 -3.30882395
 -3.50882234 -3.74100438 -4.00537007 -4.29962058 -4.62605473 -4.97777604
 -5.34788801 -5.7271953 ]",11.375004626787348,1.4245287681593322,3.917405000000001,
023,1,1,csm,39b.png,1,1,44,NaN,NaN,0,1,327,neu_feedback_onset,4,"[-2.07805274 -1.90793966 -1.72324547 -1.52883052 -1.31983446 -1.09868746
 -0.8702499  -0.63695196 -0.39636347 -0.15577497  0.08724371  0.3278322
  0.57085088  0.81143938  1.05202787  1.29504655  1.53563504  1.77622354
  2.01438185  2.24524959  2.47125697  2.6851134   2.88681891  3.07394329
  3.24648656  3.40201851  3.54539953  3.67662962  3.79813896  3.91478793
  4.02657652  4.13593493  4.24286315  4.34493099  4.44213847  4.53205538
  4.61225154  4.6754364   4.72404014  4.75077219  4.75563257  4.73619107
  4.6948779   4.62926285  4.54177613  4.43241772  4.30604801  4.16266698
  4.00470484  3.83945214  3.66933906  3.49922599  3.33397328  3.17601114
  3.03263012  2.91112078  2.81148312  2.7410077   2.7045549   2.7045549
  2.73857751  2.81148312  2.91598115  3.05207161  3.21732432  3.4044487
  3.60858439  3.8273012   4.05573876  4.2890367   4.52476482  4.76292313
  4.99379087  5.21979825  5.43608487  5.63779038  5.82005439  5.98044672
  6.11653718  6.2234654   6.30123138  6.34983511  6.37170679  6.37413698
  6.36198605  6.34254455  6.32796343  6.32553324  6.34497474  6.39357847
  6.47377464  6.59042361  6.74109519  6.91849883  7.11777414  7.32677021
  7.53576627  7.73261141  7.90515467  8.04367532  8.1384526   8.18219597
  8.17004503  8.1019998   7.97806027  7.80065664  7.57950964  7.31704946
  7.03028742  6.73137444  6.43246146  6.14569942  5.88809962  5.66938281
  5.49926973  5.38019058  5.31700572  5.3024246   5.33644721  5.40692263
  5.50656029  5.62563944  5.75686953  5.89295999  6.03148064  6.1675711
  6.30123138  6.43732184  6.57827267  6.72408388  6.87718565  7.04243835
  7.21984199  7.40696637  7.60867188  7.81766794  8.03152438  8.2502412
  8.46652782  8.67552389  8.87236902  9.05220284  9.20530461  9.32924414
  9.41430068  9.46047423  9.46290441  9.42645161  9.34868563  9.24175741
  9.10809714  8.96228593  8.80675398  8.65608239  8.51270137  8.38147128
  8.26482232  8.16275447  8.07040737  7.98292065  7.89786411  7.8079472
  7.70830954  7.59409076  7.46529086  7.31947965  7.15908732  6.98654406
  6.80428005  6.61472547  6.42274072  6.23561633  6.05092213  5.87594868
  5.71312617  5.5600244   5.42150375  5.29027366  5.16876432  5.04968517
  4.93546639  4.81395705  4.69001752  4.55878743  4.42026679  4.27931595
  4.13350474  3.99255391  3.85889363  3.74224467  3.64260701  3.56727122
  3.51623729  3.48950524  3.48950524  3.51137692  3.55025991  3.60615421
  3.67419944  3.7543956   3.8467427   3.95367092  4.08247082  4.23557259
  4.42269697  4.65113453  4.92817583  5.25625105  5.64022056  6.07765419
  6.56369155  7.09347228  7.64998505  8.22593933  8.80432379  9.36812713
  9.90519841 10.4058169  10.85783164 11.25881246 11.60632918 11.90038178
 12.14340046 12.34024559 12.49820774 12.61971708 12.70963399 12.77038866
 12.80441128 12.80684146 12.78010941 12.71935474 12.62457745 12.49334736
 12.33052485 12.14340046 11.93683458 11.72540833 11.52127264 11.33414826
 11.1786163  11.05710696 10.97934098 10.94288818 10.94288818 10.9769108
 11.0303749  11.09598995 11.15917481 11.2150691  11.2515219  11.26610303
 11.25395209 11.22478985 11.1786163  11.12758238 11.0862692  11.06196733
 11.07168808 11.11786163]","[ -3.82533482  -3.33273998  -2.85357954  -2.38785351  -1.93556188
  -1.50118279  -1.0802381   -0.67496689  -0.28760822   0.08631605
   0.44008871   0.78042697   1.10061362   1.40512679   1.6939665
   1.96713273   2.22910362   2.48211825   2.7261766    2.96799589
   3.20757611   3.4493954    3.69345375   3.94199024   4.19724393
   4.46369296   4.73685919   5.01898169   5.3078214    5.5966611
   5.8787836    6.14523263   6.38481285   6.58632893   6.73186831
   6.81023567   6.81023567   6.71843391   6.53483037   6.25494694
   5.88326174   5.42873104   4.90478925   4.32487078   3.70464909
   3.06651486   2.42166343   1.78800733   1.17898098   0.5990625
   0.05944724  -0.43538667  -0.88991737  -1.29966671  -1.66687378
  -1.99377763  -2.28037827  -2.53115383  -2.74162617  -2.91627343
  -3.05061748  -3.14913645  -3.21183034  -3.23869915  -3.23422101
  -3.200635    -3.14465831  -3.07076909  -2.98568452  -2.89612182
  -2.80879819  -2.7259527   -2.65206347  -2.58713051  -2.53563196
  -2.49756781  -2.46845994  -2.45278646  -2.44606926  -2.45278646
  -2.470699    -2.50204595  -2.55130543  -2.61623839  -2.70356202
  -2.81103726  -2.93866411  -3.08196442  -3.24317728  -3.41334641
  -3.58799367  -3.76488     -3.93952727  -4.10745733  -4.26643112
  -4.4186877   -4.55974896  -4.694093    -4.81948078  -4.94039043
  -5.05458287  -5.16653624  -5.27625055  -5.38148672  -5.48896196
  -5.5964372   -5.70839057  -5.82482208  -5.95020986  -6.08679297
  -6.23904956  -6.40474055  -6.59058315  -6.79433829  -7.01376691
  -7.25110806  -7.49964455  -7.75489824  -8.012391    -8.26988376
  -8.52065932  -8.76023954  -8.98638535  -9.19685769  -9.3894175
  -9.56182569  -9.71632135  -9.85514353  -9.97605317 -10.08128934
 -10.17533018 -10.25593661 -10.32758677 -10.38804159 -10.43730107
 -10.47760429 -10.5044731  -10.52014657 -10.52238564 -10.5111903 ]",11.034566977163532,3.747751136606624,4.11491,
023,1,1,csm,25b.png,1,1,164,176,NaN,0,1,319,neu_feedback_onset,5,"[ 7.46714967e-01  6.46632215e-01  5.44108421e-01  4.39143585e-01
  3.36619791e-01  2.34095996e-01  1.34013245e-01  4.36946646e-02
 -3.68597450e-02 -1.07649984e-01 -1.66235009e-01 -2.10173778e-01
 -2.46789419e-01 -2.73640888e-01 -2.95610273e-01 -3.15138615e-01
 -3.34666956e-01 -3.54195298e-01 -3.78605725e-01 -4.05457195e-01
 -4.34749708e-01 -4.64042220e-01 -4.90893690e-01 -5.17745160e-01
 -5.37273502e-01 -5.51919758e-01 -5.56801843e-01 -5.47037673e-01
 -5.25068288e-01 -4.83570562e-01 -4.22544494e-01 -3.41990084e-01
 -2.39466290e-01 -1.14973112e-01  2.90484083e-02  1.87716185e-01
  3.58589175e-01  5.34344250e-01  7.07658283e-01  8.73649188e-01
  1.02499384e+00  1.15192806e+00  1.25201081e+00  1.31791896e+00
  1.34965252e+00  1.34477043e+00  1.30327271e+00  1.22760038e+00
  1.11775346e+00  9.85937153e-01  8.32151462e-01  6.66160557e-01
  4.95287567e-01  3.21973534e-01  1.55982630e-01 -2.44104272e-04
 -1.41824582e-01 -2.66317760e-01 -3.71282597e-01 -4.54278049e-01
 -5.17745160e-01 -5.59242886e-01 -5.78771228e-01 -5.76330185e-01
 -5.49478715e-01 -5.03098904e-01 -4.37190750e-01 -3.56636341e-01
 -2.63876718e-01 -1.68676052e-01 -7.83574712e-02 -2.44104272e-04
  5.34588355e-02  7.54282199e-02  6.32230063e-02  9.52006659e-03
 -8.07985139e-02 -2.10173778e-01 -3.68841554e-01 -5.51919758e-01
 -7.52085261e-01 -9.59573892e-01 -1.16950357e+00 -1.37943324e+00
 -1.59180395e+00 -1.80417467e+00 -2.02142747e+00 -2.24600340e+00
 -2.48766663e+00 -2.74397612e+00 -3.01981394e+00 -3.31029803e+00
 -3.61054628e+00 -3.91567662e+00 -4.21592487e+00 -4.49908583e+00
 -4.76027740e+00 -4.98729437e+00 -5.17037258e+00 -5.30462993e+00
 -5.38518434e+00 -5.40959476e+00 -5.38030225e+00 -5.29730680e+00
 -5.16549049e+00 -4.99461750e+00 -4.79445200e+00 -4.57475815e+00
 -4.35262327e+00 -4.14269359e+00 -3.95717435e+00 -3.81071178e+00
 -3.71062903e+00 -3.66424922e+00 -3.67157235e+00 -3.72771633e+00
 -3.83268117e+00 -3.97182060e+00 -4.13781151e+00 -4.31844867e+00
 -4.50396791e+00 -4.68948716e+00 -4.87256537e+00 -5.05076148e+00
 -5.22651656e+00 -5.40471268e+00 -5.59511401e+00 -5.79772055e+00
 -6.01741440e+00 -6.25907763e+00 -6.52026920e+00 -6.79610703e+00
 -7.07926798e+00 -7.36486998e+00 -7.64314885e+00 -7.90678146e+00
 -8.14844469e+00 -8.36325645e+00 -8.55365778e+00 -8.71720764e+00
 -8.86122916e+00 -8.99304547e+00 -9.12242073e+00 -9.25667808e+00
 -9.40314065e+00 -9.56913155e+00 -9.75953288e+00 -9.96702151e+00
 -1.01915974e+01 -1.04210555e+01 -1.06480724e+01 -1.08580021e+01
 -1.10410803e+01 -1.11802197e+01 -1.12705383e+01 -1.13022719e+01
 -1.12729794e+01 -1.11826608e+01 -1.10337572e+01 -1.08311506e+01
 -1.05797232e+01 -1.02843571e+01 -9.95237526e+00 -9.58865989e+00
 -9.19565201e+00 -8.77579267e+00 -8.32664081e+00 -7.85307852e+00
 -7.35510581e+00 -6.83272267e+00 -6.28837014e+00 -5.72937136e+00
 -5.15816736e+00 -4.58940441e+00 -4.02796459e+00 -3.48605310e+00
 -2.97343413e+00 -2.50231289e+00 -2.07513041e+00 -1.69920983e+00
 -1.37455115e+00 -1.10359541e+00 -8.79019482e-01 -6.98382321e-01
 -5.54360801e-01 -4.37190750e-01 -3.39549042e-01 -2.54112547e-01
 -1.78440223e-01 -1.05208941e-01 -3.19776596e-02  4.12536219e-02
  1.14484903e-01  1.87716185e-01  2.60947466e-01  3.29296662e-01
  3.92763773e-01  4.51348798e-01  5.02610695e-01  5.48990507e-01
  5.90488233e-01  6.27103874e-01  6.63719514e-01  7.02776198e-01
  7.44273924e-01  7.93094778e-01  8.51679804e-01  9.22470042e-01
  1.00790654e+00  1.10554825e+00  1.21783621e+00  1.33988835e+00
  1.47414570e+00  1.61084409e+00  1.74754248e+00  1.88179983e+00
  2.00629301e+00  2.12102202e+00  2.21622268e+00  2.29189501e+00
  2.35048003e+00  2.38465463e+00  2.39930089e+00  2.39930089e+00
  2.38465463e+00  2.36268524e+00  2.33583377e+00  2.31142335e+00
  2.29433605e+00  2.28945396e+00  2.29921813e+00  2.33095169e+00
  2.38221359e+00  2.45788591e+00  2.55308658e+00  2.66781558e+00
  2.79963189e+00  2.94365341e+00  3.09743910e+00  3.25366584e+00
  3.40989257e+00  3.55879618e+00  3.70037665e+00  3.82731087e+00
  3.94203988e+00  4.04212263e+00  4.12511809e+00  4.19590832e+00
  4.25205231e+00  4.29843212e+00  4.33504776e+00  4.36434027e+00
  4.38630966e+00  4.40583800e+00  4.41804321e+00  4.43024842e+00
  4.44001260e+00  4.44733572e+00  4.45465885e+00  4.46198198e+00]","[-4.71056350e-01 -3.96805465e-01 -3.26922279e-01 -2.54855244e-01
 -1.87155907e-01 -1.17272721e-01 -5.17572345e-02  7.20670354e-03
  6.18029425e-02  1.07663783e-01  1.40421527e-01  1.64443872e-01
  1.77546969e-01  1.81914668e-01  1.77546969e-01  1.68811571e-01
  1.57892323e-01  1.51340774e-01  1.51340774e-01  1.57892323e-01
  1.79730819e-01  2.12488562e-01  2.58349403e-01  3.19497190e-01
  3.93748075e-01  4.83285907e-01  5.88110686e-01  7.10406262e-01
  8.47988784e-01  1.00304210e+00  1.17775007e+00  1.36992883e+00
  1.57739454e+00  1.79359564e+00  2.00979675e+00  2.21944631e+00
  2.40944122e+00  2.56667839e+00  2.68242241e+00  2.74575405e+00
  2.75448945e+00  2.70426091e+00  2.59506843e+00  2.43564741e+00
  2.23254940e+00  1.99887750e+00  1.74118325e+00  1.47038591e+00
  1.19958856e+00  9.33158917e-01  6.75464669e-01  4.35241217e-01
  2.08120863e-01  6.55154868e-04 -1.89339757e-01 -3.59680022e-01
 -5.10365642e-01 -6.39212766e-01 -7.44037545e-01 -8.24839978e-01
 -8.81620067e-01 -9.10010111e-01 -9.14377810e-01 -8.92539315e-01
 -8.48862324e-01 -7.83346837e-01 -7.02544403e-01 -6.08638872e-01
 -5.01630244e-01 -3.90253916e-01 -2.76693739e-01 -1.63133562e-01
 -5.83087832e-02  3.34128983e-02  1.07663783e-01  1.55708474e-01
  1.68811571e-01  1.38237677e-01  5.96190930e-02 -7.79634293e-02
 -2.78877589e-01 -5.43123385e-01 -8.70700819e-01 -1.26160989e+00
 -1.70274750e+00 -2.18756210e+00 -2.70076675e+00 -3.23144219e+00
 -3.76430148e+00 -4.28405768e+00 -4.77542383e+00 -5.23184839e+00
 -5.64022826e+00 -5.99837958e+00 -6.29975082e+00 -6.54870967e+00
 -6.74088843e+00 -6.88502250e+00 -6.98547958e+00 -7.04444352e+00
 -7.07283357e+00 -7.07283357e+00 -7.05317892e+00 -7.01823733e+00
 -6.97674419e+00 -6.93306719e+00 -6.89157405e+00 -6.85663246e+00
 -6.83479396e+00 -6.82605857e+00 -6.83042627e+00 -6.84789706e+00
 -6.87847096e+00 -6.91778025e+00 -6.96145724e+00 -7.00295038e+00
 -7.04007582e+00 -7.06846587e+00 -7.08593666e+00 -7.08593666e+00
 -7.07283357e+00 -7.04662737e+00 -7.00731808e+00 -6.96145724e+00
 -6.91341255e+00 -6.86536786e+00 -6.82387472e+00 -6.79548467e+00
 -6.77801388e+00 -6.77364618e+00 -6.78456542e+00 -6.80640392e+00
 -6.83697781e+00 -6.87191941e+00 -6.90467715e+00 -6.93525104e+00
 -6.95490569e+00 -6.96582494e+00 -6.96364109e+00 -6.94835414e+00]",4.130930091907582,1.091651798290945,4.09661,
023,1,1,csp,63a.png,1,1,328,315,327,1,1,347,pos_feedback_onset,6,"[-1.47549384 -1.43897454 -1.37278331 -1.27235523 -1.14225523 -0.98020083
 -0.79532188 -0.58761836 -0.3662201  -0.13112711  0.10624834  0.34362379
  0.57643432  0.79555012  0.99412382  1.16530803  1.30225541  1.39583612
  1.4437677   1.43920278  1.37985892  1.26801857  1.10596417  0.90054311
  0.66088521  0.39840274  0.12450799 -0.14938676 -0.41186923 -0.65609205
 -0.87064293 -1.05323943 -1.20388155 -1.31800436 -1.40017278 -1.45038682
 -1.47321138 -1.46864647 -1.43669208 -1.38191313 -1.30202716 -1.19931663
 -1.076064   -0.9299868  -0.76564995 -0.5853359  -0.39360958 -0.18818852
  0.02407991  0.24091326  0.46231151  0.68827468  0.9165203   1.14704838
  1.37985892  1.61266946  1.85004491  2.08742036  2.32479581  2.56217125
  2.7995467   3.03235724  3.26288532  3.48200112  3.69198709  3.88599588
  4.05946255  4.20325729  4.31281519  4.38357134  4.4063959   4.37672397
  4.29227309  4.15532571  3.9681643   3.73763622  3.47058884  3.17843444
  2.87943267  2.5804309   2.29740633  2.04177123  1.82037298  1.64005893
  1.50311156  1.40496594  1.34790453  1.32507997  1.33192734  1.36159927
  1.4072484   1.4643098   1.52821858  1.59212735  1.65375367  1.71081508
  1.75418175  1.78385368  1.79983087  1.79526596  1.7724414   1.72907473
  1.67201332  1.60353963  1.52593612  1.4437677   1.36388173  1.28856067
  1.2246519   1.16987295  1.12878873  1.0991168   1.08085715  1.06944487
  1.06487996  1.06031505  1.05803259  1.05575013  1.04890277  1.03749049
  1.0260782   1.01466592  1.00097119  0.9895589   0.98042908  0.97814662
  0.98042908  0.98727645  1.00097119  1.02379575  1.05346768  1.08998698
  1.1356361   1.19041505  1.25660628  1.33649225  1.42550805  1.52821858
  1.64005893  1.76102911  1.88199929  2.00068702  2.11252738  2.20839054
  2.28599405  2.340773    2.37272739  2.38185721  2.36816247  2.33849054
  2.29968879  2.25632212  2.21523791  2.18556597  2.17187124  2.18328352
  2.22208527  2.29284142  2.39555195  2.53021687  2.69227126  2.8725853
  3.06431163  3.25603795  3.43406954  3.58699411  3.70111692  3.76959061
  3.78785026  3.7490485   3.66231516  3.52765025  3.35874848  3.16245725
  2.95475373  2.74705021  2.55075897  2.37044493  2.21295545  2.08285544
  1.98242737  1.90482386  1.85004491  1.81580806  1.7929835   1.77928876
  1.76559403  1.74733438  1.7199449   1.67657823  1.61266946  1.52593612
  1.41181331  1.27258348  1.11052908  0.93021504  0.73164135  0.52622029
  0.31623431  0.10853079 -0.08776044 -0.27492185 -0.44382362 -0.59674818
 -0.73597802 -0.8569482  -0.9665061  -1.06465171 -1.15366751 -1.24040084
 -1.32256927 -1.40702015 -1.49147103 -1.58048683 -1.67406753 -1.77449561
 -1.87720614 -1.98219912 -2.08947457 -2.1921851  -2.29033072 -2.38162897
 -2.45923248 -2.52542371 -2.5779202  -2.61672196 -2.64411143 -2.65552372
 -2.66008863 -2.65324126 -2.63726407 -2.6144395  -2.58020266 -2.53683599
 -2.48205704 -2.41358335 -2.32913247 -2.22642194 -2.1031693  -1.96165702
 -1.79960262 -1.62157104 -1.42756226 -1.22442365 -1.01672013 -0.81129907
 -0.61500783 -0.43469379 -0.27720431 -0.1471043  -0.04667623  0.01723254
  0.04462202  0.03320974 -0.01243939 -0.0900429  -0.1996008  -0.33426572
 -0.4917552  -0.66522187]","[-6.8810965  -6.13308545 -5.34876318 -4.53297119 -3.69781322 -2.85781375
 -2.02507653 -1.20928454 -0.42254152  0.32789028  1.02990713  1.67866752
  2.27175072  2.80673597  3.28120253  3.69999189  4.0655248   4.38264275
  4.66102875  4.90310352  5.12339156  5.32673437  5.52523569  5.72373701
  5.93192131  6.1546301   6.39670488  6.66056638  6.94621462  7.24880808
  7.56592604  7.88788549  8.20742419  8.51485915  8.80292814  9.06436889
  9.28949843  9.47831676  9.62114087  9.71797078  9.76638574  9.76638574
  9.71312929  9.61145788  9.46137152  9.26044946  9.01837469  8.73756795
  8.42529149  8.0912283   7.74264062  7.3916322   7.04788602  6.72350582
  6.4233331   6.15220936  5.91497608  5.71405401  5.54460167  5.4041983
  5.29284391  5.20569699  5.1354953   5.0846596   5.04834838  5.03140315
  5.0338239   5.05803138  5.10644633  5.18391026  5.29042316  5.42840578
  5.59785812  5.79393869  6.01180599  6.24419777  6.48627254  6.72834732
  6.9607391   7.1786064   7.37226622  7.53929781  7.67485969  7.77653109
  7.84915353  7.89030624  7.90483072  7.89998923  7.87578175  7.84189128
  7.79831782  7.75474436  7.70875016  7.67001819  7.63854847  7.61918249
  7.61434099  7.62886548  7.66275595  7.72085389  7.80073857  7.89998923
  8.01376437  8.13722251  8.25825989  8.36719354  8.45434046  8.50759691
  8.51970065  8.48581018  8.40350476  8.27762588  8.11301503  7.92419671
  7.72085389  7.51509034  7.32627201  7.15681967  7.0164163   6.9099034
  6.83970172  6.79612826  6.78160377  6.78644527  6.80581125  6.83001872
  6.8542262   6.87117144  6.87843368  6.86875069  6.83970172  6.79128676
  6.72108508  6.62425517  6.50563853  6.36039366  6.19336207  5.99970225
  5.7794142   5.53491868]",2.631614986151181,7.627473550304951,4.381245000000001,-0.03622000000000147
023,1,1,csm,40b.png,1,1,56,224,NaN,0,1,508,neu_feedback_onset,7,"[ 2.86235623e-01  1.55651550e-01  3.20630535e-02 -7.75342929e-02
 -1.66144913e-01 -2.31436949e-01 -2.71078543e-01 -2.87401552e-01
 -2.80405977e-01 -2.50091817e-01 -2.05786507e-01 -1.47490046e-01
 -7.98661513e-02 -5.24668147e-03  7.17046468e-02  1.48655975e-01
  2.25607303e-01  2.95563056e-01  3.63186951e-01  4.23815270e-01
  4.77448014e-01  5.21753324e-01  5.61394918e-01  5.96372794e-01
  6.29018812e-01  6.61664830e-01  7.03638282e-01  7.57271026e-01
  8.29558637e-01  9.29828550e-01  1.06041262e+00  1.22597457e+00
  1.43117811e+00  1.67602325e+00  1.96050998e+00  2.27764272e+00
  2.62275777e+00  2.98419583e+00  3.35496132e+00  3.72106309e+00
  4.06851000e+00  4.38797461e+00  4.66546576e+00  4.88932417e+00
  5.05255426e+00  5.14816046e+00  5.17147904e+00  5.11784630e+00
  4.99192594e+00  4.79604983e+00  4.53254983e+00  4.21075337e+00
  3.84231973e+00  3.43657637e+00  3.00751441e+00  2.56912503e+00
  2.13539936e+00  1.72032856e+00  1.34023563e+00  1.00444802e+00
  7.24625008e-01  5.10094032e-01  3.60855092e-01  2.86235623e-01
  2.79240047e-01  3.39868367e-01  4.61125005e-01  6.33682529e-01
  8.48213505e-01  1.09305864e+00  1.36122236e+00  1.64104537e+00
  1.92086838e+00  2.20069140e+00  2.47118697e+00  2.73002326e+00
  2.97720025e+00  3.21504981e+00  3.44357194e+00  3.66509849e+00
  3.88196133e+00  4.09649230e+00  4.30635956e+00  4.51389496e+00
  4.71676665e+00  4.91031090e+00  5.08986399e+00  5.25542594e+00
  5.39533745e+00  5.50959851e+00  5.59121356e+00  5.63551887e+00
  5.63318701e+00  5.58421798e+00  5.47695249e+00  5.31139055e+00
  5.08520028e+00  4.79371797e+00  4.44393921e+00  4.03819584e+00
  3.58814716e+00  3.10312061e+00  2.60177105e+00  2.10042148e+00
  1.61772679e+00  1.17234183e+00  7.78257752e-01  4.49465713e-01
  1.97625002e-01  2.27356197e-02 -7.05387176e-02 -8.91935851e-02
 -4.02245580e-02  6.47090715e-02  2.18611728e-01  4.02828544e-01
  6.12695803e-01  8.31890496e-01  1.05108519e+00  1.26095245e+00
  1.45449670e+00  1.62472236e+00  1.76463387e+00  1.87189936e+00
  1.94185511e+00  1.96983741e+00  1.96050998e+00  1.91387281e+00
  1.83225776e+00  1.72266042e+00  1.58974449e+00  1.44283741e+00
  1.29126661e+00  1.14202767e+00  1.00211616e+00  8.78527665e-01
  7.75925894e-01  6.96642707e-01  6.43009963e-01  6.10363945e-01
  5.98704653e-01  6.03368370e-01  6.19691379e-01  6.43009963e-01
  6.70992264e-01  6.98974565e-01  7.26956866e-01  7.52607309e-01
  7.73594035e-01  7.89917044e-01  7.99244478e-01  7.99244478e-01
  7.87585186e-01  7.59602885e-01  7.17629433e-01  6.59332972e-01
  5.84713502e-01  4.91439165e-01  3.88837394e-01  2.74576330e-01
  1.57983409e-01  4.60542040e-02 -5.88794254e-02 -1.45158187e-01
 -2.10450224e-01 -2.45428100e-01 -2.45428100e-01 -2.10450224e-01
 -1.35830754e-01 -2.62334074e-02  1.18341815e-01  2.93231198e-01
  4.91439165e-01  7.03638282e-01  9.25164833e-01  1.14435953e+00
  1.36122236e+00  1.56409404e+00  1.75530644e+00  1.93252768e+00
  2.09575777e+00  2.24732856e+00  2.39190379e+00  2.53414715e+00
  2.67639052e+00  2.82562946e+00  2.98652769e+00  3.16141707e+00
  3.35729318e+00  3.57881973e+00  3.83066044e+00  4.11048345e+00
  4.42062062e+00  4.76107196e+00  5.12251001e+00  5.49560736e+00
  5.86870471e+00  6.23014277e+00  6.56126667e+00  6.84575339e+00
  7.07893924e+00  7.24683304e+00  7.34943482e+00  7.38907641e+00
  7.37508526e+00  7.32145251e+00  7.24450119e+00  7.16288614e+00
  7.09526225e+00  7.06028437e+00  7.07194366e+00  7.13723570e+00
  7.26082420e+00  7.44270915e+00  7.67356314e+00  7.94639057e+00
  8.24486845e+00  8.55733748e+00  8.86747466e+00  9.16128882e+00
  9.42712068e+00  9.65564281e+00  9.84219148e+00  9.98210299e+00
  1.00753773e+01  1.01243464e+01  1.01313419e+01  1.01056915e+01
  1.00497269e+01  9.97044369e+00  9.87483750e+00  9.76524015e+00
  9.64631537e+00  9.52272688e+00  9.39447466e+00  9.26389059e+00
  9.13330652e+00  9.00272244e+00  8.86980651e+00  8.73922244e+00
  8.60863837e+00  8.47572244e+00  8.34513837e+00  8.21455429e+00
  8.08163836e+00  7.95105429e+00  7.82047022e+00  7.68988615e+00
  7.55697022e+00  7.42638614e+00  7.29580207e+00  7.16521800e+00
  7.03230207e+00  6.90171800e+00  6.77113392e+00  6.64054985e+00
  6.50763392e+00  6.37704985e+00  6.24646578e+00  6.11588170e+00]","[ -2.5609985   -2.34819261  -2.11330308  -1.86636794  -1.60738718
  -1.340376    -1.06131922  -0.77423202  -0.47911441  -0.17797399
   0.13119684   0.44438288   0.75756891   1.06673974   1.36587256
   1.64894455   1.90993292   2.14482244   2.34759032   2.51221375
   2.63467752   2.71698924   2.75312609   2.74509568   2.692898
   2.60054828   2.4720617    2.30944587   2.11872361   1.90391011
   1.67102818   1.42610064   1.17515029   0.92219234   0.66923439
   0.42229925   0.18138691  -0.05350261  -0.28437694  -0.51324365
  -0.74010277  -0.96896949  -1.19783621  -1.42871053  -1.66159245
  -1.89447437  -2.1293639   -2.36224582  -2.59312015  -2.82198686
  -3.04683838  -3.26767468  -3.48449579  -3.69529408  -3.89806196
  -4.09480703  -4.2855293   -4.46822115  -4.6428826   -4.81553644
  -4.98417507  -5.15281371  -5.32345994  -5.49812139  -5.68081324
  -5.87555071  -6.07831859  -6.29112449  -6.5139684   -6.74283512
  -6.97170183  -7.19856095  -7.41939726  -7.62618034  -7.81891021
  -7.99557926  -8.15618748  -8.30274249  -8.43725187  -8.56573845
  -8.69221743  -8.8186964   -8.94718298  -9.07968477  -9.21218655
  -9.34468833  -9.46915971  -9.57957786  -9.67393519  -9.74420129
  -9.79037615  -9.80844458  -9.80442937  -9.78033814  -9.74018608
  -9.69401122  -9.64783636  -9.6076843   -9.57757026  -9.55950183
  -9.55347903  -9.55950183  -9.57556266  -9.59563868  -9.61772231
  -9.63980595  -9.65787437  -9.66991999  -9.67393519  -9.67393519
  -9.66590478  -9.65185156  -9.63177553  -9.60366909  -9.57154745
  -9.5354106   -9.49726615  -9.45711409  -9.42097724  -9.3888556
  -9.36677197  -9.35472635  -9.35874155  -9.37680998  -9.41294683
  -9.4651445   -9.533403    -9.61972992  -9.72412526  -9.84257383
  -9.97708321 -10.12564582 -10.28424644 -10.45288508 -10.62754652
 -10.79819276 -10.96080858 -11.10937119 -11.23585016 -11.3322151 ]",8.754496114540862,0.8440965938007216,4.288425000000001,
023,1,1,csm,42b.png,1,1,224,318,NaN,0,1,396,neu_feedback_onset,8,"[ 2.69717471e-02  1.75316356e-01  3.10175092e-01  4.24805017e-01
  5.14710840e-01  5.73149626e-01  6.00121373e-01  5.91130790e-01
  5.48425524e-01  4.69757929e-01  3.57375649e-01  2.18021622e-01
  5.39434942e-02 -1.25868153e-01 -3.19165674e-01 -5.14710840e-01
 -7.10256007e-01 -8.96810591e-01 -1.06987930e+00 -1.22721449e+00
 -1.36656852e+00 -1.48569374e+00 -1.58908543e+00 -1.67674361e+00
 -1.75541121e+00 -1.82958351e+00 -1.90375582e+00 -1.98242341e+00
 -2.06783394e+00 -2.15998741e+00 -2.25888382e+00 -2.36227552e+00
 -2.46117192e+00 -2.54883010e+00 -2.61850711e+00 -2.66346003e+00
 -2.67245061e+00 -2.64547886e+00 -2.57804949e+00 -2.47241015e+00
 -2.33305612e+00 -2.16673035e+00 -1.98017577e+00 -1.78687825e+00
 -1.59582837e+00 -1.41826437e+00 -1.26317682e+00 -1.13506102e+00
 -1.04065991e+00 -9.77725832e-01 -9.46258794e-01 -9.44011148e-01
 -9.66487604e-01 -1.00469758e+00 -1.05414578e+00 -1.10808928e+00
 -1.16652806e+00 -1.22271920e+00 -1.27666270e+00 -1.32611090e+00
 -1.37106381e+00 -1.41376908e+00 -1.45197905e+00 -1.48794138e+00
 -1.52165607e+00 -1.55312310e+00 -1.58234250e+00 -1.60706660e+00
 -1.62954305e+00 -1.64977186e+00 -1.67000067e+00 -1.68573419e+00
 -1.70146771e+00 -1.71495359e+00 -1.73068711e+00 -1.74642062e+00
 -1.76440179e+00 -1.78687825e+00 -1.81384999e+00 -1.84981232e+00
 -1.89701288e+00 -1.95769931e+00 -2.03636691e+00 -2.13526331e+00
 -2.25663617e+00 -2.40498078e+00 -2.58029714e+00 -2.78258524e+00
 -3.01184509e+00 -3.27032434e+00 -3.54903239e+00 -3.84796925e+00
 -4.16263963e+00 -4.48854825e+00 -4.81895215e+00 -5.14710840e+00
 -5.46852172e+00 -5.77644917e+00 -6.06639545e+00 -6.33161763e+00
 -6.56537277e+00 -6.76766088e+00 -6.93173900e+00 -7.05985480e+00
 -7.14751298e+00 -7.19696118e+00 -7.21269470e+00 -7.19696118e+00
 -7.14976063e+00 -7.08008361e+00 -6.98793014e+00 -6.88004315e+00
 -6.75867029e+00 -6.62605920e+00 -6.48670518e+00 -6.33836057e+00
 -6.18552067e+00 -6.02369018e+00 -5.85511677e+00 -5.67980041e+00
 -5.49324582e+00 -5.29545301e+00 -5.08642197e+00 -4.86840035e+00
 -4.64138815e+00 -4.40988065e+00 -4.18062080e+00 -3.95360859e+00
 -3.74232991e+00 -3.54678474e+00 -3.37596368e+00 -3.22986671e+00
 -3.11298914e+00 -3.02533097e+00 -2.96239689e+00 -2.92193927e+00
 -2.89946281e+00 -2.89271988e+00 -2.89721517e+00 -2.91070104e+00
 -2.92643456e+00 -2.94441572e+00 -2.96464453e+00 -2.98262570e+00
 -3.00060686e+00 -3.01634038e+00 -3.02757861e+00 -3.03656919e+00
 -3.04331213e+00 -3.04331213e+00 -3.04106448e+00 -3.03207390e+00
 -3.02308332e+00 -3.00734980e+00 -2.99161628e+00 -2.97138747e+00
 -2.95115866e+00 -2.92643456e+00 -2.89946281e+00 -2.86799577e+00
 -2.82978580e+00 -2.78033760e+00 -2.71515587e+00 -2.62974534e+00
 -2.51736306e+00 -2.37126610e+00 -2.18471151e+00 -1.95320402e+00
 -1.67674361e+00 -1.35982558e+00 -1.00694522e+00 -6.31588411e-01
 -2.49488661e-01  1.19125216e-01  4.56272055e-01  7.48465982e-01
  9.77725832e-01  1.13955631e+00  1.23170978e+00  1.25868153e+00
  1.22946214e+00  1.15978513e+00  1.06538401e+00  9.61992313e-01
  8.65343553e-01  7.79933020e-01  7.14751298e-01  6.67550741e-01
  6.36083702e-01  6.09111955e-01  5.77644917e-01  5.37187296e-01
  4.76500865e-01  3.93337978e-01  2.85450990e-01  1.55087546e-01
  6.74293677e-03 -1.52839900e-01 -3.14670383e-01 -4.69757929e-01
 -6.11359601e-01 -7.32732463e-01 -8.29381223e-01 -8.94562945e-01
 -9.30525275e-01 -9.39515857e-01 -9.23782338e-01 -8.87820009e-01
 -8.38371806e-01 -7.79933020e-01 -7.23741880e-01 -6.69798386e-01
 -6.27093120e-01 -6.00121373e-01 -5.93378436e-01 -6.04616664e-01
 -6.38331348e-01 -6.92274842e-01 -7.66447147e-01 -8.54105325e-01
 -9.55249376e-01 -1.06313636e+00 -1.17102335e+00 -1.27891034e+00
 -1.38005439e+00 -1.47220786e+00 -1.55087546e+00 -1.61605718e+00
 -1.66775303e+00 -1.70821065e+00 -1.73967769e+00 -1.75990650e+00
 -1.77788766e+00 -1.79137354e+00 -1.80261176e+00 -1.81384999e+00
 -1.82733587e+00 -1.84082174e+00 -1.85430761e+00 -1.87228878e+00
 -1.88802230e+00 -1.90600346e+00 -1.92398463e+00 -1.94196579e+00
 -1.95994696e+00 -1.97792812e+00 -1.99366164e+00 -2.01164280e+00
 -2.02512868e+00 -2.03861455e+00 -2.04760513e+00 -2.05210042e+00
 -2.04760513e+00 -2.03411926e+00 -2.00714751e+00 -1.96668989e+00
 -1.90825111e+00 -1.83183116e+00 -1.73743004e+00 -1.62504776e+00]","[-2.02025793 -1.83206952 -1.6328112  -1.42691094 -1.22101068 -1.01511042
 -0.81142414 -0.60773786 -0.40405159 -0.19593734  0.02103282  0.2490729
  0.48818287  0.73614878  0.99297061  1.25200642  1.50661427  1.75015221
  1.98040627  2.19073449  2.38113688  2.55161344  2.70437815  2.84607295
  2.97891183  3.10953672  3.24458958  3.3840704   3.53019317  3.6807439
  3.83129463  3.97520341  4.10804229  4.22316931  4.31172857  4.37593402
  4.40692976  4.40914374  4.38257597  4.32944042  4.25416505  4.16117784
  4.05269275  3.93092378  3.79808491  3.65196214  3.49255549  3.31986495
  3.12946256  2.92577628  2.71102009  2.485194    2.25272596  2.01804395
  1.78557591  1.55974982  1.34056567  1.13023745  0.92876515  0.73614878
  0.55238833  0.37526983  0.20479327  0.03874467 -0.12066198 -0.27564067
 -0.42840538 -0.57895611 -0.72950684 -0.88227154 -1.04389218 -1.21658272
 -1.40698511 -1.61731333 -1.85420933 -2.11988709 -2.41656058 -2.73980185
 -3.08961089 -3.46155975 -3.84679249 -4.24309515 -4.6393978  -5.0290585
 -5.40100736 -5.75303039 -6.07184369 -6.35744728 -6.6031992  -6.80688548
 -6.96629213 -7.08141916 -7.15669453 -7.19433221 -7.19654619 -7.16997841
 -7.11905684 -7.04820944 -6.96186417 -6.864449   -6.76260586 -6.65412077
 -6.54563569 -6.43936459 -6.3308795  -6.22239442 -6.11612332 -6.00763824
 -5.89915315 -5.79066807 -5.67775502 -5.56484198 -5.44971495 -5.33015996
 -5.21060497 -5.09104998 -4.96928101 -4.84529806 -4.7213151  -4.59733215
 -4.4733492  -4.34936625 -4.2253833  -4.10582831 -3.98627332 -3.87114629
 -3.76266121 -3.66303205 -3.5744728  -3.49919743 -3.4438479  -3.41063818
 -3.40399624 -3.42392207 -3.47705762 -3.56340289 -3.68295788 -3.83572259
 -4.01726905 -4.22316931]",-0.2797194938302038,3.2388885813914854,4.4491,
023,1,1,csp,25a.png,1,1,60,91,NaN,0,1,478,neg_feedback_onset,9,"[-1.41159113e-01 -5.36735654e-02  3.38119817e-02  1.11839632e-01
  1.78044911e-01  2.22969922e-01  2.46614664e-01  2.48979138e-01
  2.27698870e-01  1.87502808e-01  1.30755426e-01  6.69146212e-02
 -1.65513197e-03 -6.78604109e-02 -1.31701216e-01 -1.83719649e-01
 -2.28644660e-01 -2.61747299e-01 -2.85392042e-01 -2.99578887e-01
 -3.04307836e-01 -3.04307836e-01 -2.94849939e-01 -2.78298619e-01
 -2.54653876e-01 -2.21551237e-01 -1.81355175e-01 -1.34065690e-01
 -7.96827821e-02 -2.05709260e-02  4.09054045e-02  1.02381735e-01
  1.59129117e-01  2.11147550e-01  2.51343612e-01  2.82081778e-01
  2.98633097e-01  3.00997572e-01  2.89175200e-01  2.65530458e-01
  2.30063344e-01  1.82773859e-01  1.26026477e-01  5.98211985e-02
 -1.58419775e-02 -1.03327525e-01 -2.02635443e-01 -3.16130207e-01
 -4.43811816e-01 -5.85680271e-01 -7.44100046e-01 -9.16706666e-01
 -1.10113566e+00 -1.29975149e+00 -1.50546075e+00 -1.71589896e+00
 -1.92870164e+00 -2.13913985e+00 -2.34248464e+00 -2.53637153e+00
 -2.71607157e+00 -2.87922029e+00 -3.02581769e+00 -3.15586378e+00
 -3.26935854e+00 -3.36630199e+00 -3.45142306e+00 -3.52945071e+00
 -3.60274941e+00 -3.67368364e+00 -3.74698234e+00 -3.82500999e+00
 -3.91013106e+00 -4.00234556e+00 -4.09928900e+00 -4.20096140e+00
 -4.30499826e+00 -4.40667065e+00 -4.50361410e+00 -4.59582859e+00
 -4.67622072e+00 -4.74479047e+00 -4.80390233e+00 -4.84882734e+00
 -4.88192998e+00 -4.90557472e+00 -4.91739709e+00 -4.92212604e+00
 -4.91739709e+00 -4.91030367e+00 -4.89848130e+00 -4.88902340e+00
 -4.87720103e+00 -4.87010761e+00 -4.86774313e+00 -4.87247208e+00
 -4.88665893e+00 -4.90557472e+00 -4.93394841e+00 -4.96705105e+00
 -5.00488264e+00 -5.03798528e+00 -5.06399450e+00 -5.08054582e+00
 -5.08291029e+00 -5.06399450e+00 -5.02616291e+00 -4.96232210e+00
 -4.87956550e+00 -4.77789311e+00 -4.65730492e+00 -4.52489437e+00
 -4.38302591e+00 -4.23406403e+00 -4.08510216e+00 -3.93377581e+00
 -3.78008498e+00 -3.62639415e+00 -3.47033885e+00 -3.30719013e+00
 -3.13694798e+00 -2.95488347e+00 -2.75863210e+00 -2.55055837e+00
 -2.32829779e+00 -2.09657932e+00 -1.85540294e+00 -1.60713315e+00
 -1.36122782e+00 -1.11768698e+00 -8.81239552e-01 -6.54250024e-01
 -4.43811816e-01 -2.47560454e-01 -7.02248851e-02  9.05593637e-02
  2.32427819e-01  3.60109428e-01  4.71239717e-01  5.72912110e-01
  6.65126606e-01  7.52612153e-01  8.44826649e-01  9.39405618e-01
  1.04580696e+00  1.16875962e+00  1.30353465e+00  1.45486100e+00
  1.61564525e+00  1.78115845e+00  1.93721375e+00  2.07671773e+00
  2.18548355e+00  2.25168883e+00  2.26587567e+00  2.22567961e+00
  2.12637169e+00  1.97977429e+00  1.79061635e+00  1.57781367e+00
  1.35791756e+00  1.14984383e+00  9.74872732e-01  8.47191123e-01
  7.73892421e-01  7.66798998e-01  8.23546380e-01  9.37041144e-01
  1.10255434e+00  1.30117018e+00  1.52579523e+00  1.75987818e+00
  1.99396113e+00  2.21858619e+00  2.42902439e+00  2.62764023e+00
  2.81679817e+00  3.00122716e+00  3.18802063e+00  3.38900094e+00
  3.61126152e+00  3.85953131e+00  4.14090375e+00  4.45537882e+00
  4.80059206e+00  5.17654347e+00  5.57377514e+00  5.98519366e+00
  6.39897666e+00  6.80330175e+00  7.18634658e+00  7.53392429e+00
  7.83421252e+00  8.07302442e+00  8.23617315e+00  8.32129422e+00
  8.31656527e+00  8.22198630e+00  8.04228626e+00  7.77982962e+00
  7.45116770e+00  7.06339392e+00  6.63542408e+00  6.17671608e+00
  5.70145675e+00  5.22146848e+00  4.74148021e+00  4.26858536e+00
  3.80514841e+00  3.35353382e+00  2.91610609e+00  2.49522967e+00
  2.09090458e+00  1.70785975e+00  1.34609519e+00  1.01270432e+00
  7.05322668e-01  4.26314707e-01  1.80409385e-01 -3.71222457e-02
 -2.21551237e-01 -3.75242063e-01 -4.95830250e-01 -5.80951323e-01
 -6.25876333e-01 -6.25876333e-01 -5.76222374e-01 -4.72185507e-01
 -3.06672310e-01 -7.49538336e-02  2.22969922e-01  5.89463430e-01
  1.01743327e+00  1.49978602e+00  2.02706377e+00  2.58035075e+00
  3.14546009e+00  3.70347601e+00  4.23548272e+00  4.72965784e+00
  5.16945005e+00  5.54776593e+00  5.85987653e+00  6.10814632e+00
  6.29493979e+00  6.42735035e+00  6.51247142e+00  6.55976090e+00
  6.57631222e+00  6.56921880e+00  6.54557406e+00  6.50774247e+00
  6.45572404e+00  6.39424771e+00  6.32567795e+00  6.24528583e+00
  6.16016476e+00  6.06558579e+00  5.96391339e+00  5.85278310e+00]","[-3.36153166 -3.11775557 -2.82475546 -2.48956334 -2.1215552  -1.72776305
 -1.3175629  -0.89564274 -0.47372258 -0.05649042  0.34902173  0.73812588
  1.10847802  1.45304615  1.77183027  2.06951838  2.34611048  2.60395058
  2.85241467  3.09384676  3.33762285  3.59077495  3.85330305  4.13458315
  4.42992727  4.74402338  5.06983951  5.40268763  5.74022376  6.07307188
  6.39888801  6.71298412  7.01301624  7.29664034  7.56854445  7.82872854
  8.07953664  8.32800073  8.57412082  8.81789692  9.05932901  9.29372909
  9.51875318  9.72736926  9.91723333 10.08365739 10.22429744 10.33915349
 10.42822552 10.49620155 10.54542557 10.58292958 10.60871359 10.6321536
 10.65324961 10.68137762 10.71419363 10.75872965 10.81732967 10.88999369
 10.97672173 11.08220177 11.19940181 11.32832186 11.46896191 11.61428997
 11.76196202 11.90729008 12.04793013 12.17919418 12.29405022 12.39484226
 12.47453829 12.53313831 12.56595432 12.57298633 12.55189032 12.5026663
 12.42297027 12.31514623 12.17685018 12.01277012 11.82056204 11.60256996
 11.36113787 11.10095377 10.82670567 10.54073756 10.25008145  9.95708134
  9.66642523  9.38045713  9.10620902  8.84133692  8.58818483  8.35144074
  8.12641666  7.92014458  7.72793651  7.55682444  7.40212038  7.27085633
  7.16068829  7.07630426  7.01536024  6.97785622  6.96848022  6.98488823
  7.02708024  7.09740027  7.1935043   7.31773635  7.46775241  7.64355247
  7.83810455  8.05140863  8.27877671  8.5155208   8.74992089  8.98197698
  9.20465706  9.40858514  9.59376121  9.75549727  9.89379332 10.01099336
 10.1094414  10.19382543 10.26648946 10.32977748 10.39072151 10.44463353
 10.49620155 10.54073756 10.57355358 10.59464958 10.59699358 10.58292958
 10.54776957 10.49151354]",5.258708949771462,11.282203642108566,4.2292700000000005,
023,1,1,csm,18b.png,1,1,140,287,140,1,1,680,neu_feedback_onset,10,"[-1.35195295e+00 -1.05910263e+00 -7.70975699e-01 -4.94657253e-01
 -2.37232376e-01 -5.78615550e-03  1.97319711e-01  3.62638440e-01
  4.92531726e-01  5.82276179e-01  6.29510102e-01  6.34233494e-01
  5.98808052e-01  5.23233776e-01  4.12234058e-01  2.68170595e-01
  1.00490170e-01 -8.84455198e-02 -2.91551386e-01 -5.01742341e-01
 -7.14294992e-01 -9.19762555e-01 -1.11578333e+00 -1.29527224e+00
 -1.45586757e+00 -1.59756934e+00 -1.71329245e+00 -1.80539860e+00
 -1.87152609e+00 -1.91403662e+00 -1.93056850e+00 -1.92348341e+00
 -1.89750475e+00 -1.85027083e+00 -1.79122842e+00 -1.72037754e+00
 -1.64007987e+00 -1.55978220e+00 -1.47712284e+00 -1.39682517e+00
 -1.31888920e+00 -1.23622984e+00 -1.14884708e+00 -1.05201754e+00
 -9.36294428e-01 -8.01677749e-01 -6.41082413e-01 -4.54508419e-01
 -2.44317464e-01 -1.52329400e-02  2.25660065e-01  4.68914765e-01
  7.02722681e-01  9.19998725e-01  1.11129611e+00  1.26952975e+00
  1.39469965e+00  1.48444410e+00  1.54820989e+00  1.58599703e+00
  1.61197569e+00  1.63086926e+00  1.65212452e+00  1.68518827e+00
  1.73242219e+00  1.79854968e+00  1.88357074e+00  1.98748537e+00
  2.10793187e+00  2.24018686e+00  2.38188862e+00  2.53067548e+00
  2.68182403e+00  2.82824919e+00  2.97231266e+00  3.10929103e+00
  3.23682262e+00  3.35254573e+00  3.46118375e+00  3.55565160e+00
  3.64067266e+00  3.71388524e+00  3.78001273e+00  3.83905513e+00
  3.89337414e+00  3.94533146e+00  3.99965047e+00  4.05633118e+00
  4.12009697e+00  4.19094785e+00  4.26888383e+00  4.35154319e+00
  4.44128764e+00  4.53103210e+00  4.61841485e+00  4.69635083e+00
  4.76484001e+00  4.81443563e+00  4.84513768e+00  4.85458447e+00
  4.84513768e+00  4.81679733e+00  4.76956341e+00  4.71288270e+00
  4.64911690e+00  4.58062772e+00  4.50977683e+00  4.44364934e+00
  4.38224524e+00  4.32556453e+00  4.27360722e+00  4.22401160e+00
  4.17677768e+00  4.12954376e+00  4.07994814e+00  4.02562913e+00
  3.96658672e+00  3.90045923e+00  3.82724665e+00  3.74931068e+00
  3.66428962e+00  3.57454517e+00  3.48480071e+00  3.39269457e+00
  3.30295011e+00  3.21556736e+00  3.13526969e+00  3.06441880e+00
  3.00065301e+00  2.94633400e+00  2.90382347e+00  2.86839803e+00
  2.84005767e+00  2.81644071e+00  2.79990884e+00  2.78810036e+00
  2.77629188e+00  2.76684509e+00  2.75976000e+00  2.75503661e+00
  2.75031322e+00  2.74795152e+00  2.75031322e+00  2.75503661e+00
  2.76448340e+00  2.77629188e+00  2.79282375e+00  2.80935562e+00
  2.82352580e+00  2.83769598e+00  2.84478106e+00  2.84478106e+00
  2.84005767e+00  2.82824919e+00  2.81407902e+00  2.79990884e+00
  2.79046205e+00  2.79046205e+00  2.80463223e+00  2.83533428e+00
  2.88729160e+00  2.96050417e+00  3.05024863e+00  3.16124835e+00
  3.28405654e+00  3.41867322e+00  3.55801329e+00  3.69735337e+00
  3.82960835e+00  3.94769315e+00  4.04924609e+00  4.12718206e+00
  4.17913937e+00  4.20275634e+00  4.19803294e+00  4.16733089e+00
  4.11773528e+00  4.05633118e+00  3.99020368e+00  3.93116128e+00
  3.89101245e+00  3.87920397e+00  3.90754432e+00  3.97839520e+00
  4.09884171e+00  4.26888383e+00  4.48615987e+00  4.74830814e+00
  5.04588185e+00  5.37415761e+00  5.72132694e+00  6.08030475e+00
  6.43928256e+00  6.79117529e+00  7.12653614e+00  7.44300342e+00
  7.73349204e+00  7.99327861e+00  8.22236314e+00  8.41602222e+00
  8.57897925e+00  8.70887254e+00  8.81042547e+00  8.88599975e+00
  8.93795706e+00  8.97338250e+00  8.99936116e+00  9.02061643e+00
  9.04659508e+00  9.07965883e+00  9.12925445e+00  9.19774364e+00
  9.29221148e+00  9.41029629e+00  9.55435975e+00  9.72204017e+00
  9.90625247e+00  1.00999116e+01  1.02935706e+01  1.04777829e+01
  1.06431017e+01  1.07800800e+01  1.08816330e+01  1.09453988e+01
  1.09642923e+01  1.09453988e+01  1.08910798e+01  1.08036970e+01
  1.06926973e+01  1.05651657e+01  1.04258256e+01  1.02817622e+01
  1.01400604e+01  9.99835862e+00  9.85901855e+00  9.72676357e+00
  9.59450858e+00  9.46933869e+00  9.34416880e+00  9.22136060e+00
  9.10091409e+00  8.98046759e+00  8.86002109e+00  8.73957459e+00
  8.61912809e+00  8.50104328e+00  8.38059678e+00  8.26015027e+00
  8.14206547e+00  8.02161897e+00  7.90353416e+00  7.78308766e+00
  7.66264116e+00  7.54455635e+00  7.42410985e+00  7.30602504e+00
  7.18557854e+00  7.06513204e+00  6.94704723e+00  6.82660073e+00]","[-2.77758755 -2.56301389 -2.32104785 -2.05625482 -1.77091751 -1.4696013
 -1.15230621 -0.82359762 -0.48804094 -0.14791886  0.19448591  0.5300426
  0.86103388  1.18061167  1.48649327  1.77411329  2.04118901  2.28772045
  2.50914221  2.70545428  2.87665667  3.02046667  3.1414497   3.23732303
  3.31265208  3.37200225  3.41765622  3.45646209  3.49298527  3.53179114
  3.57972781  3.63907797  3.71212432  3.79886687  3.8993056   4.00887513
  4.12529276  4.23942768  4.34671451  4.44258785  4.5201996   4.57498436
  4.60009405  4.59781135  4.56357087  4.49965531  4.40606467  4.28736435
  4.14583704  3.98604815  3.81484576  3.63679527  3.45646209  3.28069431
  3.11177462  2.94970302  2.79676222  2.65295221  2.5159903   2.37902839
  2.24434918  2.10282187  1.95444647  1.79465757  1.62573788  1.4476874
  1.26050612  1.06875944  0.87473007  0.68754879  0.50721561  0.34057862
  0.19220321  0.0598067  -0.05204553 -0.15020156 -0.23466141 -0.31455586
 -0.3921676  -0.47662745 -0.57021809 -0.68207032 -0.81218413 -0.96055954
 -1.12719653 -1.30981241 -1.50384178 -1.70471925 -1.90331402 -2.0973434
 -2.27767658 -2.43746547 -2.57214469 -2.67258342 -2.73878168 -2.76845676
 -2.76160866 -2.72052009 -2.64975644 -2.5561658  -2.44203087 -2.31876515
 -2.18865134 -2.06310292 -1.94440259 -1.84168116 -1.75950402 -1.70471925
 -1.68189227 -1.69558846 -1.74809052 -1.84396386 -1.97864307 -2.15669356
 -2.37354992 -2.62921215 -2.91454946 -3.22727916 -3.56055314 -3.90752332
 -4.25905889 -4.61059446 -4.95071654 -5.27485973 -5.57617593 -5.85238245
 -6.10119659 -6.31805295 -6.50523423 -6.66274043 -6.79513694 -6.90470647
 -6.99373171 -7.06677806 -7.12612822 -7.17634759 -7.22200156 -7.26309013
 -7.30417871 -7.34526728]",9.824892040965992,3.646953282292201,4.234245,-0.0314849999999991
023,1,1,csp,40a.png,1,1,88,43,NaN,0,1,358,neg_feedback_onset,11,"[-1.85303178 -1.58525608 -1.32943465 -1.0903492  -0.86799973 -0.66477709
 -0.47589959 -0.30375806 -0.1387891   0.01661644  0.16963113  0.32264582
  0.4756605   0.62867519  0.78168988  0.92992286  1.07098327  1.20008942
  1.31245958  1.4009212   1.46069256  1.48699196  1.47981939  1.43439316
  1.35310411  1.23834309  1.09011011  0.91318688  0.71713681  0.50674161
  0.29156471  0.07877866 -0.12444398 -0.31093063 -0.47350873 -0.60978744
 -0.71976675 -0.8010558  -0.85604545 -0.88712656 -0.90147169 -0.90147169
 -0.89429913 -0.88473571 -0.87278144 -0.86321802 -0.85604545 -0.85126375
 -0.84648204 -0.84170033 -0.83452776 -0.82496435 -0.81301007 -0.8010558
 -0.79149238 -0.78671067 -0.78910153 -0.80344666 -0.83213691 -0.87278144
 -0.93016194 -0.99949673 -1.07839492 -1.16446569 -1.2529273  -1.33899806
 -1.41311455 -1.47288592 -1.51113959 -1.52070301 -1.50157617 -1.44658652
 -1.35334319 -1.22423705 -1.05687723 -0.85604545 -0.62174171 -0.36352943
 -0.0814086   0.21744822  0.53304101  0.86297893  1.20487113  1.55871759
  1.92690919  2.30705505  2.69676434  3.09364618  3.4977006   3.90175501
  4.29863685  4.68117357  5.04697431  5.39125736  5.70924101  6.00570697
  6.28065524  6.54125838  6.7922981   7.04094697  7.29198669  7.55019898
  7.81080212  8.07618697  8.33439926  8.57826642  8.79822503  8.97992997
  9.11142697  9.18793431  9.19749773  9.14489893  9.02535621  8.85321468
  8.63325607  8.37982549  8.10965893  7.83710152  7.57888923  7.3493672
  7.15809884  7.01225672  6.91184083  6.85446032  6.83294263  6.84011519
  6.85924203  6.88075972  6.89510484  6.88793228  6.85685117  6.79707981
  6.70861819  6.58907547  6.44323334  6.27587353  6.09177773  5.89572766
  5.69250503  5.48689154  5.28366891  5.08761884  4.9059139   4.74094494
  4.59749367  4.47795094  4.38470762  4.31537284  4.27233745  4.25081976
  4.25081976  4.26755575  4.29863685  4.34167224  4.39427103  4.45882411
  4.53533145  4.62140221  4.71703639  4.82223399  4.9322133   5.04697431
  5.16173533  5.27171464  5.37213053  5.46537385  5.54427205  5.61121598
  5.66620563  5.71402272  5.75944896  5.80487519  5.85747399  5.91963621
  5.99614355  6.08699602  6.19458448  6.31890891  6.45757847  6.61059316
  6.76838956  6.93335852  7.09832748  7.25851473  7.41392027  7.5597624
  7.69365025  7.81319297  7.91839057  8.00924304  8.08575039  8.1479126
  8.19572969  8.23398337  8.26267362  8.28897302  8.31049071  8.33679011
  8.36548036  8.39895233  8.437206    8.47785053  8.5161042   8.55196702
  8.57587556  8.58782983  8.58543898  8.568703    8.5424036   8.50654078
  8.46589625  8.42286087  8.3846072   8.35113524  8.32483584  8.30331815
  8.28897302  8.28180046  8.27701875  8.27462789  8.27462789  8.27701875
  8.28180046  8.28419131  8.28897302  8.29136387  8.29614558  8.30092729
  8.305709    8.31049071  8.31527242  8.31766327  8.32244498  8.32722669
  8.3320084   8.33679011  8.34157182  8.34396267  8.34874438  8.35352609
  8.3583078   8.36308951  8.36548036  8.37026207  8.37504378  8.37982549
  8.3846072   8.38938891  8.39177976  8.39656147  8.40134318  8.40612489
  8.4109066   8.41568831  8.41807916  8.42286087  8.42764258  8.43242429
  8.437206    8.44198771]","[-1.85526204 -1.59684266 -1.34262523 -1.0947107  -0.85730103 -0.63249718
 -0.42029916 -0.2249089  -0.04422543  0.11965027  0.26671821  0.40118033
  0.52093565  0.63438806  0.74153755  0.84868705  0.95793752  1.07138993
  1.19114525  1.31510251  1.44116074  1.56511801  1.68067139  1.78151797
  1.85925388  1.91177815  1.92858591  1.91177815  1.85925388  1.77311409
  1.65756071  1.52099762  1.36972775  1.21215495  1.05878411  0.91801908
  0.79196085  0.69111426  0.61547932  0.56925797  0.54824826  0.55665215
  0.59026767  0.64489291  0.71632591  0.79826376  0.88650452  0.96844237
  1.03987537  1.09029866  1.11130837  1.0945006   1.03357246  0.92432199
  0.76885017  0.56505603  0.31924247  0.03981339 -0.26272637 -0.57787195
 -0.89932044 -1.21446602 -1.51700578 -1.80273777 -2.06746006 -2.31117265
 -2.53177455 -2.73346773 -2.91415119 -3.07802689 -3.22299386 -3.35325404
 -3.46670645 -3.56335109 -3.64738991 -3.71672194 -3.77554911 -3.83017435
 -3.88059764 -3.93522288 -3.99405005 -4.06548305 -4.1474209  -4.24406555
 -4.35121504 -4.46886939 -4.59282666 -4.71888489 -4.84074118 -4.95629456
 -5.06344406 -5.15798773 -5.23992558 -5.31135858 -5.37018576 -5.41850808
 -5.46262846 -5.50044593 -5.53616243 -5.56767699 -5.60129252 -5.63280708
 -5.66222066 -5.69373522 -5.72104784 -5.74836046 -5.7735721  -5.79458181
 -5.81559151 -5.83450025 -5.84710607 -5.85550995 -5.85550995 -5.8450051
 -5.82189442 -5.78407695 -5.72735075 -5.65381678 -5.56137408 -5.45212361
 -5.33236829 -5.20420908 -5.07394891 -4.94999165 -4.83443827 -4.73569265
 -4.6537548  -4.58862472 -4.54240336 -4.50668686 -4.47727328 -4.44575872
 -4.40373931 -4.3470131  -4.26717622 -4.16002672 -4.02556461 -3.86168891
 -3.6768035  -3.47090839]",7.368733122061476,0.9837794569201362,4.182605000000001,
023,1,1,csp,49a.png,1,1,280,171,NaN,0,1,422,neg_feedback_onset,12,"[-0.95662134 -0.73507665 -0.51998473 -0.31779832 -0.1371211   0.01774508
  0.14034748  0.23498793  0.29736459  0.33393021  0.34468481  0.33393021
  0.30811918  0.26725172  0.21778057  0.16185667  0.09948002  0.03710336
 -0.02957514 -0.09840456 -0.16508305 -0.23391247 -0.30274188 -0.3715713
 -0.44040072 -0.50707921 -0.57590863 -0.64473804 -0.71356746 -0.78239688
 -0.85122629 -0.92005571 -0.98888512 -1.05771454 -1.12654396 -1.19537337
 -1.26420279 -1.3330322  -1.40186162 -1.47069104 -1.54167137 -1.61050079
 -1.68363204 -1.7567633  -1.83204547 -1.91162948 -1.99766625 -2.09015578
 -2.19124899 -2.30524771 -2.43000102 -2.57196169 -2.73328064 -2.90965601
 -3.1096915  -3.32693435 -3.56568639 -3.8237967  -4.10126528 -4.39594122
 -4.70352267 -5.02185872 -5.34664752 -5.67358725 -5.99837606 -6.3167121
 -6.61999172 -6.9082149  -7.17277797 -7.41153    -7.62016917 -7.79869547
 -7.94280706 -8.05680578 -8.13854071 -8.19231369 -8.2159738  -8.2159738
 -8.19231369 -8.14714439 -8.08261681 -7.99658004 -7.891185   -7.76643168
 -7.62016917 -7.45024655 -7.25881474 -7.04372281 -6.80927261 -6.55546414
 -6.28444832 -6.00482881 -5.71875655 -5.43268429 -5.15306479 -4.88419988
 -4.63469325 -4.40884673 -4.21096216 -4.04319046 -3.90768255 -3.80658934
 -3.73345809 -3.6904397  -3.67323235 -3.67538327 -3.6904397  -3.71409981
 -3.74206176 -3.76142004 -3.77217463 -3.76357096 -3.73130717 -3.67108143
 -3.5785919  -3.4559895  -3.30112332 -3.1204461  -2.92041061 -2.70962052
 -2.4945286  -2.28373851 -2.08370302 -1.90302581 -1.74385778 -1.60619895
 -1.49435115 -1.40616346 -1.33948496 -1.29216474 -1.26205187 -1.24699543
 -1.24484452 -1.25559911 -1.27925922 -1.31367393 -1.36099415 -1.42121989
 -1.49435115 -1.58468976 -1.6900848  -1.81053628 -1.95034603 -2.10521222
 -2.27728575 -2.46441573 -2.66445122 -2.87309039 -3.09033323 -3.30972699
 -3.52481892 -3.73130717 -3.92273898 -4.09481252 -4.24322595 -4.36582835
 -4.46261971 -4.53360005 -4.58307119 -4.61963682 -4.64544785 -4.6734098
 -4.70567359 -4.75299381 -4.81537047 -4.89925632 -5.00034952 -5.11434824
 -5.23910156 -5.36815672 -5.49075911 -5.60475783 -5.7015492  -5.77683137
 -5.82845344 -5.85426447 -5.85426447 -5.83060435 -5.78543505 -5.72090747
 -5.6456253  -5.55958853 -5.46924992 -5.37891131 -5.29287454 -5.21544145
 -5.15091387 -5.10359365 -5.0756317  -5.07132986 -5.08853721 -5.12940468
 -5.18963042 -5.27136535 -5.36385488 -5.46494808 -5.57034313 -5.66928541
 -5.75962402 -5.83490619 -5.89083009 -5.92309388 -5.93384848 -5.92094296
 -5.88867917 -5.84135895 -5.78328413 -5.72090747 -5.66498357 -5.61551243
 -5.58109772 -5.56819221 -5.57679588 -5.60905967 -5.66713449 -5.74456758
 -5.84350987 -5.95965951 -6.08656375 -6.22422258 -6.36403233 -6.50384208
 -6.63719907 -6.75980147 -6.86519651 -6.9533842  -7.01576086 -7.05232649
 -7.06093017 -7.04157189 -6.99640259 -6.93402593 -6.85659284 -6.77700882
 -6.69742481 -6.6285954  -6.57482241 -6.54255863 -6.53180403 -6.54686046
 -6.58342609 -6.64365183 -6.72323584 -6.82217813 -6.93832777 -7.06738292
 -7.20934359 -7.35990794 -7.51692505 -7.68039491 -7.84601569 -8.00948555
 -8.16865358 -8.31921793 -8.4611786  -8.58808283 -8.70208155 -8.80102384
 -8.88490969 -8.9537391 ]","[-0.81591141 -0.73381859 -0.65172577 -0.57419367 -0.49894191 -0.42597052
 -0.35071877 -0.27546702 -0.1933742  -0.10672067 -0.01094571  0.09167032
  0.19884705  0.3105845   0.42460231  0.5340594   0.63895578  0.73701109
  0.81910391  0.88295388  0.92400029  0.93768243  0.92171994  0.87383246
  0.79173964  0.68000219  0.54090047  0.38127554  0.21024883  0.03694177
 -0.13180458 -0.28458844 -0.41456874 -0.51718476 -0.59243651 -0.64032399
 -0.66312755 -0.66540791 -0.65172577 -0.62664186 -0.59699723 -0.56507224
 -0.5308669  -0.49894191 -0.46473657 -0.43053123 -0.39404553 -0.35527948
 -0.31195271 -0.26406524 -0.2138974  -0.16144921 -0.10444031 -0.04743141
  0.01185785  0.07570782  0.14411851  0.22165061  0.30374343  0.39723803
  0.49985406  0.61159151  0.73245038  0.86015032  0.99013062  1.12011092
  1.24781086  1.37095009  1.48496789  1.58986427  1.68563923  1.77229276
  1.85438558  1.9364784   2.01857122  2.10522475  2.19871935  2.30589609
  2.42447461  2.55673526  2.70267805  2.85774227  3.0219279   3.19295461
  3.36398132  3.53272767  3.69691331  3.84969717  3.99107925  4.11877919
  4.23051664  4.33085231  4.41750584  4.49275759  4.56344863  4.6272986
  4.69114857  4.7572789   4.82796994  4.90322169  4.98759486  5.07880911
  5.17914478  5.28860187  5.40718039  5.53488033  5.67398205  5.81992484
  5.97954977  6.14601576  6.32388354  6.50859238  6.69786194  6.88941185
  7.08096176  7.26339025  7.43669731  7.59404189  7.73542396  7.85400248
  7.95205779  8.0295899   8.08203809  8.11396308  8.12764521  8.12536486
  8.10940236  8.08203809  8.04783275  8.0090667   7.96802029  7.92925423
  7.89276853  7.86540426  7.84488106  7.83803999  7.84032034  7.85856319
  7.88592747  7.92241316]",-0.15791332153913568,7.374177551566458,4.6491750000000005,
023,1,1,csm,31b.png,1,1,148,134,NaN,0,1,468,neu_feedback_onset,13,"[-1.02206155e+00 -8.39957040e-01 -6.70268749e-01 -5.12996675e-01
 -3.68140816e-01 -2.37770544e-01 -1.19816488e-01 -1.42786489e-02
  7.88429742e-02  1.57479011e-01  2.23698832e-01  2.77502437e-01
  3.18889825e-01  3.47860996e-01  3.70624060e-01  3.85109646e-01
  3.95456493e-01  4.01664601e-01  4.09942078e-01  4.18219556e-01
  4.26497034e-01  4.38913250e-01  4.51329466e-01  4.63745683e-01
  4.74092530e-01  4.80300638e-01  4.82370007e-01  4.76161899e-01
  4.59606944e-01  4.32705142e-01  3.93387123e-01  3.41652888e-01
  2.77502437e-01  2.03005138e-01  1.16091623e-01  2.09006310e-02
 -8.25678391e-02 -1.92244417e-01 -3.08129104e-01 -4.28152529e-01
 -5.52314693e-01 -6.80615596e-01 -8.15124607e-01 -9.55841726e-01
 -1.10483632e+00 -1.26831651e+00 -1.44835164e+00 -1.64908048e+00
 -1.87464174e+00 -2.13124355e+00 -2.41888589e+00 -2.73963815e+00
 -3.09143095e+00 -3.47012555e+00 -3.87365258e+00 -4.29166520e+00
 -4.71588593e+00 -5.14217602e+00 -5.56018864e+00 -5.96578505e+00
 -6.35482649e+00 -6.72524362e+00 -7.07703641e+00 -7.41227426e+00
 -7.73302651e+00 -8.04550129e+00 -8.35176797e+00 -8.65389590e+00
 -8.96223194e+00 -9.27470672e+00 -9.59752835e+00 -9.93483556e+00
 -1.02845590e+01 -1.06487680e+01 -1.10274626e+01 -1.14185734e+01
 -1.18179617e+01 -1.22214887e+01 -1.26270851e+01 -1.30264734e+01
 -1.34155149e+01 -1.37921401e+01 -1.41501410e+01 -1.44874482e+01
 -1.48040618e+01 -1.50979122e+01 -1.53710690e+01 -1.56276708e+01
 -1.58697870e+01 -1.61056951e+01 -1.63374645e+01 -1.65733726e+01
 -1.68154888e+01 -1.70700213e+01 -1.73390393e+01 -1.76287510e+01
 -1.79350177e+01 -1.82599087e+01 -1.86013546e+01 -1.89510780e+01
 -1.93070096e+01 -1.96588024e+01 -2.00002483e+01 -2.03251393e+01
 -2.06231285e+01 -2.08900772e+01 -2.11218465e+01 -2.13142979e+01
 -2.14715700e+01 -2.15915934e+01 -2.16826456e+01 -2.17509348e+01
 -2.18026691e+01 -2.18481952e+01 -2.18957907e+01 -2.19537330e+01
 -2.20240916e+01 -2.21151439e+01 -2.22248204e+01 -2.23551907e+01
 -2.25021159e+01 -2.26614574e+01 -2.28270069e+01 -2.29946258e+01
 -2.31601754e+01 -2.33195168e+01 -2.34705808e+01 -2.36112979e+01
 -2.37437376e+01 -2.38699691e+01 -2.39920619e+01 -2.41120853e+01
 -2.42341781e+01 -2.43583403e+01 -2.44845718e+01 -2.46149421e+01
 -2.47453124e+01 -2.48756826e+01 -2.49998448e+01 -2.51157295e+01
 -2.52191980e+01 -2.53081808e+01 -2.53764700e+01 -2.54240655e+01
 -2.54447592e+01 -2.54406205e+01 -2.54075106e+01 -2.53412907e+01
 -2.52460998e+01 -2.51177989e+01 -2.49584574e+01 -2.47639367e+01
 -2.45383754e+01 -2.42817736e+01 -2.39941313e+01 -2.36775178e+01
 -2.33360718e+01 -2.29739322e+01 -2.25910988e+01 -2.21917105e+01
 -2.17819754e+01 -2.13618934e+01 -2.09376727e+01 -2.05113826e+01
 -2.00850925e+01 -1.96608717e+01 -1.92407898e+01 -1.88269159e+01
 -1.84192501e+01 -1.80177924e+01 -1.76266816e+01 -1.72417789e+01
 -1.68651537e+01 -1.64988753e+01 -1.61388050e+01 -1.57849429e+01
 -1.54372888e+01 -1.50958428e+01 -1.47543969e+01 -1.44170897e+01
 -1.40777131e+01 -1.37362671e+01 -1.33927518e+01 -1.30450978e+01
 -1.26933050e+01 -1.23415122e+01 -1.19876500e+01 -1.16358572e+01
 -1.12902725e+01 -1.09529653e+01 -1.06260049e+01 -1.03155995e+01
 -1.00217491e+01 -9.74859231e+00 -9.50026798e+00 -9.27677609e+00
 -9.07811663e+00 -8.90635897e+00 -8.76150311e+00 -8.64147968e+00
 -8.54421932e+00 -8.47179139e+00 -8.41591842e+00 -8.37866977e+00
 -8.35383734e+00 -8.33935175e+00 -8.32900490e+00 -8.32279679e+00
 -8.31451932e+00 -8.30417247e+00 -8.28554814e+00 -8.26278508e+00
 -8.23381391e+00 -8.19656526e+00 -8.15517787e+00 -8.11379048e+00
 -8.07447247e+00 -8.03929319e+00 -8.01653012e+00 -8.00618328e+00
 -8.01446075e+00 -8.04343192e+00 -8.09309679e+00 -8.16552472e+00
 -8.25864634e+00 -8.36832292e+00 -8.49662382e+00 -8.63527157e+00
 -8.78426617e+00 -8.94153825e+00 -9.10087969e+00 -9.26435987e+00
 -9.42577068e+00 -9.58304276e+00 -9.73617610e+00 -9.87896258e+00
 -1.00072635e+01 -1.01190094e+01 -1.02059229e+01 -1.02659347e+01
 -1.02928365e+01 -1.02845590e+01 -1.02431716e+01 -1.01686743e+01
 -1.00652058e+01 -9.94311304e+00 -9.81067339e+00 -9.67616438e+00
 -9.55407159e+00 -9.45267249e+00 -9.37817519e+00 -9.33885717e+00
 -9.33471843e+00 -9.36575897e+00 -9.43611753e+00 -9.53751663e+00
 -9.66788690e+00 -9.82308961e+00 -1.00010554e+01 -1.01914374e+01]","[nan nan nan nan nan nan nan nan nan nan nan nan nan nan nan nan nan nan
 nan nan nan nan nan nan nan nan nan nan nan nan nan nan nan nan nan nan
 nan nan nan nan nan nan nan nan nan nan nan nan nan nan nan nan nan nan
 nan nan nan nan nan nan nan nan nan nan nan nan nan nan nan nan nan nan
 nan nan nan nan nan nan nan nan nan nan nan nan nan nan nan nan nan nan
 nan nan nan nan nan nan nan nan nan nan nan nan nan nan nan nan nan nan
 nan nan nan nan nan nan nan nan nan nan nan nan nan nan nan nan nan nan
 nan nan nan nan nan nan nan nan nan nan nan nan nan nan]",0.08003286158610226,,4.832389999999999,
023,1,1,csp,37a.png,1,1,128,40,124,1,1,400,pos_feedback_onset,14,"[nan nan nan nan nan nan nan nan nan nan nan nan nan nan nan nan nan nan
 nan nan nan nan nan nan nan nan nan nan nan nan nan nan nan nan nan nan
 nan nan nan nan nan nan nan nan nan nan nan nan nan nan nan nan nan nan
 nan nan nan nan nan nan nan nan nan nan nan nan nan nan nan nan nan nan
 nan nan nan nan nan nan nan nan nan nan nan nan nan nan nan nan nan nan
 nan nan nan nan nan nan nan nan nan nan nan nan nan nan nan nan nan nan
 nan nan nan nan nan nan nan nan nan nan nan nan nan nan nan nan nan nan
 nan nan nan nan nan nan nan nan nan nan nan nan nan nan nan nan nan nan
 nan nan nan nan nan nan nan nan nan nan nan nan nan nan nan nan nan nan
 nan nan nan nan nan nan nan nan nan nan nan nan nan nan nan nan nan nan
 nan nan nan nan nan nan nan nan nan nan nan nan nan nan nan nan nan nan
 nan nan nan nan nan nan nan nan nan nan nan nan nan nan nan nan nan nan
 nan nan nan nan nan nan nan nan nan nan nan nan nan nan nan nan nan nan
 nan nan nan nan nan nan nan nan nan nan nan nan nan nan nan nan nan nan
 nan nan nan nan nan nan nan nan]","[ -0.94290364  -0.86023096  -0.7666803   -0.66225166  -0.55129622
  -0.43598959  -0.31633177  -0.19667395  -0.07919172   0.03176371
   0.13836795   0.23844541   0.32764487   0.40814195   0.47776105
   0.53867776   0.59306768   0.64093081   0.68661834   0.73013027
   0.77364221   0.81497855   0.85849048   0.89982682   0.93898756
   0.97162152   0.99772868   1.01295785   1.01948464   1.01513345
   1.00207987   0.9846751    0.96727032   0.95204114   0.94551435
   0.94986555   0.96944592   1.00425547   1.05429419   1.1152109
   1.18483      1.25662469   1.3218926    1.37845811   1.41326766
   1.42197005   1.39586289   1.33277058   1.23051753   1.08692814
   0.90635361   0.69096953   0.44947829   0.19058228  -0.07701613
  -0.34243893  -0.59263256  -0.82107022  -1.01904953  -1.18004369
  -1.3018771   -1.38454978  -1.43023731  -1.44329089  -1.42588612
  -1.38454978  -1.32580867  -1.25401398  -1.1735169   -1.08866862
  -1.00164475  -0.92114767  -0.84717738  -0.78626067  -0.74274874
  -0.72534396  -0.74057314  -0.79496306  -0.89286491  -1.04080549
  -1.2409604   -1.49332962  -1.79356197  -2.13948186  -2.5180357
  -2.9226967   -3.34041127  -3.76030145  -4.16931364  -4.55874546
  -4.91554333  -5.23753165  -5.51600804  -5.75097249  -5.94242501
  -6.09036559  -6.19696983  -6.26876452  -6.30792526  -6.32315444
  -6.31880325  -6.29922288  -6.27094012  -6.23613057  -6.19914543
  -6.16433588  -6.13170193  -6.10559476  -6.09036559  -6.08601439
  -6.09471678  -6.12082394  -6.16433588  -6.22525259  -6.30357407
  -6.39930033  -6.51243136  -6.63861597  -6.77785417  -6.92579475
  -7.08026212  -7.24125628  -7.40660163  -7.57412258  -7.74381913
  -7.91351568  -8.08321223  -8.25290877  -8.42260532  -8.59447747
  -8.76199842  -8.92951937  -9.09704032  -9.26021008  -9.41685304
  -9.56914482  -9.7149098   -9.8476212   -9.96945462 -10.07605886]",,0.48009981637964555,4.38843,0.28872500000000034
023,2,1,csm,10b.png,1,1,292,88,NaN,0,1,284,neu_feedback_onset,1,"[ 0.43687313  0.1551649  -0.07696269 -0.25950962 -0.39247591 -0.48262255
 -0.52994953 -0.53896419 -0.51642753 -0.46459322 -0.38571491 -0.28429995
 -0.16034833 -0.02062104  0.1348819   0.30390684  0.48420011  0.67125438
  0.86506964  1.06113857  1.26171484  1.46454477  1.66737469  1.87245829
  2.08204921  2.29614747  2.51475306  2.74237331  2.9812619   3.22916514
  3.48833672  3.75877662  4.03597752  4.31543209  4.59263299  4.85856556
  5.10646881  5.3250744   5.509875    5.65410962  5.75101725  5.8005979
  5.80285156  5.76453924  5.6879146   5.58424597  5.46254802  5.33408906
  5.20563011  5.08393215  4.97800986  4.89011689  4.82250691  4.77292626
  4.74137494  4.72785294  4.72559928  4.73461394  4.74813594  4.7706726
  4.79546292  4.82025324  4.8495509   4.87884856  4.90814621  4.9351902
  4.96448786  4.98927818  5.01181484  5.0275905   5.03660517  5.03660517
  5.02082951  4.98477085  4.92392187  4.83377524  4.70756995  4.54305234
  4.33571508  4.08555817  3.79032794  3.45453173  3.08042319  2.67927067
  2.25332782  1.81386297  1.3698908   0.93042595  0.5044831   0.10107691
 -0.27528529 -0.61558883 -0.91307273 -1.16999064 -1.3773279  -1.53959184
 -1.65678246 -1.72664611 -1.75819743 -1.75143643 -1.70861678 -1.63649947
 -1.53733817 -1.41564022 -1.27365927 -1.11590266 -0.95138505 -0.78461377
 -0.62234983 -0.47360788 -0.34740259 -0.2482413  -0.18513865 -0.16034833
 -0.17387032 -0.22119731 -0.30007561 -0.40374424 -0.52093487 -0.64939382
 -0.77785277 -0.9018044  -1.01899502 -1.12266365 -1.21055662 -1.2849276
 -1.33676191 -1.3705669  -1.38408889 -1.3773279  -1.34803024 -1.30295692
 -1.24436161 -1.17675163 -1.10688799 -1.03927802 -0.9806827  -0.93110205
 -0.89053607 -0.85898475 -0.83419442 -0.80489677 -0.76883811 -0.7170038
 -0.64263282 -0.54121786 -0.40825157 -0.24373396 -0.0499187   0.16868689
  0.40532181  0.65322505  0.89887463  1.13776321  1.35862247  1.55694507
  1.72371634  1.86118996  1.96711225  2.04599056  2.10458587  2.14515186
  2.18121051  2.21952283  2.26459615  2.32319146  2.3998161   2.48770907
  2.58912403  2.69279266  2.79195396  2.87759327  2.93844224  2.96548623
  2.95647157  2.90689092  2.81674429  2.690539    2.53728972  2.36375745
  2.18346418  2.00317091  1.83414597  1.68089669  1.55018407  1.43524711
  1.34059314  1.25720751  1.18283653  1.10846556  1.03184092  0.94620162
  0.85605498  0.76140101  0.66449338  0.57434675  0.49772211  0.43912679
  0.40532181  0.40081447  0.43011213  0.49321478  0.58561508  0.70731303
  0.85154765  1.01381159  1.18734386  1.37214446  1.56370606  1.76428233
  1.96936592  2.18121051  2.40432343  2.63645102  2.87759327  3.12549651
  3.37790709  3.62355667  3.86019158  4.07654351  4.26585144  4.42586172
  4.54981334  4.63770631  4.68954062  4.70982362  4.70306262  4.67601863
  4.63094531  4.57460366  4.50924735  4.43938371  4.36050541  4.27711977
  4.18697314  4.09457283  4.00217253  3.9120259   3.82864026  3.75877662
  3.70468864  3.67088365  3.65961532  3.66637632  3.69116664  3.7339863
  3.78582061  3.84216226  3.90075757  3.95484555  3.99991887  4.03147019
  4.04724585  4.04273852  4.01344086  3.95935288  3.88047458  3.77680595
  3.65060066  3.50185871]","[ -1.52800042  -1.29927525  -1.09381027  -0.90772878  -0.73715408
  -0.58014782  -0.43089496  -0.28939549  -0.15371107  -0.01996499
   0.11184273   0.24365045   0.37545818   0.50532755   0.63713528
   0.768943     0.90268907   1.03449679   1.16630452   1.29423554
   1.41828987   1.52877576   1.62763155   1.70322716   1.75362423
   1.77300772   1.75556258   1.69935046   1.60437136   1.47062529
   1.30005059   1.09846231   0.87167549   0.62550518   0.36382808
   0.09633594  -0.17309455  -0.4405867   -0.7022638   -0.9600642
  -1.20817285  -1.44852811  -1.68306833  -1.90985515  -2.13276527
  -2.35373704  -2.57083211  -2.78986554  -3.01083731  -3.23956248
  -3.47991774  -3.73771814  -4.01684038  -4.3230995   -4.6642489
  -5.04416528  -5.46478699  -5.92417567  -6.42233133  -6.94956222
  -7.5000533   -8.06023613  -8.61848061  -9.16121829  -9.67875744
 -10.15946796 -10.60141151 -11.00264972 -11.36318261 -11.68882522
 -11.9853926  -12.26257649 -12.52619194 -12.78399234 -13.03985439
 -13.29571644 -13.55157849 -13.80356385 -14.04585746 -14.27264428
 -14.47810926 -14.65643735 -14.80181352 -14.91229941 -14.98789501
 -15.02666199 -15.03247704 -15.00921685 -14.95881978 -14.88903922
 -14.79987517 -14.69714268 -14.5827801  -14.46066412 -14.33079474
 -14.19123362 -14.04779581 -13.89466625 -13.73765999 -13.57096198
 -13.39844893 -13.21818249 -13.03016265 -12.83632776 -12.63667783
 -12.4292745  -12.21993282 -12.00865279 -11.79543441 -11.58803108
 -11.38838115 -11.20036131 -11.03172496 -10.88828714 -10.7758629
 -10.7002673  -10.66731537 -10.67700711 -10.73321923 -10.83207502
 -10.96775944 -11.13445745 -11.32635399 -11.53181897 -11.74697569
 -11.96407077 -12.17922749 -12.38663082 -12.58628075 -12.77236225
 -12.94681365 -13.10575825 -13.24725772 -13.37131205 -13.47404454
 -13.55933189 -13.6232974  -13.66981778 -13.70083136 -13.71633815]",4.475893099613155,0.3899473350610208,4.437215,
023,2,1,csm,2b.png,1,1,264,237,NaN,0,1,295,neu_feedback_onset,2,"[-0.87095033 -0.79165641 -0.70070163 -0.60275033 -0.49780251 -0.39052251
 -0.27857817 -0.16663382 -0.05468948  0.05725487  0.16453487  0.26481834
  0.35344095  0.43040268  0.48870703  0.52835399  0.5446792   0.54001486
  0.51436094  0.46771747  0.40708095  0.33711573  0.26715052  0.20184965
  0.14820965  0.11789139  0.11089487  0.13188443  0.18319226  0.26248617
  0.36276964  0.48171051  0.60998007  0.73824963  0.85952267  0.9644705
  1.04842876  1.09973658  1.11839397  1.10206875  1.04842876  0.96213832
  0.84319746  0.70093485  0.53535051  0.35577312  0.16686704 -0.02670339
 -0.21560947 -0.40218338 -0.58176077 -0.74967729 -0.90593293 -1.05052771
 -1.18346162 -1.30473466 -1.41201466 -1.50296944 -1.57993118 -1.63823552
 -1.67788248 -1.6942077  -1.68954335 -1.66155726 -1.61024944 -1.5332877
 -1.43300422 -1.30939901 -1.16247206 -0.99222337 -0.80098511 -0.58875729
 -0.35320773 -0.10133295  0.16686704  0.45139225  0.74757833  1.05076093
  1.35860788  1.66645483  1.9719696   2.27282003  2.56667394  2.84886697
  3.11939914  3.37360609  3.61148782  3.82604782  4.0149539   4.17587389
  4.30414346  4.39743041  4.45340258  4.47439215  4.46273128  4.4254165
  4.36477998  4.29248259  4.21552085  4.13855911  4.07325825  4.02195042
  3.99163216  3.98230346  3.99396433  4.02894694  4.08491911  4.15954868
  4.25283563  4.36477998  4.49071737  4.62831562  4.77524258  4.93149822
  5.08775387  5.24400952  5.39560082  5.53553125  5.66613299  5.78274168
  5.88535733  5.97631211  6.0579382   6.13256776  6.20486515  6.27249819
  6.34246341  6.40776427  6.47073297  6.52437297  6.56868427  6.59900253
  6.6106634   6.60366688  6.57801296  6.53603384  6.47772949  6.40776427
  6.33080254  6.25150862  6.16988254  6.0929208   6.02062341  5.95299037
  5.8970182   5.85037472  5.81539211  5.79440255  5.7897382   5.80139907
  5.82938516  5.87369646  5.93200081  5.99963385  6.07193124  6.14422863
  6.20486515  6.25150862  6.27716254  6.27483036  6.24684428  6.1908721
  6.10691385  6.0042982   5.88535733  5.75941994  5.63348255  5.51220951
  5.40726169  5.31863908  5.25333822  5.21369126  5.19969822  5.21369126
  5.24867387  5.30697821  5.38160778  5.47023038  5.57284603  5.6824582
  5.7990669   5.92733646  6.06260254  6.2095295   6.37044949  6.55002688
  6.74826166  6.967486    7.20769991  7.46423903  7.7347712   8.01696423
  8.30615379  8.59534335  8.88220073  9.16439377  9.43725811  9.70312593
  9.95733288 10.19754679 10.42143548 10.62666678 10.80624416 10.95550329
 11.06744763 11.14440937 11.17939198 11.17705981 11.1420772  11.0791085
 10.99748242 10.90419546 10.81090851 10.71995373 10.63599547 10.56369808
 10.50539374 10.45641808 10.41677113 10.38645287 10.36079896 10.33747722
 10.31182331 10.28150505 10.24185809 10.19055026 10.12058505 10.02963027
  9.9106894   9.76143028  9.57952071  9.36262855  9.11075377  8.83089291
  8.52304596  8.19654162  7.85837641  7.51554685  7.17504947  6.84854513
  6.54303036  6.26316949  6.01595907  5.7990669   5.61948951  5.47023038
  5.34895734  5.25100604  5.17171213  5.09941474  5.02944953  4.95715214
  4.8708617   4.77057823  4.65396953  4.51870345  4.36477998  4.19686346
  4.0149539   3.82604782]","[-5.84384494e-01 -4.35235132e-01 -2.94732109e-01 -1.62875427e-01
 -4.39882539e-02  6.19294091e-02  1.48392808e-01  2.19725111e-01
  2.69441565e-01  2.95380585e-01  2.99703755e-01  2.82411075e-01
  2.43502546e-01  1.87301337e-01  1.15969033e-01  3.81519746e-02
 -4.39882539e-02 -1.26128482e-01 -2.01783956e-01 -2.68793090e-01
 -3.31479054e-01 -3.83357093e-01 -4.33073547e-01 -4.76305246e-01
 -5.19536945e-01 -5.60607060e-01 -6.01677174e-01 -6.38424118e-01
 -6.73009477e-01 -6.98948497e-01 -7.16241177e-01 -7.20564347e-01
 -7.11918007e-01 -6.90302157e-01 -6.57878383e-01 -6.14646684e-01
 -5.69253399e-01 -5.23860115e-01 -4.84951586e-01 -4.54689396e-01
 -4.39558302e-01 -4.39558302e-01 -4.54689396e-01 -4.87113171e-01
 -5.34668040e-01 -5.93030834e-01 -6.57878383e-01 -7.29210686e-01
 -8.00542990e-01 -8.74036879e-01 -9.45369182e-01 -1.01237832e+00
 -1.07722587e+00 -1.13775024e+00 -1.19611304e+00 -1.25231425e+00
 -1.30635387e+00 -1.36039349e+00 -1.41659470e+00 -1.47495750e+00
 -1.53980505e+00 -1.61329894e+00 -1.69760075e+00 -1.80135683e+00
 -1.92240558e+00 -2.07155495e+00 -2.24664333e+00 -2.45415548e+00
 -2.69192983e+00 -2.95996637e+00 -3.25394192e+00 -3.56304857e+00
 -3.87863997e+00 -4.19206979e+00 -4.48820693e+00 -4.75840505e+00
 -4.99185623e+00 -5.18207571e+00 -5.32906348e+00 -5.42849639e+00
 -5.48902077e+00 -5.51063662e+00 -5.50199028e+00 -5.47172809e+00
 -5.42633481e+00 -5.37229518e+00 -5.31393239e+00 -5.25773118e+00
 -5.20585314e+00 -5.15829827e+00 -5.11938974e+00 -5.08480438e+00
 -5.05238061e+00 -5.01779525e+00 -4.98104830e+00 -4.93565502e+00
 -4.87729223e+00 -4.80163675e+00 -4.70868860e+00 -4.59196301e+00
 -4.45362157e+00 -4.28934112e+00 -4.10560639e+00 -3.90241741e+00
 -3.68409733e+00 -3.45713091e+00 -3.22800290e+00 -3.00103648e+00
 -2.78487798e+00 -2.58385058e+00 -2.40227745e+00 -2.24232016e+00
 -2.10181714e+00 -1.98076838e+00 -1.87268913e+00 -1.77541781e+00
 -1.68246965e+00 -1.58735992e+00 -1.48792701e+00 -1.37768617e+00
 -1.25447583e+00 -1.12045756e+00 -9.73469787e-01 -8.17835670e-01
 -6.55716798e-01 -4.89274756e-01 -3.22832714e-01 -1.58552257e-01
 -7.56554736e-04  1.48392808e-01  2.91057415e-01  4.22914098e-01
  5.46124440e-01  6.65011613e-01  7.75252446e-01  8.83331694e-01
  9.91410942e-01  1.10165178e+00  1.21621578e+00  1.33726454e+00]",9.902585098108705,0.05750330658165513,4.287845000000001,
023,2,1,csp,27a.png,1,1,300,340,NaN,0,0,334,neg_feedback_onset,3,"[nan nan nan nan nan nan nan nan nan nan nan nan nan nan nan nan nan nan
 nan nan nan nan nan nan nan nan nan nan nan nan nan nan nan nan nan nan
 nan nan nan nan nan nan nan nan nan nan nan nan nan nan nan nan nan nan
 nan nan nan nan nan nan nan nan nan nan nan nan nan nan nan nan nan nan
 nan nan nan nan nan nan nan nan nan nan nan nan nan nan nan nan nan nan
 nan nan nan nan nan nan nan nan nan nan nan nan nan nan nan nan nan nan
 nan nan nan nan nan nan nan nan nan nan nan nan nan nan nan nan nan nan
 nan nan nan nan nan nan nan nan nan nan nan nan nan nan nan nan nan nan
 nan nan nan nan nan nan nan nan nan nan nan nan nan nan nan nan nan nan
 nan nan nan nan nan nan nan nan nan nan nan nan nan nan nan nan nan nan
 nan nan nan nan nan nan nan nan nan nan nan nan nan nan nan nan nan nan
 nan nan nan nan nan nan nan nan nan nan nan nan nan nan nan nan nan nan
 nan nan nan nan nan nan nan nan nan nan nan nan nan nan nan nan nan nan
 nan nan nan nan nan nan nan nan nan nan nan nan nan nan nan nan nan nan
 nan nan nan nan nan nan nan nan]","[-3.47481315 -3.14728435 -2.79301851 -2.41869989 -2.03101274 -1.63664134
 -1.23781376 -0.84344235 -0.45129903 -0.06806806  0.30402248  0.66720066
  1.01923842  1.36236382  1.6921207   2.01296524  2.32266934  2.62346109
  2.91088432  3.18716711  3.45008138  3.69739904  3.92689201  4.1341041
  4.32126341  4.48391377  4.62205517  4.73345952  4.822583    4.88496944
  4.925075    4.9428997   4.93844353  4.91170648  4.86268857  4.79584595
  4.70895056  4.60423047  4.48614186  4.35468472  4.21654332  4.07617384
  3.93803244  3.80657531  3.68625861  3.5837666   3.50132738  3.43894095
  3.39883538  3.38101068  3.3787826   3.38769494  3.40329155  3.41666008
  3.41888816  3.40551964  3.36987025  3.30525572  3.21167607  3.08913128
  2.94207754  2.77719909  2.60118022  2.42070517  2.24468629  2.08426402
  1.94389454  1.82803401  1.74113862  1.68098027  1.64310279  1.62527809
  1.61859383  1.61413766  1.60076914  1.56734783  1.50718948  1.40915365
  1.26878417  1.07716868  0.83653528  0.54465588  0.21044282 -0.15941963
 -0.55156295 -0.95707479 -1.36035854 -1.7458176  -2.10231153 -2.42092798
 -2.69498268 -2.92001947 -3.09381026 -3.22081122 -3.30770662 -3.35895262
 -3.38123349 -3.38346158 -3.37232114 -3.35226836 -3.33221558 -3.30993471
 -3.29211001 -3.27874149 -3.26982914 -3.26314488 -3.26314488 -3.26760105
 -3.2765134  -3.28988192 -3.30993471 -3.33444366 -3.36563688 -3.40351436
 -3.45030419 -3.50823445 -3.57507706 -3.65306011 -3.74441168 -3.84913177
 -3.97167656 -4.10758987 -4.26355596 -4.43734675 -4.62450606 -4.82726198
 -5.03893025 -5.25505469 -5.47117914 -5.68061932 -5.87891907 -6.0616222
 -6.22204447 -6.36241395 -6.47604639 -6.56739796 -6.63201249 -6.67434614
 -6.69662701 -6.69662701]",,3.720292636952115,4.7768049999999995,
023,2,1,csp,41a.png,1,1,296,271,NaN,0,0,396,neg_feedback_onset,4,"[-0.74636327 -0.7131863  -0.66579064 -0.60654605 -0.53308277 -0.45487992
 -0.36482815 -0.2724066  -0.1728757  -0.07097501  0.03329546  0.13756592
  0.23946661  0.34136729  0.43615863  0.52858018  0.6115226   0.68972545
  0.76081895  0.82243332  0.8816779   0.93381314  0.98357859  1.03097425
  1.07836992  1.12576559  1.17079147  1.21581736  1.25610367  1.29402021
  1.32482739  1.35326479  1.37696262  1.39592089  1.41724894  1.44568634
  1.48123309  1.53099854  1.59498269  1.67792511  1.7798258   1.89831497
  2.02865305  2.16610049  2.30828749  2.44573492  2.57607301  2.69456218
  2.80120243  2.89362398  2.97419661  3.0476599   3.11638362  3.18747712
  3.26804975  3.3604713   3.47185112  3.60218921  3.75859491  3.93869844
  4.14013003  4.36288967  4.60460757  4.85817439  5.12122034  5.39137565
  5.66390073  5.93405604  6.19710199  6.44829903  6.68527737  6.90092765
  7.09051032  7.24454624  7.36303541  7.43886848  7.46730588  7.45071739
  7.38436346  7.27298364  7.1213175   6.92936505  6.7089752   6.46251773
  6.20184156  5.92694669  5.65205182  5.37478716  5.10700164  4.84869526
  4.60223779  4.36999902  4.15434873  3.95528693  3.76807404  3.59744964
  3.44104394  3.30122672  3.17325842  3.06661817  2.9765664   2.91021246
  2.86992615  2.85807723  2.87466571  2.92206138  2.99552466  3.09505557
  3.21591452  3.35099217  3.49317917  3.63773596  3.77992296  3.91026104
  4.02638043  4.12828111  4.21359331  4.28468682  4.33919183  4.38421772
  4.41976447  4.45057165  4.47900905  4.50507667  4.53351407  4.56195147
  4.59512844  4.63304497  4.67333129  4.71835717  4.77049241  4.83210677
  4.89846071  4.97429377  5.05486641  5.14254839  5.23260016  5.31791236
  5.398485    5.46246915  5.50512525  5.51934395  5.49564612  5.43403175
  5.32502171  5.17098579  4.97192399  4.73257587  4.457681    4.16145808
  3.85338624  3.54531441  3.24909148  2.97893618  2.74195784  2.54289604
  2.39122991  2.27985009  2.21349615  2.18268897  2.18505875  2.20875659
  2.25378247  2.31302705  2.38175077  2.45995362  2.55000539  2.64953629
  2.76802546  2.9054729   3.06661817  3.25383105  3.4742209   3.72778772
  4.01216173  4.3297127   4.67333129  5.04064771  5.42455261  5.82030644
  6.22079983  6.61655365  7.00282834  7.37251454  7.71850291  8.03842367
  8.3322768   8.59769254  8.83941045  9.05506073  9.24938297  9.42711672
  9.58826199  9.73755834  9.87500578 10.00060429 10.1143539  10.21151501
 10.29445743 10.3560718  10.3987279  10.41768617 10.4129466  10.38924877
 10.34659267 10.2849783  10.20677545 10.11909346 10.01719278  9.90581296
  9.78021444  9.64513679  9.49821022  9.34180452  9.17591968  9.00766506
  8.83941045  8.68300474  8.54318752  8.42943792  8.34649551  8.30146962
  8.29436027  8.32279767  8.37967247  8.46024511  8.55740622  8.65693713
  8.75409824  8.84178023  8.91287373  8.96500896  8.99818593  9.00766506
  8.99818593  8.97211831  8.92709243  8.86547806  8.78964499  8.69959323
  8.59769254  8.48394294  8.36308399  8.2327459   8.10240782  7.97206973
  7.84410143  7.7208727   7.60949288  7.50522241  7.41517064  7.33696779
  7.27298364  7.22084841  7.18767144  7.16871317  7.17108296  7.19004122
  7.23032754  7.29194191]","[-0.90287561 -0.84559913 -0.79933736 -0.76409029 -0.73324911 -0.70020498
 -0.65834909 -0.60327555 -0.52396966 -0.41822846 -0.28384902 -0.12083135
  0.06862163  0.28450991  0.51802171  0.76915706  1.02910416  1.29566009
  1.56221603  1.82656902  2.08211024  2.32223087  2.54032209  2.72977507
  2.88398098  2.98972218  3.04479572  3.03818689  2.96548982  2.82450156
  2.61522211  2.34426029  2.01822494  1.64592781  1.2427895   0.81982471
  0.39685993 -0.01729309 -0.40721375 -0.76188735 -1.07470505 -1.33905804
 -1.55274338 -1.71576106 -1.82590814 -1.88979344 -1.90961992 -1.88979344
 -1.8347199  -1.75100812 -1.64306398 -1.51749631 -1.38311688 -1.2465345
 -1.11215506 -0.98879033 -0.88304914 -0.79713441 -0.73545205 -0.69800204
 -0.68698733 -0.69800204 -0.73104617 -0.78171382 -0.84559913 -0.92049914
 -1.00641386 -1.09893741 -1.19586684 -1.29499921 -1.39633453 -1.49326396
 -1.5857875  -1.67170222 -1.74880518 -1.81269049 -1.86556108 -1.90521403
 -1.93385227 -1.95588169 -1.96909934 -1.97570816 -1.98011405 -1.98231699
 -1.98231699 -1.98451993 -1.98451993 -1.98672287 -1.98892581 -1.9933317
 -1.99994052 -2.00875229 -2.02196994 -2.03959347 -2.06162289 -2.08585524
 -2.11229054 -2.14313172 -2.17176996 -2.19600232 -2.21803174 -2.23124939
 -2.23785821 -2.23124939 -2.21362585 -2.18498761 -2.14313172 -2.08805818
 -2.02196994 -1.94486698 -1.85674932 -1.75981989 -1.65407869 -1.54172867
 -1.42276982 -1.2994051  -1.16943154 -1.03284916 -0.8918609  -0.74646676
 -0.59666673 -0.44025788 -0.27944314 -0.1186284   0.04438927  0.20079813
  0.34839521  0.48057171  0.59732761  0.68764822  0.75373646  0.78898353
  0.79559235  0.77576588  0.73390999  0.67002468  0.59292173  0.50700701
  0.42109228  0.33958345]",9.305428344267899,0.8166304466353873,4.219795,
023,2,1,csm,27b.png,1,1,156,119,NaN,0,1,451,neu_feedback_onset,5,"[ 2.20418906  2.03969734  1.83408268  1.59648353  1.3337537   1.0504624
  0.75803268  0.46331835  0.17545784 -0.09641043 -0.35000183 -0.58074716
 -0.78636181 -0.96684578 -1.12676829 -1.26841393 -1.39635194 -1.51515152
 -1.62938188 -1.73904302 -1.84641956 -1.9537961  -2.05660343 -2.15484154
 -2.24165661 -2.31704865 -2.37873305 -2.4267098  -2.45640969 -2.47011734
 -2.47468655 -2.46554812 -2.45412509 -2.43813284 -2.42442519 -2.41528676
 -2.41300216 -2.42214059 -2.44498666 -2.48154037 -2.53408634 -2.60490916
 -2.69400885 -2.80138539 -2.92475418 -3.06183061 -3.21489929 -3.37710641
 -3.54616734 -3.71979749 -3.89342764 -4.06477318 -4.23154951 -4.38918741
 -4.53768688 -4.67476331 -4.80041671 -4.90779325 -4.99689293 -5.06314654
 -5.10198487 -5.1111233  -5.08827722 -5.02430822 -4.9215009  -4.77757064
 -4.59251745 -4.37319516 -4.12188836 -3.84545089 -3.55530577 -3.25602222
 -2.95902328 -2.66887817 -2.39700991 -2.1434185  -1.91038857 -1.69792009
 -1.50372848 -1.3209599  -1.14504514 -0.96684578 -0.77950799 -0.57846255
 -0.35685565 -0.11697189  0.14347333  0.41534159  0.69177907  0.96364733
  1.21495413  1.43884563  1.62389882  1.75869065  1.84322111  1.87520561
  1.86149797  1.808952    1.73127536  1.64446028  1.56449903  1.50966846
  1.48910699  1.51423767  1.58962971  1.7129985   1.88205944  2.08082027
  2.29557335  2.51261103  2.71137186  2.87814819  2.99923237  3.06320137
  3.06777059  3.01294002  2.90327887  2.75021018  2.565157    2.36182695
  2.1539277   1.95288226  1.77011368  1.61019118  1.47768396  1.37259202
  1.29034616  1.23094638  1.18525423  1.14870052  1.1121468   1.07102387
  1.02076251  0.95679351  0.87911686  0.78316336  0.6712176   0.5432796
  0.40163395  0.24856527  0.09321197 -0.06214132 -0.20835618 -0.34543261
 -0.46194758 -0.55561648 -0.6241547  -0.66527763 -0.68355448 -0.67898527
 -0.6561392  -0.6241547  -0.58303177 -0.54419344 -0.50763973 -0.47565523
 -0.45280915 -0.4345323  -0.41854004 -0.40026319 -0.37741711 -0.34543261
 -0.29974047 -0.23805607 -0.15809482 -0.05985671  0.05437365  0.18688087
  0.32852652  0.4815952   0.64151771  0.80372482  0.96593194  1.12356984
  1.27663852  1.42285338  1.55992982  1.69243704  1.81580583  1.9346054
  2.05112037  2.16763534  2.28871952  2.41437292  2.55373396  2.70908725
  2.88500201  3.08376284  3.30993896  3.56124575  3.83768323  4.13925138
  4.45909639  4.79036444  5.12848631  5.46432357  5.7887378   6.09715978
  6.37816647  6.62718865  6.83965713  7.01328728  7.14350989  7.23260957
  7.28287093  7.29657857  7.27830171  7.23260957  7.17092517  7.09781774
  7.02699492  6.96302592  6.92190299  6.90819534  6.93332602  6.99729503
  7.10467156  7.25088643  7.43365501  7.64383887  7.86773038  8.0939065
  8.30865958  8.49599737  8.64449684  8.74501956  8.7907117   8.77700406
  8.70389663  8.57595862  8.39547465  8.17158314  7.9065687   7.60956976
  7.28744014  6.94017984  6.57464269  6.18854407  5.78645319  5.36608546
  4.92744087  4.47508864  4.00902877  3.53154586  3.04720912  2.55601857
  2.06254341  1.57135285  1.08244691  0.60039478  0.12519648 -0.3408634
 -0.79550024 -1.24099865 -1.67278941 -2.09315714 -2.50438645 -2.90647732
 -3.30628358 -3.70608985]","[-2.40670404 -2.18658202 -1.95325269 -1.70891725 -1.45577694 -1.19603296
 -0.93188654 -0.66553891 -0.40139249 -0.13724608  0.12690034  0.38664432
  0.64638829  0.90833349  1.17247991  1.43662632  1.70297396  1.96712037
  2.22466313  2.47119979  2.69792546  2.89823649  3.06773044  3.19540121
  3.2812488   3.32307198  3.32087076  3.2812488   3.20640731  3.10294997
  2.98408408  2.85201087  2.71773644  2.58126079  2.45359002  2.3303217
  2.21805947  2.11460212  2.02215088  1.93850451  1.86366303  1.79982764
  1.74259592  1.69196786  1.64574223  1.60171783  1.55549221  1.50706537
  1.45203486  1.3904007   1.31996165  1.24291895  1.15927258  1.073425
  0.98317497  0.89512617  0.80927858  0.72563222  0.64858951  0.57374803
  0.5055102   0.44167482  0.38664432  0.33601625  0.29639429  0.26777843
  0.24796745  0.23916257  0.23916257  0.24576623  0.25457111  0.26117477
  0.25457111  0.23476013  0.19293694  0.1224979   0.02344299 -0.10642899
 -0.26491684 -0.45202055 -0.66113647 -0.89006336 -1.12999636 -1.37653301
 -1.62306967 -1.86300266 -2.08972834 -2.30104547 -2.4903504  -2.65103947
 -2.7853139  -2.89097247 -2.96361273 -3.00983835 -3.02524689 -3.01864323
 -2.98782615 -2.93939931 -2.87776515 -2.80292366 -2.7192773  -2.62902727
 -2.5343748  -2.43752112 -2.33846621 -2.23721009 -2.13595396 -2.03249661
 -1.93124049 -1.82998436 -1.72872823 -1.62967333 -1.53061842 -1.43376474
 -1.34351471 -1.2554659  -1.17622198 -1.10358172 -1.04414877 -0.99572193
 -0.96270363 -0.94729509 -0.94949631 -0.96930729 -1.00672803 -1.06395975
 -1.1343988  -1.2224476  -1.32150251 -1.43156352 -1.54822818 -1.67149651
 -1.79696606 -1.92243561 -2.04130149 -2.15576494 -2.25922229 -2.34947231
 -2.4243138  -2.48154552]",6.943492524765129,1.8510610431362124,4.377120000000001,
023,2,1,csp,23a.png,1,1,276,180,NaN,0,0,NaN,neg_feedback_onset,6,"[ 3.81833725e-02  1.01259150e-01  1.59829515e-01  2.16147174e-01
  2.67959420e-01  3.10760840e-01  3.40046023e-01  3.53562261e-01
  3.49056848e-01  3.22024372e-01  2.70212126e-01  1.95872817e-01
  9.67537375e-02 -2.26396988e-02 -1.55549373e-01 -2.97469873e-01
 -4.41643079e-01 -5.79058166e-01 -7.07462428e-01 -8.17845039e-01
 -9.10205999e-01 -9.82292602e-01 -1.03410485e+00 -1.06564274e+00
 -1.08141168e+00 -1.08366439e+00 -1.07014815e+00 -1.04536838e+00
 -1.00707237e+00 -9.57512832e-01 -8.94437054e-01 -8.17845039e-01
 -7.29989491e-01 -6.33123118e-01 -5.31751333e-01 -4.25874135e-01
 -3.22249643e-01 -2.25383270e-01 -1.39780429e-01 -6.99465320e-02
 -1.81342861e-02  1.34036028e-02  2.69198408e-02  2.01617218e-02
 -6.87075435e-03 -4.96721749e-02 -1.08242540e-01 -1.78076437e-01
 -2.59173865e-01 -3.49282119e-01 -4.41643079e-01 -5.36256745e-01
 -6.28617706e-01 -7.16473253e-01 -7.93065269e-01 -8.58393753e-01
 -9.10205999e-01 -9.43996594e-01 -9.62018245e-01 -9.64270951e-01
 -9.53007419e-01 -9.30480356e-01 -9.01195173e-01 -8.65151872e-01
 -8.29108570e-01 -7.95317975e-01 -7.61527380e-01 -7.32242197e-01
 -7.05209721e-01 -6.78177245e-01 -6.53397475e-01 -6.26364999e-01
 -5.94827110e-01 -5.63289222e-01 -5.27245920e-01 -4.88949912e-01
 -4.46148492e-01 -4.01094365e-01 -3.53787531e-01 -3.04227992e-01
 -2.54668452e-01 -2.07361619e-01 -1.62307492e-01 -1.21758778e-01
 -9.02208891e-02 -6.99465320e-02 -6.54411193e-02 -8.12100637e-02
 -1.21758778e-01 -1.87087262e-01 -2.83953635e-01 -4.10105190e-01
 -5.65541928e-01 -7.50263848e-01 -9.59765538e-01 -1.19404700e+00
 -1.44409740e+00 -1.70541134e+00 -1.97573610e+00 -2.24380816e+00
