sub,run,cat_cond,trial_type,picture,old,response_old,target_pos,response_pos,dot_resp_loc,cat_corr,TN_corr,TN_rt,feedback_type,trial,SP_timeseries,FB_timeseries,SP_peak_response,FB_peak_response,preStim_bl,anticipation
033,1,2,csm,66a.png,1,1,192,298,192,1,1,399,neu_feedback_onset,1,"[ 0.88525671  0.88525671  0.87398315  0.85519387  0.83076781  0.8025839
  0.76876321  0.72554787  0.66918005  0.59026509  0.47940836  0.32909416
  0.12992784 -0.11996952 -0.42623471 -0.7869888  -1.19283715 -1.63626405
 -2.09848023 -2.56445426 -3.00976009 -3.41560844 -3.76133111 -4.02813882
 -4.20475801 -4.28367297 -4.26112583 -4.1427534  -3.93419244 -3.65047438
 -3.30287279 -2.90641907 -2.47614467 -2.02520206 -1.56674373 -1.11204327
 -0.67049529 -0.25149445  0.13556462  0.48504515  0.79506819  1.05999697
  1.28171043  1.46020854  1.59924918  1.70634805  1.78902086  1.85102547
  1.90175652  1.94497185  1.98818718  2.03328144  2.08025463  2.12722782
  2.17232208  2.21365849  2.24560026  2.27002631  2.27942095  2.27754202
  2.26438953  2.2418424   2.21177956  2.17795886  2.14225924  2.10843855
  2.0783757   2.05207072  2.02764466  2.00697646  1.98818718  1.96751898
  1.94497185  1.91678794  1.88108831  1.83975191  1.79089979  1.73641089
  1.67440628  1.60864382  1.5391235   1.46584532  1.39256715  1.31741005
  1.24225295  1.16521692  1.08818089  1.01302379  0.93598776  0.86270958
  0.79131034  0.72554787  0.66354326  0.60717544  0.55832332  0.51698691
  0.48692407  0.46437694  0.45310338  0.45122445  0.45874016  0.47565051
  0.50007657  0.53201833  0.56771796  0.60905436  0.65414863  0.69924289
  0.74621607  0.79131034  0.8364046   0.88149886  0.92471419  0.9660506
  1.00362915  1.04308663  1.07878625  1.11260695  1.14454871  1.17461156
  1.20091654  1.2253426   1.2460108   1.26292115  1.27419472  1.28358935
  1.28922614  1.28922614  1.28734721  1.28171043  1.27043686  1.25352651
  1.23285831  1.20279547  1.16521692  1.11824373  1.0618759   0.99611344
  0.92471419  0.84767816  0.76688428  0.68796932  0.61093329  0.53953404
  0.47565051  0.41928268  0.36855164  0.3253363   0.28587883  0.24830028
  0.21260065  0.1750221   0.13744355  0.09798607  0.05852859  0.02095004
 -0.01099173 -0.03729671 -0.05232813 -0.05420706 -0.04105457 -0.01287065
  0.03222361  0.09047036  0.16374854  0.24830028  0.34036772  0.44182981
  0.54704975  0.65602755  0.76876321  0.88337779  0.99987129  1.11824373
  1.23661616  1.35686753  1.47711889  1.5936124   1.70634805  1.81156799
  1.9073933   1.99194504  2.06522321  2.12346997  2.16856423  2.200506
  2.22305313  2.23432669  2.23808455  2.23808455  2.23432669  2.23056884
  2.22681098  2.22681098  2.22681098  2.23244776  2.2418424   2.25499489
  2.27002631  2.28505773  2.30008916  2.30948379  2.30948379  2.29821023
  2.27378417  2.23056884  2.17044315  2.0915282   1.99758182  1.89048295
  1.77211051  1.64998022  1.52784993  1.4094775   1.30237863  1.20655332
  1.12763837  1.06751269  1.02617628  1.00550808  1.00175022  1.01678164
  1.04496555  1.08254411  1.12951729  1.17836941  1.2253426   1.27043686
  1.30801541  1.33995718  1.36062538  1.37377788  1.37753573  1.37377788
  1.36250431  1.34559396  1.3211679   1.29110506  1.25540544  1.21782689
  1.17649048  1.13515408  1.09381767  1.05436019  1.01866057  0.99047666
  0.97168738  0.96417167  0.96792953  0.9867188   1.01866057  1.06563376
  1.12575944  1.19903761  1.2798315   1.36626216  1.45457176  1.5391235
  1.61615953  1.68004307]","[-0.90028164 -0.81526409 -0.73567319 -0.65789117 -0.58010915 -0.50232713
 -0.42273623 -0.33952756 -0.25270112 -0.15863914 -0.05553274  0.05480919
  0.17419554  0.3044352   0.44371928  0.5902389   0.74218517  0.89413144
  1.04065105  1.17631737  1.29570372  1.3897657   1.45488552  1.48382767
  1.47478325  1.42594338  1.33911694  1.21249505  1.05512213  0.87061594
  0.66621203  0.44914594  0.22846207  0.00958709 -0.19843459 -0.39379408
 -0.57106473 -0.72662876 -0.86048619 -0.97444589 -1.06850787 -1.14628989
 -1.2132186  -1.26929401 -1.31994277 -1.36878264 -1.41762251 -1.47008015
 -1.52615556 -1.58584874 -1.65096857 -1.71789728 -1.78844376 -1.86079913
 -1.93315449 -2.00370098 -2.07062969 -2.13394064 -2.19182493 -2.24428257
 -2.28769579 -2.32387347 -2.35100673 -2.37090446 -2.38537553 -2.39261107
 -2.39803772 -2.39984661 -2.40165549 -2.40346437 -2.40889103 -2.41974433
 -2.43421541 -2.4577309  -2.49029081 -2.53189515 -2.58797056 -2.65851704
 -2.7435346  -2.84302322 -2.96060069 -3.09084035 -3.2337422  -3.38749735
 -3.54667916 -3.70766985 -3.86504277 -4.01337127 -4.14903758 -4.26299728
 -4.35525038 -4.41856132 -4.45473901 -4.46197454 -4.44026793 -4.39142806
 -4.31907269 -4.22501072 -4.11828655 -4.00070908 -3.87951384 -3.75831861
 -3.6443589  -3.53944362 -3.44538165 -3.36398186 -3.29705315 -3.24097774
 -3.19394675 -3.15776907 -3.12701804 -3.09988477 -3.0745604  -3.04923602
 -3.02210276 -2.99496949 -2.96602735 -2.93527632 -2.90633417 -2.87920091
 -2.8574943  -2.84302322 -2.84121434 -2.85568541 -2.88824533 -2.93889408
 -3.00944057 -3.09988477 -3.20660894 -3.32780418 -3.45442607 -3.58647461
 -3.71490539 -3.83610062 -3.94463367 -4.04050453 -4.12190432 -4.18521527
 -4.23586402 -4.27385059]",1.9470386692683679,0.24135036819835198,5.322184999999999,0.008684999999999832
033,1,2,csp,32b.png,1,1,96,48,97,1,1,415,pos_feedback_onset,2,"[-7.08436057e-02 -6.13977916e-02 -5.00628147e-02 -3.87278378e-02
 -2.55036980e-02 -1.41687211e-02 -4.72290704e-03  2.83374423e-03
  6.61206986e-03  6.61206986e-03  4.72290704e-03  9.44581409e-04
 -4.72290704e-03 -8.50123268e-03 -6.61206986e-03  9.44581409e-04
  1.79470468e-02  4.25061634e-02  7.84002569e-02  1.23740165e-01
  1.76636723e-01  2.35200771e-01  2.99432307e-01  3.65553005e-01
  4.31673704e-01  4.95905240e-01  5.58247613e-01  6.18700823e-01
  6.75375707e-01  7.28272266e-01  7.77390499e-01  8.22730407e-01
  8.62402826e-01  8.96407757e-01  9.22856036e-01  9.43636827e-01
  9.56860967e-01  9.64417618e-01  9.70085107e-01  9.75752595e-01
  9.87087572e-01  1.00409004e+00  1.03620581e+00  1.08532404e+00
  1.15333390e+00  1.24401372e+00  1.35547432e+00  1.48771572e+00
  1.63884874e+00  1.80320591e+00  1.97700889e+00  2.15459019e+00
  2.32839317e+00  2.49652866e+00  2.65144001e+00  2.78934890e+00
  2.90458783e+00  2.99715681e+00  3.06327751e+00  3.10294993e+00
  3.11995239e+00  3.11239574e+00  3.08405830e+00  3.03871839e+00
  2.98204351e+00  2.91781197e+00  2.84791295e+00  2.77801392e+00
  2.71000406e+00  2.64577253e+00  2.58909764e+00  2.53997941e+00
  2.49652866e+00  2.46063457e+00  2.42851880e+00  2.40018136e+00
  2.37373308e+00  2.34728480e+00  2.31705820e+00  2.28305326e+00
  2.24149168e+00  2.18859512e+00  2.12436359e+00  2.04879708e+00
  1.95811726e+00  1.85421331e+00  1.74086354e+00  1.61806795e+00
  1.49149404e+00  1.36492014e+00  1.24401372e+00  1.13444227e+00
  1.03809497e+00  9.58750130e-01  9.00186083e-01  8.62402826e-01
  8.45400361e-01  8.47289524e-01  8.66181152e-01  9.00186083e-01
  9.45525990e-01  9.96533386e-01  1.05509743e+00  1.11555064e+00
  1.17600385e+00  1.23456790e+00  1.29313195e+00  1.34980683e+00
  1.40648172e+00  1.46315660e+00  1.52172065e+00  1.58406302e+00
  1.65018372e+00  1.72197191e+00  1.80131675e+00  1.88632907e+00
  1.97889805e+00  2.07902368e+00  2.18481680e+00  2.29627740e+00
  2.41151634e+00  2.53242276e+00  2.65521834e+00  2.77801392e+00
  2.90458783e+00  3.03116174e+00  3.15773565e+00  3.28242040e+00
  3.40899430e+00  3.53178989e+00  3.65458547e+00  3.77171357e+00
  3.88317417e+00  3.98518896e+00  4.07397962e+00  4.14954613e+00
  4.20244269e+00  4.23455846e+00  4.24211511e+00  4.22322348e+00
  4.17788357e+00  4.10987371e+00  4.02297222e+00  3.91906826e+00
  3.80382933e+00  3.68292291e+00  3.56012733e+00  3.44299923e+00
  3.33153863e+00  3.22952384e+00  3.13884402e+00  3.05761002e+00
  2.98771100e+00  2.92914695e+00  2.88002872e+00  2.83846713e+00
  2.80635137e+00  2.78368141e+00  2.76856811e+00  2.76478978e+00
  2.77045727e+00  2.78557057e+00  2.81201885e+00  2.84980211e+00
  2.89703118e+00  2.95370607e+00  3.01793760e+00  3.08972579e+00
  3.16718146e+00  3.24841546e+00  3.33153863e+00  3.41655096e+00
  3.50156328e+00  3.58657561e+00  3.66780961e+00  3.74526529e+00
  3.81894264e+00  3.88884166e+00  3.95118403e+00  4.00785892e+00
  4.05886631e+00  4.10042790e+00  4.13632199e+00  4.16277027e+00
  4.18166190e+00  4.19677520e+00  4.20622101e+00  4.21188850e+00
  4.21755599e+00  4.22511264e+00  4.23644762e+00  4.25156092e+00
  4.27234171e+00  4.29690083e+00  4.32523827e+00  4.35357571e+00
  4.37813483e+00  4.39702646e+00  4.40458311e+00  4.39513729e+00
  4.36868902e+00  4.32145995e+00  4.25533925e+00  4.16843776e+00
  4.06453380e+00  3.94929487e+00  3.82838845e+00  3.70559287e+00
  3.58846477e+00  3.48078249e+00  3.38632435e+00  3.31075784e+00
  3.25219379e+00  3.21252137e+00  3.18985142e+00  3.18418393e+00
  3.19174058e+00  3.20874305e+00  3.23330216e+00  3.26352877e+00
  3.29564454e+00  3.32964947e+00  3.35987607e+00  3.39010268e+00
  3.41277263e+00  3.42788593e+00  3.43544258e+00  3.42977510e+00
  3.41466179e+00  3.38443519e+00  3.34098444e+00  3.28619872e+00
  3.22007802e+00  3.14640067e+00  3.06516667e+00  2.98393267e+00
  2.90269867e+00  2.82713216e+00  2.75912229e+00  2.70055825e+00
  2.65710750e+00  2.62499173e+00  2.60987843e+00  2.60987843e+00
  2.62688090e+00  2.66088583e+00  2.71189322e+00  2.78179225e+00
  2.87058290e+00  2.97448686e+00  3.09161495e+00  3.21818886e+00
  3.35043026e+00  3.48267165e+00  3.60546724e+00  3.71692784e+00
  3.80949682e+00  3.87750668e+00  3.91906826e+00  3.93418157e+00]","[-2.83199600e-01 -1.68670350e-01 -6.45528500e-02  2.91529000e-02
  1.07241025e-01  1.67976233e-01  2.11358525e-01  2.37387900e-01
  2.44329067e-01  2.33917317e-01  2.07887942e-01  1.69711525e-01
  1.19388067e-01  5.86528584e-02 -7.28822500e-03 -8.01704751e-02
 -1.59993892e-01 -2.45023183e-01 -3.38728934e-01 -4.39375850e-01
 -5.48699225e-01 -6.70169642e-01 -8.00316517e-01 -9.40875142e-01
 -1.08837493e+00 -1.24108060e+00 -1.39552156e+00 -1.54822723e+00
 -1.69572702e+00 -1.83281506e+00 -1.95775606e+00 -2.06707943e+00
 -2.16078518e+00 -2.24060860e+00 -2.30481439e+00 -2.35687314e+00
 -2.39852014e+00 -2.43322598e+00 -2.46099064e+00 -2.48354943e+00
 -2.50437294e+00 -2.52346114e+00 -2.54081406e+00 -2.55816698e+00
 -2.57378460e+00 -2.58940223e+00 -2.60501985e+00 -2.62063748e+00
 -2.63451981e+00 -2.64666685e+00 -2.65707860e+00 -2.66401977e+00
 -2.66749035e+00 -2.66922564e+00 -2.66575506e+00 -2.66054919e+00
 -2.65534331e+00 -2.65013744e+00 -2.64840214e+00 -2.65534331e+00
 -2.67269623e+00 -2.70393148e+00 -2.75425494e+00 -2.82540189e+00
 -2.92257823e+00 -3.04404864e+00 -3.18981314e+00 -3.36160702e+00
 -3.55769498e+00 -3.77287114e+00 -4.00887081e+00 -4.25701752e+00
 -4.51904656e+00 -4.78628148e+00 -5.05872227e+00 -5.32769248e+00
 -5.58798623e+00 -5.83786823e+00 -6.06692673e+00 -6.27342644e+00
 -6.45042619e+00 -6.59966127e+00 -6.71592581e+00 -6.80095510e+00
 -6.85995502e+00 -6.89292556e+00 -6.90680790e+00 -6.90333731e+00
 -6.88598440e+00 -6.85995502e+00 -6.82698448e+00 -6.78707277e+00
 -6.74021990e+00 -6.68989644e+00 -6.63263181e+00 -6.57016131e+00
 -6.50248494e+00 -6.43133798e+00 -6.35845573e+00 -6.28730877e+00
 -6.22136769e+00 -6.16583835e+00 -6.12419135e+00 -6.09989727e+00
 -6.09816198e+00 -6.11898548e+00 -6.16236777e+00 -6.22830885e+00
 -6.31507344e+00 -6.41572035e+00 -6.52851431e+00 -6.64651415e+00
 -6.76624927e+00 -6.88077852e+00 -6.99010190e+00 -7.08901352e+00
 -7.17751340e+00 -7.25039565e+00 -7.31113085e+00 -7.35798373e+00
 -7.38921898e+00 -7.40483660e+00 -7.40483660e+00 -7.39095427e+00
 -7.36145431e+00 -7.31633673e+00 -7.25733681e+00 -7.18792515e+00
 -7.10636644e+00 -7.01960185e+00 -6.92936669e+00 -6.83739623e+00
 -6.74716106e+00 -6.66386706e+00 -6.58577894e+00 -6.51810256e+00
 -6.45910265e+00 -6.41224977e+00 -6.37407335e+00 -6.34457340e+00]",3.965872273701888,-0.2940451731126949,5.293350000000001,0.46236999999999906
033,1,2,csp,20b.png,1,1,220,300,221,1,1,303,pos_feedback_onset,3,"[ 3.16895536e-01  3.48399770e-01  3.78050814e-01  4.03995478e-01
  4.20674191e-01  4.28086952e-01  4.22527381e-01  4.02142288e-01
  3.61372102e-01  3.03923204e-01  2.26089213e-01  1.29723319e-01
  1.48255221e-02 -1.14897797e-01 -2.57593447e-01 -4.13261430e-01
 -5.78195363e-01 -7.50542058e-01 -9.30301514e-01 -1.11191416e+00
 -1.29538000e+00 -1.47884583e+00 -1.65860529e+00 -1.83280517e+00
 -1.99959230e+00 -2.15526028e+00 -2.29980912e+00 -2.43138563e+00
 -2.54998981e+00 -2.65562165e+00 -2.74828117e+00 -2.82796835e+00
 -2.90024277e+00 -2.96510443e+00 -3.02255333e+00 -3.07814903e+00
 -3.12818517e+00 -3.17266174e+00 -3.20972554e+00 -3.23567021e+00
 -3.24678935e+00 -3.24122978e+00 -3.21528511e+00 -3.16339579e+00
 -3.08741498e+00 -2.98734271e+00 -2.86503215e+00 -2.72233650e+00
 -2.56481533e+00 -2.39617502e+00 -2.22197513e+00 -2.04592205e+00
 -1.87542855e+00 -1.71049462e+00 -1.55482663e+00 -1.41027779e+00
 -1.27684809e+00 -1.15453754e+00 -1.04149293e+00 -9.37714275e-01
 -8.39495191e-01 -7.46835678e-01 -6.59735735e-01 -5.76342173e-01
 -4.98508182e-01 -4.28086952e-01 -3.66931673e-01 -3.16895536e-01
 -2.77978540e-01 -2.53887067e-01 -2.40914735e-01 -2.40914735e-01
 -2.52033876e-01 -2.70565779e-01 -2.94657252e-01 -3.20601916e-01
 -3.44693390e-01 -3.65078483e-01 -3.79904005e-01 -3.83610385e-01
 -3.78050814e-01 -3.59518912e-01 -3.26161487e-01 -2.81684921e-01
 -2.20529642e-01 -1.46402031e-01 -5.93020885e-02  4.07701859e-02
  1.51961602e-01  2.72418969e-01  4.00289098e-01  5.30012416e-01
  6.59735735e-01  7.83899483e-01  9.00650470e-01  1.00442912e+00
  1.09152907e+00  1.16195030e+00  1.21383962e+00  1.24534386e+00
  1.25646300e+00  1.25090343e+00  1.22866515e+00  1.19345453e+00
  1.14341839e+00  1.08411631e+00  1.01554827e+00  9.37714275e-01
  8.50614333e-01  7.56101629e-01  6.50469784e-01  5.37425177e-01
  4.15114620e-01  2.83538111e-01  1.46402031e-01  3.70638053e-03
 -1.42695651e-01 -2.87244491e-01 -4.28086952e-01 -5.61516651e-01
 -6.83827209e-01 -7.93165434e-01 -8.87678138e-01 -9.67365319e-01
 -1.03037379e+00 -1.07855674e+00 -1.11376735e+00 -1.13415244e+00
 -1.14527159e+00 -1.14897797e+00 -1.14712478e+00 -1.13971201e+00
 -1.13415244e+00 -1.12673968e+00 -1.12303330e+00 -1.12303330e+00
 -1.12859287e+00 -1.13785882e+00 -1.15268435e+00 -1.17492263e+00
 -1.20272048e+00 -1.23607791e+00 -1.27499490e+00 -1.31761828e+00
 -1.36580123e+00 -1.41583736e+00 -1.46772669e+00 -1.51961602e+00
 -1.56779897e+00 -1.61042234e+00 -1.64563296e+00 -1.66787124e+00
 -1.67528400e+00 -1.66416486e+00 -1.63266063e+00 -1.57891811e+00
 -1.49923093e+00 -1.39730546e+00 -1.27499490e+00 -1.13415244e+00
 -9.78484461e-01 -8.15403717e-01 -6.48616593e-01 -4.81829469e-01
 -3.22455106e-01 -1.70493505e-01 -3.15042345e-02  9.63658939e-02
  2.13116881e-01  3.18748726e-01  4.15114620e-01  5.05920943e-01
  5.93020885e-01  6.80120828e-01  7.67220771e-01  8.56173903e-01
  9.50686607e-01  1.04705250e+00  1.14897797e+00  1.25275662e+00
  1.35838847e+00  1.46587350e+00  1.57150535e+00  1.67528400e+00
  1.77535628e+00  1.86986898e+00  1.95882211e+00  2.03850929e+00
  2.11078371e+00  2.17008580e+00  2.21826875e+00  2.25162617e+00
  2.26830489e+00  2.26830489e+00  2.25162617e+00  2.21456237e+00
  2.16081985e+00  2.08854543e+00  1.99959230e+00  1.89581364e+00
  1.78091585e+00  1.65860529e+00  1.52888197e+00  1.39915865e+00
  1.27128852e+00  1.14897797e+00  1.03593336e+00  9.32154704e-01
  8.39495191e-01  7.61661200e-01  6.96799540e-01  6.44910213e-01
  6.02286837e-01  5.68929412e-01  5.39278368e-01  5.11480514e-01
  4.81829469e-01  4.46618854e-01  4.02142288e-01  3.48399770e-01
  2.85391301e-01  2.11263690e-01  1.26016938e-01  3.15042345e-02
 -6.85680399e-02 -1.77906266e-01 -2.89097682e-01 -4.05848668e-01
 -5.22599655e-01 -6.43057023e-01 -7.63514390e-01 -8.83971757e-01
 -1.00442912e+00 -1.12488649e+00 -1.24905024e+00 -1.37321399e+00
 -1.50293731e+00 -1.63822020e+00 -1.77906266e+00 -1.93102426e+00
 -2.09410500e+00 -2.27015808e+00 -2.45733029e+00 -2.65747484e+00
 -2.86503215e+00 -3.07629584e+00 -3.28755953e+00 -3.48955727e+00
 -3.67487630e+00 -3.83610385e+00 -3.97138674e+00 -4.07331221e+00
 -4.14188025e+00 -4.17894405e+00 -4.18635681e+00 -4.16967810e+00
 -4.13446749e+00 -4.08999092e+00 -4.03995478e+00 -3.99177184e+00]","[-1.23639843 -1.11989861 -1.01222454 -0.91161106 -0.81276273 -0.70861896
 -0.59917974 -0.48091477 -0.35029376 -0.20731672 -0.05374878  0.11041005
  0.28162948  0.4599095   0.64348497  0.83059073  1.0176965   1.20303711
  1.38484743  1.56136231  1.72905144  1.88438452  2.02206612  2.13856594
  2.22858853  2.28507328  2.30802022  2.29389903  2.24094457  2.15445228
  2.03971761  1.90733146  1.76435441  1.62490766  1.4995821   1.39720347
  1.32659753  1.2895294   1.28423396  1.31071119  1.3583702   1.42191556
  1.48722606  1.54724112  1.58960469  1.60725617  1.58960469  1.53135478
  1.43250645  1.2895294   1.10948423  0.89413609  0.65584101  0.40342474
  0.14924332 -0.0978775  -0.32911198 -0.53386923 -0.71214925 -0.86042175
 -0.98221701 -1.07930019 -1.15873188 -1.22404238 -1.28405744 -1.3405422
 -1.40055726 -1.46410261 -1.53470856 -1.6123751  -1.69533709 -1.78182938
 -1.87185197 -1.95834426 -2.04130625 -2.11897279 -2.18957874 -2.25135894
 -2.30607855 -2.35726787 -2.40316173 -2.4490556  -2.49847977 -2.55319938
 -2.61497958 -2.68735068 -2.76854752 -2.85857011 -2.95565329 -3.05626676
 -3.16041054 -3.26455431 -3.36516779 -3.45872067 -3.54697811 -3.6264098
 -3.6987809  -3.7640914  -3.82234131 -3.87353062 -3.91942449 -3.96178806
 -4.00062133 -4.03768946 -4.07475758 -4.11359085 -4.15948472 -4.21420433
 -4.27951483 -4.35718138 -4.44720396 -4.54428714 -4.64490062 -4.74021865
 -4.82494579 -4.88672599 -4.92202897 -4.92555927 -4.89202144 -4.82671094
 -4.73139291 -4.61489309 -4.48603723 -4.35365108 -4.22832552 -4.12065145
 -4.03592431 -3.9812047  -3.95825776 -3.96884866 -4.00768193 -4.07299243
 -4.15771957 -4.2530376  -4.35365108 -4.45426456 -4.54958259 -4.63430973
 -4.71197627 -4.77905192]",1.5151683623357672,1.2885585707237648,5.3961,0.30152999999999963
033,1,2,csp,25b.png,1,1,104,299,104,1,1,478,neg_feedback_onset,4,"[ 1.62140563e-01  1.06428758e-01  6.03224369e-02  2.57426960e-02
 -1.15265803e-03 -1.84425285e-02 -2.61269153e-02 -2.42058186e-02
 -1.65214318e-02 -1.15265803e-03  1.80583091e-02  3.53481796e-02
  5.07169533e-02  5.84013402e-02  5.26380500e-02  2.95848894e-02
 -1.26792383e-02 -7.60754299e-02 -1.60603685e-01 -2.62421811e-01
 -3.75766518e-01 -4.92953417e-01 -6.08219220e-01 -7.11958443e-01
 -7.98407795e-01 -8.63725083e-01 -9.04068114e-01 -9.17515791e-01
 -9.07910308e-01 -8.75251664e-01 -8.25303149e-01 -7.63828054e-01
 -6.94668572e-01 -6.23587994e-01 -5.52507415e-01 -4.91032321e-01
 -4.37241612e-01 -3.94977485e-01 -3.68082131e-01 -3.52713357e-01
 -3.50792260e-01 -3.60397744e-01 -3.79608711e-01 -4.04582968e-01
 -4.35320516e-01 -4.67979160e-01 -5.02558901e-01 -5.35217545e-01
 -5.67876189e-01 -5.98613737e-01 -6.29351284e-01 -6.60088832e-01
 -6.90826379e-01 -7.25406120e-01 -7.59985861e-01 -8.00328892e-01
 -8.40671923e-01 -8.84857147e-01 -9.30963468e-01 -9.77069790e-01
 -1.02125501e+00 -1.05967695e+00 -1.09425669e+00 -1.11923095e+00
 -1.13844191e+00 -1.14804740e+00 -1.14996849e+00 -1.14996849e+00
 -1.14612630e+00 -1.14420520e+00 -1.14612630e+00 -1.15765288e+00
 -1.18070604e+00 -1.21720688e+00 -1.26715539e+00 -1.33055159e+00
 -1.40931655e+00 -1.49960810e+00 -1.59566293e+00 -1.69748106e+00
 -1.79545699e+00 -1.88766963e+00 -1.96835569e+00 -2.03367298e+00
 -2.07785821e+00 -2.10091137e+00 -2.10283246e+00 -2.08554259e+00
 -2.04904176e+00 -2.00101434e+00 -1.94146034e+00 -1.87806415e+00
 -1.81274686e+00 -1.74742957e+00 -1.68403338e+00 -1.62063719e+00
 -1.55916209e+00 -1.49576590e+00 -1.42660642e+00 -1.35168365e+00
 -1.26715539e+00 -1.17302165e+00 -1.06928243e+00 -9.57858822e-01
 -8.36829729e-01 -7.11958443e-01 -5.83244963e-01 -4.52610386e-01
 -3.20054713e-01 -1.87499039e-01 -5.30222694e-02  8.52966942e-02
  2.25536754e-01  3.73461202e-01  5.25227842e-01  6.84678869e-01
  8.49893187e-01  1.02087079e+00  1.19761169e+00  1.37627369e+00
  1.55685678e+00  1.73743987e+00  1.91610186e+00  2.09092167e+00
  2.25805708e+00  2.41942920e+00  2.57119584e+00  2.71143590e+00
  2.84014938e+00  2.95349409e+00  3.05147002e+00  3.13407718e+00
  3.19555228e+00  3.24165860e+00  3.26663286e+00  3.27623834e+00
  3.27047505e+00  3.24934298e+00  3.21860544e+00  3.18018350e+00
  3.13599828e+00  3.09181305e+00  3.04954893e+00  3.01304809e+00
  2.98038944e+00  2.95541519e+00  2.94004641e+00  2.93236203e+00
  2.93620422e+00  2.94965190e+00  2.97462615e+00  3.01112699e+00
  3.05915441e+00  3.11678731e+00  3.18786789e+00  3.26855395e+00
  3.35692440e+00  3.45490033e+00  3.55863956e+00  3.66814207e+00
  3.78148678e+00  3.89867367e+00  4.01970277e+00  4.14265296e+00
  4.26944534e+00  4.40007992e+00  4.53263559e+00  4.66903346e+00
  4.80735242e+00  4.94759248e+00  5.08975364e+00  5.23191480e+00
  5.37407595e+00  5.51623711e+00  5.65839827e+00  5.80055942e+00
  5.94272058e+00  6.08296064e+00  6.22320070e+00  6.35767747e+00
  6.48446985e+00  6.60165675e+00  6.70347488e+00  6.78416094e+00
  6.84371494e+00  6.87829468e+00  6.88597907e+00  6.86868920e+00
  6.82834617e+00  6.76879217e+00  6.69579049e+00  6.61318333e+00
  6.52865508e+00  6.44604792e+00  6.36920405e+00  6.30196567e+00
  6.24625386e+00  6.20206864e+00  6.17133109e+00  6.15019903e+00
  6.13867245e+00  6.13675135e+00  6.14251464e+00  6.15404122e+00
  6.17133109e+00  6.19054206e+00  6.21167412e+00  6.23280618e+00
  6.25393825e+00  6.27122812e+00  6.28467580e+00  6.29043909e+00
  6.28851799e+00  6.27314922e+00  6.24433276e+00  6.20014754e+00
  6.14059354e+00  6.06567077e+00  5.97345813e+00  5.86971891e+00
  5.75061091e+00  5.61805524e+00  5.47013079e+00  5.30875866e+00
  5.12625448e+00  4.92069713e+00  4.68824442e+00  4.42889637e+00
  4.14073186e+00  3.82951419e+00  3.50100665e+00  3.16481473e+00
  2.83054390e+00  2.51164185e+00  2.21771405e+00  1.95836599e+00
  1.73551877e+00  1.55301458e+00  1.41085343e+00  1.30327201e+00
  1.22642814e+00  1.17455853e+00  1.14382098e+00  1.12845221e+00
  1.12653111e+00  1.13997879e+00  1.16495305e+00  1.20529608e+00
  1.25908679e+00  1.32824627e+00  1.41469562e+00  1.51267155e+00
  1.62217407e+00  1.73743987e+00  1.85462677e+00  1.96605038e+00
  2.06786850e+00  2.15239676e+00  2.21771405e+00  2.25613598e+00]","[nan nan nan nan nan nan nan nan nan nan nan nan nan nan nan nan nan nan
 nan nan nan nan nan nan nan nan nan nan nan nan nan nan nan nan nan nan
 nan nan nan nan nan nan nan nan nan nan nan nan nan nan nan nan nan nan
 nan nan nan nan nan nan nan nan nan nan nan nan nan nan nan nan nan nan
 nan nan nan nan nan nan nan nan nan nan nan nan nan nan nan nan nan nan
 nan nan nan nan nan nan nan nan nan nan nan nan nan nan nan nan nan nan
 nan nan nan nan nan nan nan nan nan nan nan nan nan nan nan nan nan nan
 nan nan nan nan nan nan nan nan nan nan nan nan nan nan]",6.113506078349995,,5.205360000000001,-0.018374999999999808
033,1,2,csm,39a.png,1,1,52,135,52,1,1,556,neu_feedback_onset,5,"[-0.83084185 -0.7819573  -0.71938507 -0.63921441 -0.54535607 -0.43781005
 -0.32244251 -0.19925344 -0.07606436  0.04516933  0.15858149  0.26026136
  0.35020893  0.42451345  0.48317491  0.52619332  0.55747943  0.57507787
  0.58485478  0.58681017  0.5828994   0.57507787  0.56530096  0.55747943
  0.54770252  0.539881    0.53597023  0.53401485  0.53792561  0.54965791
  0.56725634  0.59463169  0.63178395  0.68262389  0.7471515   0.82536678
  0.91726974  1.02481575  1.14604944  1.28292619  1.43349061  1.59774271
  1.77568248  1.9692653   2.17458042  2.39358322  2.62236292  2.86091954
  3.1053423   3.35367583  3.60396473  3.85425364  4.10454255  4.35092069
  4.59338807  4.83585545  5.07441207  5.3110133   5.54370377  5.77639424
  6.00517394  6.23004288  6.44904568  6.66218232  6.86554206  7.05912489
  7.23902004  7.40522752  7.55383656  7.68680254  7.8002147   7.89211766
  7.96642218  8.0192175   8.05050361  8.06028052  8.04659284  8.00944058
  7.94686836  7.85887616  7.74741938  7.61054264  7.45411207  7.27812768
  7.08650024  6.8831405   6.67391462  6.46077797  6.24764132  6.03841544
  5.83701108  5.64538364  5.4635331   5.29341486  5.13307353  4.98446449
  4.84563236  4.71462176  4.59338807  4.47802053  4.37047451  4.26879464
  4.17298092  4.08498873  4.00481806  3.93051354  3.86403055  3.80536909
  3.75061839  3.70368922  3.66067081  3.62156317  3.58636629  3.5531248
  3.52183868  3.48859719  3.45144493  3.41038191  3.36540812  3.31652357
  3.26568363  3.2148437   3.16791453  3.13271765  3.11511921  3.12098536
  3.15422685  3.22070984  3.32238971  3.45926646  3.62351855  3.815146
  4.0224165   4.23750853  4.45260056  4.65987106  4.84954312  5.01770598
  5.16240426  5.28168257  5.37554091  5.44789004  5.50068536  5.53783762
  5.56325759  5.58476679  5.60040985  5.61800829  5.63756211  5.66298208
  5.69231281  5.72946507  5.77052809  5.81550188  5.86243105  5.90936022
  5.95824477  6.00126318  6.0423262   6.07752308  6.10685381  6.13031839
  6.14791683  6.16160451  6.17138142  6.17920295  6.18702448  6.19093524
  6.19680139  6.20462291  6.21635521  6.23395365  6.26328438  6.30630278
  6.36691963  6.45295644  6.5663686   6.71106688  6.8831405   7.08650024
  7.31332456  7.5597027   7.81976852  8.08570049  8.34772169  8.60192136
  8.84047797  9.05948077  9.25892974  9.43686951  9.59525546  9.74190912
  9.87878586 10.01370723 10.15058397 10.29332687 10.44780205 10.61009877
 10.78412777 10.96011216 11.13805193 11.30817017 11.4685115  11.60929902
 11.73248809 11.83221257 11.91042786 11.96908932 12.01015234 12.03557231
 12.04925999 12.05317075 12.05317075 12.0473046  12.03752769 12.02775078
 12.01601849 12.0042862  11.99059852 11.97886623 11.96517856 11.95149088
 11.93975859 11.92607091 11.91238324 11.90065095 11.88696327 11.8732756
 11.8615433  11.84785563 11.83416796 11.82243566 11.80874799 11.79506031
 11.78332802 11.76964035 11.75595267 11.74422038 11.7305327  11.71684503
 11.70511274 11.69142506 11.67773739 11.6660051  11.65231742 11.63862975
 11.62689745 11.61320978 11.5995221  11.58778981 11.57410214 11.56041446
 11.54868217 11.5349945  11.52130682 11.50957453 11.49588685 11.48219918
 11.47046689 11.45677921]","[-1.04750978e-01 -8.84261506e-02 -7.57290623e-02 -6.48458437e-02
 -5.75903647e-02 -5.39626252e-02 -5.21487555e-02 -5.21487555e-02
 -5.21487555e-02 -5.39626252e-02 -5.39626252e-02 -5.03348857e-02
 -4.12655369e-02 -2.67545789e-02 -3.17427207e-03  3.31031230e-02
  8.20776064e-02  1.47376918e-01  2.32628796e-01  3.36019372e-01
  4.59362515e-01  6.00844356e-01  7.58651025e-01  9.27340912e-01
  1.10328628e+00  1.28104551e+00  1.45336314e+00  1.61661142e+00
  1.76534874e+00  1.89413349e+00  2.00296568e+00  2.08640369e+00
  2.14988913e+00  2.19160813e+00  2.21881618e+00  2.23514101e+00
  2.24602422e+00  2.25872131e+00  2.27686001e+00  2.30225419e+00
  2.34215932e+00  2.39294767e+00  2.45461925e+00  2.52717404e+00
  2.60517044e+00  2.68316684e+00  2.75390776e+00  2.81557933e+00
  2.85548446e+00  2.87180929e+00  2.85548446e+00  2.80288224e+00
  2.71218875e+00  2.58159013e+00  2.41652798e+00  2.21881618e+00
  1.99933794e+00  1.76353487e+00  1.52229019e+00  1.28285938e+00
  1.05431180e+00  8.42089034e-01  6.46191100e-01  4.72059604e-01
  3.14252935e-01  1.74584964e-01  4.76140811e-02 -6.84735833e-02
 -1.75491899e-01 -2.78882475e-01 -3.76831442e-01 -4.72966539e-01
 -5.67287766e-01 -6.61608993e-01 -7.54116351e-01 -8.46623708e-01
 -9.39131066e-01 -1.02982455e+00 -1.12051804e+00 -1.20576992e+00
 -1.28920793e+00 -1.36720433e+00 -1.43794525e+00 -1.50143069e+00
 -1.55584678e+00 -1.60119353e+00 -1.63565705e+00 -1.66286510e+00
 -1.68100380e+00 -1.69551475e+00 -1.70277023e+00 -1.70821184e+00
 -1.71183958e+00 -1.71909506e+00 -1.72635054e+00 -1.74086150e+00
 -1.76262793e+00 -1.79346372e+00 -1.83336885e+00 -1.88234334e+00
 -1.94401491e+00 -2.01475583e+00 -2.09275223e+00 -2.17981798e+00
 -2.27413921e+00 -2.37390204e+00 -2.48092036e+00 -2.59519415e+00
 -2.71672343e+00 -2.84732205e+00 -2.98880389e+00 -3.14298282e+00
 -3.30804497e+00 -3.48761807e+00 -3.67626053e+00 -3.87397233e+00
 -4.07712574e+00 -4.28027915e+00 -4.47799096e+00 -4.66844728e+00
 -4.84620652e+00 -5.00945480e+00 -5.15819212e+00 -5.28879074e+00
 -5.40306453e+00 -5.50464124e+00 -5.59170699e+00 -5.66970339e+00
 -5.74044431e+00 -5.80574362e+00 -5.86560132e+00 -5.92183128e+00
 -5.97806125e+00 -6.03247734e+00 -6.08507956e+00 -6.13768178e+00
 -6.19028401e+00 -6.23925849e+00 -6.28823297e+00 -6.33720746e+00]",11.526293045292496,1.8906871392099576,5.114090000000001,
033,1,2,csp,62b.png,1,1,348,230,347,1,1,404,pos_feedback_onset,6,"[ 1.65089148e-02  4.40237728e-02  4.59891198e-02  2.83009968e-02
 -3.14455520e-03 -4.24514952e-02 -8.37237823e-02 -1.19100028e-01
 -1.46614886e-01 -1.62337662e-01 -1.64303009e-01 -1.52510927e-01
 -1.26961416e-01 -8.56891293e-02 -3.26247602e-02  3.22316908e-02
  1.06914877e-01  1.91424798e-01  2.79865413e-01  3.74202069e-01
  4.70504072e-01  5.62875381e-01  6.49350649e-01  7.27964529e-01
  7.96751674e-01  8.51781391e-01  8.93053678e-01  9.22533883e-01
  9.42187353e-01  9.52014088e-01  9.57910129e-01  9.63806170e-01
  9.73632905e-01  9.91321028e-01  1.01883589e+00  1.06010817e+00
  1.11513789e+00  1.18195969e+00  1.25860822e+00  1.34508349e+00
  1.43745480e+00  1.53179145e+00  1.62612811e+00  1.72046477e+00
  1.81283607e+00  1.90520738e+00  1.99757869e+00  2.09191535e+00
  2.19018270e+00  2.29434609e+00  2.40637087e+00  2.52822238e+00
  2.65793529e+00  2.79354423e+00  2.93701456e+00  3.08441558e+00
  3.23181661e+00  3.37725229e+00  3.51679192e+00  3.64847017e+00
  3.77032169e+00  3.87645043e+00  3.96489104e+00  4.03564353e+00
  4.08674256e+00  4.11425741e+00  4.12015345e+00  4.10443068e+00
  4.06512374e+00  4.00419798e+00  3.92558410e+00  3.83124745e+00
  3.72511871e+00  3.60916323e+00  3.48731172e+00  3.36742555e+00
  3.24950473e+00  3.13944530e+00  3.03921260e+00  2.95077199e+00
  2.87412346e+00  2.80926700e+00  2.75620264e+00  2.71296500e+00
  2.67955410e+00  2.65007390e+00  2.62452439e+00  2.59897488e+00
  2.57342536e+00  2.54394516e+00  2.51249961e+00  2.47908871e+00
  2.44567781e+00  2.41619760e+00  2.39261344e+00  2.38475205e+00
  2.39261344e+00  2.42602434e+00  2.48891544e+00  2.58325210e+00
  2.71296500e+00  2.88001950e+00  3.08048489e+00  3.31632653e+00
  3.58361372e+00  3.87645043e+00  4.19483664e+00  4.53091098e+00
  4.87681205e+00  5.22860916e+00  5.57844093e+00  5.91648061e+00
  6.23290148e+00  6.52180749e+00  6.77337191e+00  6.98562938e+00
  7.15071853e+00  7.27060470e+00  7.34725323e+00  7.38656017e+00
  7.39442156e+00  7.37869878e+00  7.34921858e+00  7.31580768e+00
  7.28436213e+00  7.25684727e+00  7.23719380e+00  7.22147102e+00
  7.20967894e+00  7.19395616e+00  7.16840665e+00  7.12909971e+00
  7.06817396e+00  6.98169869e+00  6.87163926e+00  6.73799566e+00
  6.58469859e+00  6.41371341e+00  6.23486683e+00  6.05405490e+00
  5.87520833e+00  5.70815383e+00  5.55289142e+00  5.41335178e+00
  5.28756957e+00  5.17554479e+00  5.07138140e+00  4.97311405e+00
  4.87681205e+00  4.77854470e+00  4.67438131e+00  4.56825257e+00
  4.46015849e+00  4.35599509e+00  4.25772774e+00  4.17714852e+00
  4.12015345e+00  4.09067325e+00  4.09656929e+00  4.13587623e+00
  4.20859407e+00  4.31275746e+00  4.43460897e+00  4.56825257e+00
  4.69993082e+00  4.81785164e+00  4.91022295e+00  4.96721801e+00
  4.98687148e+00  4.96525267e+00  4.90432691e+00  4.80802490e+00
  4.68420804e+00  4.54270306e+00  4.39333669e+00  4.24397032e+00
  4.10246533e+00  3.97471778e+00  3.86269300e+00  3.77032169e+00
  3.69760385e+00  3.64060879e+00  3.59933650e+00  3.57378699e+00
  3.55806421e+00  3.55413352e+00  3.55806421e+00  3.57182164e+00
  3.59540580e+00  3.62488601e+00  3.66222760e+00  3.70743058e+00
  3.75852961e+00  3.81552467e+00  3.87645043e+00  3.94327222e+00
  4.01599006e+00  4.09853464e+00  4.19287129e+00  4.30489607e+00
  4.43657432e+00  4.59773278e+00  4.78837143e+00  5.01438634e+00
  5.27577749e+00  5.57057954e+00  5.89289645e+00  6.23486683e+00
  6.58469859e+00  6.93256501e+00  7.26470866e+00  7.56933744e+00
  7.84252068e+00  8.07246627e+00  8.25917424e+00  8.40460992e+00
  8.50877331e+00  8.57559511e+00  8.61490205e+00  8.62865948e+00
  8.62472878e+00  8.60704066e+00  8.57952580e+00  8.54611490e+00
  8.50877331e+00  8.46750102e+00  8.42622873e+00  8.38495645e+00
  8.34171881e+00  8.29848118e+00  8.25524355e+00  8.21200591e+00
  8.16680293e+00  8.12356530e+00  8.08032766e+00  8.03709003e+00
  7.99385239e+00  7.95061476e+00  7.90737713e+00  7.86413949e+00
  7.82090186e+00  7.77766422e+00  7.73246124e+00  7.68922361e+00
  7.64598598e+00  7.60274834e+00  7.55951071e+00  7.51627307e+00
  7.47303544e+00  7.42979781e+00  7.38656017e+00  7.34332254e+00
  7.29811956e+00  7.25488192e+00  7.21164429e+00  7.16840665e+00
  7.12516902e+00  7.08193139e+00  7.03869375e+00  6.99545612e+00]","[-1.52708559e+00 -1.43265851e+00 -1.32733600e+00 -1.20567035e+00
 -1.06947745e+00 -9.15125493e-01 -7.42614486e-01 -5.57392142e-01
 -3.57642555e-01 -1.48813442e-01  6.18315766e-02  2.74292501e-01
  4.83121614e-01  6.84687106e-01  8.75357166e-01  1.05694770e+00
  1.22764280e+00  1.38925838e+00  1.54179442e+00  1.68888276e+00
  1.83052337e+00  1.96490037e+00  2.09382964e+00  2.21186349e+00
  2.31355419e+00  2.39526993e+00  2.45156300e+00  2.47516976e+00
  2.46609024e+00  2.42069260e+00  2.34624049e+00  2.24818160e+00
  2.13377956e+00  2.01392981e+00  1.90134368e+00  1.80328479e+00
  1.72701677e+00  1.67617142e+00  1.65074874e+00  1.64893284e+00
  1.66164418e+00  1.68525094e+00  1.71067362e+00  1.73064858e+00
  1.74154401e+00  1.73609629e+00  1.71430543e+00  1.67617142e+00
  1.61987835e+00  1.54905804e+00  1.46371049e+00  1.36746751e+00
  1.26396091e+00  1.15500659e+00  1.04242046e+00  9.28018421e-01
  8.15432290e-01  7.02846159e-01  5.95707745e-01  4.95832951e-01
  4.05037685e-01  3.26953755e-01  2.61581163e-01  2.12551719e-01
  1.78049518e-01  1.61706370e-01  1.58074559e-01  1.65338181e-01
  1.76233613e-01  1.83497234e-01  1.79865423e-01  1.52626843e-01
  9.63337779e-02  9.07952666e-05 -1.41549821e-01 -3.34035786e-01
 -5.77367101e-01 -8.69727859e-01 -1.20748625e+00 -1.58519456e+00
 -1.99377326e+00 -2.42414282e+00 -2.86722373e+00 -3.31575234e+00
 -3.76064915e+00 -4.19828234e+00 -4.62138828e+00 -5.02815107e+00
 -5.41675481e+00 -5.78175179e+00 -6.12495789e+00 -6.44274133e+00
 -6.73328618e+00 -6.99659245e+00 -7.22902834e+00 -7.43240973e+00
 -7.60673665e+00 -7.75019317e+00 -7.86822701e+00 -7.95902228e+00
 -8.02621078e+00 -8.07342432e+00 -8.10066290e+00 -8.10974242e+00
 -8.09884699e+00 -8.06797660e+00 -8.01349944e+00 -7.92996779e+00
 -7.81738166e+00 -7.67029333e+00 -7.48870280e+00 -7.27624187e+00
 -7.03472647e+00 -6.77323610e+00 -6.49721849e+00 -6.21756907e+00
 -5.94155146e+00 -5.67824518e+00 -5.43128206e+00 -5.20974161e+00
 -5.01362383e+00 -4.84292873e+00 -4.70310402e+00 -4.58688608e+00
 -4.49790672e+00 -4.42890231e+00 -4.38168877e+00 -4.35263429e+00
 -4.33810705e+00 -4.33629114e+00 -4.34537067e+00 -4.36171382e+00
 -4.38532058e+00 -4.41074326e+00 -4.44161365e+00 -4.47248404e+00
 -4.50517034e+00 -4.53785663e+00 -4.57054293e+00 -4.60504513e+00]",7.472151032986377,1.5493304303059894,5.08816,0.03538999999999959
033,1,2,csm,26a.png,1,1,296,222,296,1,1,501,neu_feedback_onset,7,"[ 0.33664426  0.25049702  0.1509491   0.03608612 -0.08643439 -0.20895491
 -0.32190351 -0.41762266 -0.48271169 -0.50951305 -0.49419798 -0.43485211
 -0.33338981 -0.19363985 -0.02708852  0.15860664  0.35578809  0.55296954
  0.74440785  0.92435985  1.09091118  1.24023306  1.37423987  1.49676039
  1.61162337  1.71882882  1.82411989  1.92941095  2.03470202  2.14382186
  2.25294169  2.36206152  2.47118136  2.57455804  2.67410596  2.76408196
  2.84448605  2.91148946  2.9631778   3.00146546  3.02252367  3.02826682
  3.01869491  2.99763669  2.96700657  2.93254767  2.89426001  2.8617155
  2.83491414  2.81768469  2.8157703   2.82917099  2.8617155   2.90957507
  2.9746641   3.05123942  3.13930104  3.23119143  3.3249962   3.41305782
  3.49154752  3.55663654  3.61023927  3.64661255  3.66958514  3.67724268
  3.67341391  3.66192761  3.6408694   3.6178968   3.59109544  3.56429408
  3.5394071   3.52026327  3.5049482   3.49729067  3.49920505  3.50686258
  3.52409203  3.54897901  3.57578037  3.60258174  3.62746872  3.64469816
  3.64852693  3.63704063  3.6064105   3.55472216  3.48388999  3.39582837
  3.2905373   3.17375993  3.04932504  2.92297576  2.79854086  2.67984911
  2.56881489  2.46543821  2.37354782  2.28931497  2.21465403  2.14573624
  2.0825616   2.02513011  1.97344176  1.92749657  1.88729453  1.8566644
  1.83752057  1.82986304  1.83752057  1.86049316  1.89878083  1.95046917
  2.01747257  2.09596228  2.1840239   2.27974305  2.37737659  2.47692451
  2.57455804  2.67027719  2.7602532   2.84640043  2.92489014  2.99763669
  3.0646401   3.12590036  3.18333185  3.23693458  3.2905373   3.34031126
  3.3919996   3.43985918  3.48580437  3.52600642  3.55855093  3.57578037
  3.57769476  3.56046531  3.5164345   3.44560233  3.34988317  3.22736266
  3.08186955  2.91914699  2.74493813  2.57072927  2.40034918  2.24719854
  2.11319173  2.00790066  1.93323972  1.89303768  1.88538014  1.91218151
  1.96769861  2.0481027   2.15147939  2.27017114  2.3984348   2.53627038
  2.67602034  2.8157703   2.95360588  3.08569831  3.21396198  3.33265373
  3.44368794  3.54515025  3.63704063  3.71744472  3.78827689  3.84570838
  3.89548234  3.93568439  3.97014328  3.99885903  4.02374601  4.05054737
  4.0811775   4.11755078  4.16158159  4.2170987   4.28601648  4.36833496
  4.46213973  4.56934518  4.68612254  4.80864306  4.9388211   5.06899915
  5.1991772   5.3236121   5.44230385  5.5495093   5.64522845  5.72754692
  5.79263594  5.84432429  5.88069756  5.90558454  5.91898522  5.92089961
  5.91707084  5.90558454  5.8883551   5.86346812  5.83283799  5.79455033
  5.74477637  5.68734488  5.61842709  5.53610861  5.44421823  5.34084154
  5.22980733  5.11111558  4.98668068  4.85841702  4.73015335  4.60188969
  4.47554041  4.35493427  4.23815691  4.12903707  4.02757477  3.93185562
  3.843794    3.75956115  3.67915706  3.59875297  3.51452012  3.42454411
  3.32882496  3.22353389  3.10867091  2.9861504   2.85788673  2.7257943
  2.58987311  2.45395191  2.3199451   2.18976705  2.06150338  1.94089725
  1.82411989  1.71691444  1.6192809   1.53313366  1.46038711  1.40295562
  1.36658234  1.34935289  1.35509604  1.38381179  1.43167136  1.49867477
  1.58099324  1.67479801]","[-0.86949966 -0.74997449 -0.63596586 -0.52563493 -0.4226594  -0.32336156
 -0.23141912 -0.14315438 -0.06040618  0.01866432  0.09589597  0.17128877
  0.24484272  0.31655782  0.38459523  0.44711609  0.50595925  0.55560817
  0.59606284  0.62548442  0.64203406  0.64571176  0.63651751  0.61261248
  0.5758355   0.52802543  0.46918227  0.40298372  0.32942976  0.25403696
  0.17864416  0.10325136  0.03337511 -0.03282345 -0.09166661 -0.14499323
 -0.19096445 -0.22958027 -0.2608407  -0.28842344 -0.31048962 -0.32887811
 -0.3435889  -0.36013854 -0.37668818 -0.39507667 -0.4189817  -0.45208098
 -0.49253565 -0.54953997 -0.62125507 -0.71135866 -0.82352844 -0.9577644
 -1.11406655 -1.29243488 -1.48919171 -1.70065932 -1.92316002 -2.15117728
 -2.37919453 -2.60537293 -2.82603479 -3.0375024  -3.24161462 -3.43469374
 -3.62041747 -3.79694696 -3.9642822  -4.1224232  -4.27136995 -4.40744476
 -4.52880878 -4.63546202 -4.72188791 -4.78992532 -4.83773538 -4.86899581
 -4.8837066  -4.88186776 -4.86531812 -4.83773538 -4.79728071 -4.74395409
 -4.67959439 -4.60236274 -4.51409799 -4.41663901 -4.30998578 -4.19965485
 -4.08748507 -3.97899299 -3.88337285 -3.80246351 -3.74545919 -3.71419876
 -3.71419876 -3.74913689 -3.81533545 -3.91279443 -4.03783615 -4.17942751
 -4.33021311 -4.47915987 -4.61707353 -4.73108215 -4.8156692  -4.86164042
 -4.87083466 -4.83957423 -4.77153683 -4.67223899 -4.54719727 -4.40192822
 -4.24378722 -4.07829083 -3.91095559 -3.74545919 -3.5836405  -3.42733835
 -3.27655275 -3.13312254 -2.99337003 -2.85729522 -2.72305926 -2.58698444
 -2.45090963 -2.31299597 -2.17324346 -2.03349095 -1.89373844 -1.75950248
 -1.62894422 -1.50758019 -1.39541042 -1.29427373 -1.20784784 -1.13429389
 -1.07361188 -1.02580181]",5.303080338041765,0.11828394951623214,5.223615,-0.05046999999999979
033,1,2,csp,44b.png,1,0,176,224,175,1,0,272,neg_feedback_onset,8,"[-1.29294422e-01 -5.91060214e-02  1.84706317e-03  4.80236424e-02
  7.94237163e-02  9.42002216e-02  9.23531585e-02  7.75766531e-02
  5.17177687e-02  1.66235685e-02 -2.21647580e-02 -5.72589583e-02
 -8.86590321e-02 -1.07129664e-01 -1.12670853e-01 -9.60472848e-02
 -5.91060214e-02  1.64052165e-14  8.31178426e-02  1.86553380e-01
  3.10306612e-01  4.48836350e-01  5.98448467e-01  7.53601773e-01
  9.08755079e-01  1.05836720e+00  1.20059106e+00  1.32803842e+00
  1.44070927e+00  1.53675656e+00  1.61802734e+00  1.68267455e+00
  1.73623938e+00  1.78056890e+00  1.81566310e+00  1.84336904e+00
  1.86738086e+00  1.88769856e+00  1.90062800e+00  1.90801625e+00
  1.90801625e+00  1.90062800e+00  1.88585150e+00  1.86553380e+00
  1.83967492e+00  1.81012191e+00  1.77872183e+00  1.74547470e+00
  1.71038050e+00  1.67343923e+00  1.63465091e+00  1.59216845e+00
  1.54414481e+00  1.48503879e+00  1.41485039e+00  1.32803842e+00
  1.22275582e+00  1.09715552e+00  9.49390469e-01  7.81307721e-01
  5.92907277e-01  3.89730329e-01  1.73623938e-01 -4.61765792e-02
 -2.67824160e-01 -4.82083487e-01 -6.88954562e-01 -8.84743258e-01
 -1.06760251e+00 -1.23753232e+00 -1.39453269e+00 -1.54229775e+00
 -1.68267455e+00 -1.81935722e+00 -1.95419283e+00 -2.08902844e+00
 -2.22755818e+00 -2.37162911e+00 -2.52124123e+00 -2.67824160e+00
 -2.84078315e+00 -3.00886590e+00 -3.18064278e+00 -3.35426672e+00
 -3.52604359e+00 -3.69412634e+00 -3.85666790e+00 -4.01182120e+00
 -4.15773919e+00 -4.29626893e+00 -4.42925748e+00 -4.55670484e+00
 -4.68045807e+00 -4.80236424e+00 -4.92242335e+00 -5.04248245e+00
 -5.16069450e+00 -5.27521241e+00 -5.38234208e+00 -5.48208349e+00
 -5.57074252e+00 -5.64831917e+00 -5.70927226e+00 -5.75360177e+00
 -5.78315478e+00 -5.79608423e+00 -5.79239010e+00 -5.77207240e+00
 -5.74067233e+00 -5.69818988e+00 -5.64462505e+00 -5.58551902e+00
 -5.52087181e+00 -5.45253048e+00 -5.38234208e+00 -5.31400074e+00
 -5.24565940e+00 -5.17731806e+00 -5.11267085e+00 -5.04802364e+00
 -4.98522349e+00 -4.92427041e+00 -4.86331733e+00 -4.80421130e+00
 -4.74695235e+00 -4.69154045e+00 -4.63797562e+00 -4.58810491e+00
 -4.54377540e+00 -4.50498707e+00 -4.47358700e+00 -4.44772811e+00
 -4.43110454e+00 -4.42002216e+00 -4.41448098e+00 -4.41263391e+00
 -4.41078685e+00 -4.40524566e+00 -4.39231622e+00 -4.36830440e+00
 -4.32951607e+00 -4.26856298e+00 -4.18913927e+00 -4.08385667e+00
 -3.96010344e+00 -3.81418545e+00 -3.65533801e+00 -3.48725526e+00
 -3.31547839e+00 -3.15108977e+00 -3.00147765e+00 -2.87403029e+00
 -2.77613594e+00 -2.71148873e+00 -2.68562985e+00 -2.69671223e+00
 -2.74473587e+00 -2.82415959e+00 -2.92944219e+00 -3.04950129e+00
 -3.17694865e+00 -3.30254895e+00 -3.41706686e+00 -3.51496121e+00
 -3.58884374e+00 -3.63502032e+00 -3.65349095e+00 -3.64425563e+00
 -3.60731437e+00 -3.54266716e+00 -3.45585519e+00 -3.34872553e+00
 -3.22127817e+00 -3.07905430e+00 -2.92205393e+00 -2.75581825e+00
 -2.58404137e+00 -2.40857037e+00 -2.23679350e+00 -2.07240488e+00
 -1.92279276e+00 -1.78980421e+00 -1.67898042e+00 -1.59401552e+00
 -1.53306243e+00 -1.49612117e+00 -1.48319173e+00 -1.49242704e+00
 -1.51828593e+00 -1.55707425e+00 -1.60509789e+00 -1.65866273e+00
 -1.71592168e+00 -1.77133358e+00 -1.82674547e+00 -1.87846324e+00
 -1.92648689e+00 -1.97266347e+00 -2.01329885e+00 -2.05024012e+00
 -2.08348726e+00 -2.11304027e+00 -2.13889915e+00 -2.15921685e+00
 -2.17214629e+00 -2.17768748e+00 -2.17584041e+00 -2.16291097e+00
 -2.14259328e+00 -2.11304027e+00 -2.07425194e+00 -2.03176949e+00
 -1.98559291e+00 -1.93941633e+00 -1.89878094e+00 -1.86368674e+00
 -1.83967492e+00 -1.82859254e+00 -1.83228666e+00 -1.84891023e+00
 -1.88031031e+00 -1.92279276e+00 -1.97635759e+00 -2.03731068e+00
 -2.10380495e+00 -2.17584041e+00 -2.24972294e+00 -2.32360547e+00
 -2.39933506e+00 -2.47321758e+00 -2.54710011e+00 -2.61728851e+00
 -2.68378279e+00 -2.74473587e+00 -2.79830070e+00 -2.84078315e+00
 -2.87218323e+00 -2.88880680e+00 -2.89065386e+00 -2.87587736e+00
 -2.84447728e+00 -2.80014777e+00 -2.74288881e+00 -2.67639453e+00
 -2.60435907e+00 -2.53047654e+00 -2.45659402e+00 -2.38825268e+00
 -2.32545253e+00 -2.27004064e+00 -2.22386406e+00 -2.18507573e+00
 -2.15182859e+00 -2.12596971e+00 -2.10195789e+00 -2.07979313e+00
 -2.05947543e+00 -2.03915774e+00 -2.01514592e+00 -1.98743997e+00]","[nan nan nan nan nan nan nan nan nan nan nan nan nan nan nan nan nan nan
 nan nan nan nan nan nan nan nan nan nan nan nan nan nan nan nan nan nan
 nan nan nan nan nan nan nan nan nan nan nan nan nan nan nan nan nan nan
 nan nan nan nan nan nan nan nan nan nan nan nan nan nan nan nan nan nan
 nan nan nan nan nan nan nan nan nan nan nan nan nan nan nan nan nan nan
 nan nan nan nan nan nan nan nan nan nan nan nan nan nan nan nan nan nan
 nan nan nan nan nan nan nan nan nan nan nan nan nan nan nan nan nan nan
 nan nan nan nan nan nan nan nan nan nan nan nan nan nan]",1.454931658662747,,5.413999999999999,-0.13171500000000158
033,1,2,csp,61b.png,1,1,56,301,56,1,0,NaN,neg_feedback_onset,9,"[nan nan nan nan nan nan nan nan nan nan nan nan nan nan nan nan nan nan
 nan nan nan nan nan nan nan nan nan nan nan nan nan nan nan nan nan nan
 nan nan nan nan nan nan nan nan nan nan nan nan nan nan nan nan nan nan
 nan nan nan nan nan nan nan nan nan nan nan nan nan nan nan nan nan nan
 nan nan nan nan nan nan nan nan nan nan nan nan nan nan nan nan nan nan
 nan nan nan nan nan nan nan nan nan nan nan nan nan nan nan nan nan nan
 nan nan nan nan nan nan nan nan nan nan nan nan nan nan nan nan nan nan
 nan nan nan nan nan nan nan nan nan nan nan nan nan nan nan nan nan nan
 nan nan nan nan nan nan nan nan nan nan nan nan nan nan nan nan nan nan
 nan nan nan nan nan nan nan nan nan nan nan nan nan nan nan nan nan nan
 nan nan nan nan nan nan nan nan nan nan nan nan nan nan nan nan nan nan
 nan nan nan nan nan nan nan nan nan nan nan nan nan nan nan nan nan nan
 nan nan nan nan nan nan nan nan nan nan nan nan nan nan nan nan nan nan
 nan nan nan nan nan nan nan nan nan nan nan nan nan nan nan nan nan nan
 nan nan nan nan nan nan nan nan]","[ 0.78592847  0.66996706  0.55980372  0.45543845  0.35880394  0.2679675
  0.18679451  0.11335228  0.05150619 -0.00454182 -0.05479177 -0.10310902
 -0.15142628 -0.20360891 -0.265455   -0.33889723 -0.42586829 -0.52443549
 -0.63266614 -0.74476217 -0.85879089 -0.96315616 -1.05592529 -1.12550214
 -1.16995401 -1.18348284 -1.16608863 -1.11970407 -1.04239646 -0.93996388
 -0.8182044  -0.6790507  -0.53023356 -0.37368565 -0.21520505 -0.05865715
  0.09595807  0.24284252  0.38199622  0.50955377  0.62551518  0.72988045
  0.8187842   0.89415912  0.9579379   1.01205322  1.05843779  1.10095697
  1.14540885  1.1937261   1.25170681  1.32128365  1.40438933  1.50102384
  1.61118718  1.73294667  1.86630229  2.00545598  2.15234044  2.30115758
  2.44997473  2.59492649  2.73408019  2.86550312  2.98532992  3.09356057
  3.19019508  3.27330075  3.3428776   3.39892562  3.43951211  3.46656977
  3.47816592  3.47236785  3.45110825  3.41438714  3.36027181  3.29456035
  3.21532005  3.12448361  3.02398372  2.91575307  2.79979166  2.68189755
  2.56207076  2.44224397  2.32241718  2.20645577  2.09629242  1.99192715
  1.89722533  1.81025427  1.73487936  1.67110058  1.62085063  1.58026414
  1.55320648  1.53774496  1.5300142   1.53194689  1.53774496  1.54740841
  1.55707186  1.568668    1.57639876  1.58219683  1.58606221  1.58412952
  1.58026414  1.57446607  1.568668    1.56286993  1.55900455  1.56093724
  1.57060069  1.58606221  1.61311987  1.64984099  1.70009093  1.76193702
  1.83537925  1.92041762  2.01705213  2.12335009  2.2393115   2.36107098
  2.49056122  2.62584954  2.76307054  2.90415693  3.047176    3.19019508
  3.33321415  3.47623323  3.61731961  3.7564733   3.89176162  4.02511724
  4.15460749  4.27829966]",,2.943454960748659,5.37188,-0.24974500000000077
033,1,2,csm,57a.png,1,1,356,240,356,1,1,484,neu_feedback_onset,10,"[-6.48407850e-02 -4.24174588e-02 -2.18627431e-02 -5.04524840e-03
  9.90363576e-03  2.29839094e-02  3.23269620e-02  3.98014041e-02
  4.54072356e-02  4.91444567e-02  5.10130672e-02  4.91444567e-02
  4.54072356e-02  3.79327936e-02  2.48525199e-02  8.03502524e-03
 -1.62569115e-02 -4.61546798e-02 -8.53955008e-02 -1.33979374e-01
 -1.91906300e-01 -2.61044890e-01 -3.43263753e-01 -4.36694279e-01
 -5.46942299e-01 -6.70270593e-01 -8.08547772e-01 -9.59905224e-01
 -1.12434295e+00 -1.29812373e+00 -1.47751034e+00 -1.65876556e+00
 -1.83628356e+00 -2.00632712e+00 -2.16329040e+00 -2.29969897e+00
 -2.41555282e+00 -2.50337751e+00 -2.56504166e+00 -2.59493943e+00
 -2.59680804e+00 -2.57064749e+00 -2.51645779e+00 -2.43984476e+00
 -2.34080840e+00 -2.22682316e+00 -2.09788903e+00 -1.95961185e+00
 -1.81759745e+00 -1.67558305e+00 -1.53730587e+00 -1.40650314e+00
 -1.28504345e+00 -1.17666404e+00 -1.07949630e+00 -9.93540213e-01
 -9.16927182e-01 -8.45919982e-01 -7.74912783e-01 -7.03905583e-01
 -6.25423941e-01 -5.39467857e-01 -4.44168721e-01 -3.37657921e-01
 -2.23672679e-01 -1.02212995e-01  2.29839094e-02  1.50049425e-01
  2.75246330e-01  3.92968792e-01  5.03216813e-01  5.98515950e-01
  6.75128981e-01  7.29318686e-01  7.59216454e-01  7.62953675e-01
  7.34924517e-01  6.78866202e-01  5.94778728e-01  4.84530708e-01
  3.51859361e-01  1.98633298e-01  3.23269620e-02 -1.41453816e-01
 -3.20840426e-01 -4.98358426e-01 -6.72139204e-01 -8.38445540e-01
 -9.97277434e-01 -1.14489767e+00 -1.28317484e+00 -1.41210897e+00
 -1.53356865e+00 -1.64942251e+00 -1.75780192e+00 -1.86431272e+00
 -1.96708629e+00 -2.06985987e+00 -2.16889623e+00 -2.26980120e+00
 -2.36883756e+00 -2.46787391e+00 -2.56504166e+00 -2.66407802e+00
 -2.76311438e+00 -2.86215073e+00 -2.95931848e+00 -3.05835484e+00
 -3.15739120e+00 -3.25642755e+00 -3.35359530e+00 -3.45263166e+00
 -3.55166802e+00 -3.64883576e+00 -3.74787212e+00 -3.84690848e+00
 -3.94594483e+00 -4.04311258e+00 -4.14214894e+00 -4.24118530e+00
 -4.34022165e+00 -4.43738940e+00 -4.53642576e+00 -4.63546212e+00
 -4.73262986e+00 -4.83166622e+00 -4.93070258e+00 -5.02973894e+00
 -5.12690668e+00 -5.22594304e+00 -5.32497940e+00 -5.42401576e+00
 -5.52118350e+00 -5.62021986e+00 -5.71925622e+00 -5.81642397e+00
 -5.91546032e+00 -6.01449668e+00 -6.11353304e+00 -6.21070079e+00
 -6.30973714e+00 -6.40877350e+00 -6.50780986e+00 -6.60497760e+00
 -6.70401396e+00 -6.80305032e+00 -6.90021807e+00 -6.99925442e+00
 -7.09829078e+00 -7.19545853e+00 -7.29262628e+00 -7.38792541e+00
 -7.48322455e+00 -7.57665508e+00 -7.66447977e+00 -7.74856724e+00
 -7.82518027e+00 -7.89058164e+00 -7.94477135e+00 -7.98401217e+00
 -8.00269827e+00 -7.99896105e+00 -7.96906328e+00 -7.90926775e+00
 -7.81583722e+00 -7.68877171e+00 -7.52433398e+00 -7.32252404e+00
 -7.08707912e+00 -6.81986781e+00 -6.52275874e+00 -6.20696356e+00
 -5.87435089e+00 -5.53986961e+00 -5.20725694e+00 -4.88959315e+00
 -4.59435269e+00 -4.32714138e+00 -4.08982784e+00 -3.88801791e+00
 -3.71423713e+00 -3.56848551e+00 -3.44328861e+00 -3.33117197e+00
 -3.22466117e+00 -3.11628176e+00 -3.00229652e+00 -2.88083684e+00
 -2.74816549e+00 -2.60801970e+00 -2.46226808e+00 -2.31838507e+00
 -2.18010789e+00 -2.05117377e+00 -1.93718853e+00 -1.84002078e+00
 -1.75967053e+00 -1.69426916e+00 -1.64007945e+00 -1.59710141e+00
 -1.55599198e+00 -1.51488255e+00 -1.47003590e+00 -1.41584619e+00
 -1.35418204e+00 -1.28130623e+00 -1.19721876e+00 -1.10378823e+00
 -1.00475188e+00 -8.96372466e-01 -7.86124446e-01 -6.70270593e-01
 -5.56285352e-01 -4.42300110e-01 -3.30183479e-01 -2.23672679e-01
 -1.24636322e-01 -3.68116272e-02  3.98014041e-02  1.01465551e-01
  1.46312204e-01  1.74341362e-01  1.81815804e-01  1.72472751e-01
  1.44443593e-01  9.95969407e-02  4.35386251e-02 -2.18627431e-02
 -9.47385534e-02 -1.67614364e-01 -2.40490174e-01 -3.05891542e-01
 -3.63818468e-01 -4.12402342e-01 -4.49774552e-01 -4.74066489e-01
 -4.87146763e-01 -4.83409541e-01 -4.68460657e-01 -4.36694279e-01
 -3.91847626e-01 -3.33920700e-01 -2.61044890e-01 -1.78826027e-01
 -8.72641113e-02  8.03502524e-03  1.01465551e-01  1.91158856e-01
  2.69640498e-01  3.35041866e-01  3.83625740e-01  4.15392119e-01
  4.28472392e-01  4.24735171e-01  4.06049066e-01  3.72414077e-01
  3.31304645e-01  2.78983551e-01  2.21056625e-01  1.59392477e-01]","[-1.54930317 -1.32489761 -1.09144345 -0.85798929 -0.62996429 -0.4182268
 -0.22639625 -0.05809208  0.08849542  0.2097468   0.31109124  0.39433847
  0.46310791  0.52282874  0.57531068  0.62598291  0.67303568  0.72008846
  0.76533151  0.80695512  0.84314957  0.8702954   0.88477318  0.88296346
  0.86305651  0.82324262  0.75990235  0.67846485  0.57531068  0.45767874
  0.32918847  0.1934593   0.05411069 -0.08161847 -0.21553791 -0.34040874
 -0.45804069 -0.56843374 -0.66977818 -0.76569346 -0.85617957 -0.94485596
 -1.02810318 -1.1113504  -1.19097817 -1.27241567 -1.35204345 -1.43167122
 -1.511299   -1.59092678 -1.66874483 -1.74837261 -1.82800038 -1.90762816
 -1.98725594 -2.06688371 -2.14651149 -2.22613927 -2.30576704 -2.38539482
 -2.46683232 -2.55007954 -2.63513648 -2.72381287 -2.81791842 -2.91926286
 -3.02965592 -3.15452675 -3.29387536 -3.45494063 -3.63591285 -3.84222118
 -4.07567534 -4.33265589 -4.61135311 -4.90814755 -5.21761004 -5.53250171
 -5.84377392 -6.14780725 -6.43374336 -6.6979628  -6.9350364  -7.14315445
 -7.32050723 -7.46709473 -7.58472667 -7.67521278 -7.74036278 -7.78198639
 -7.80551278 -7.81275166 -7.8073225  -7.791035   -7.76750861 -7.74036278
 -7.71140722 -7.68426139 -7.660735   -7.6444475  -7.63358917 -7.63177945
 -7.63539889 -7.64263778 -7.65349611 -7.66435444 -7.67340306 -7.67883222
 -7.6770225  -7.66978361 -7.65711556 -7.63539889 -7.60644333 -7.57024889
 -7.52681556 -7.47614334 -7.41280306 -7.34041417 -7.25354751 -7.15039334
 -7.03095168 -6.89522251 -6.74139613 -6.56947252 -6.38307113 -6.18219197
 -5.97407392 -5.7605267  -5.54697948 -5.33886143 -5.13979199 -4.95520033
 -4.79051561 -4.64754755 -4.53172533 -4.44304895 -4.38151839 -4.34351423
 -4.32903645 -4.33265589]",-0.2702945117040357,0.1547312472062392,5.35157,0.3960399999999984
033,1,2,csm,62a.png,1,1,256,36,255,1,1,341,neu_feedback_onset,11,"[-2.78684200e-02 -1.62084222e-01 -2.86979483e-01 -3.93233659e-01
 -4.75254427e-01 -5.27449462e-01 -5.44226437e-01 -5.25585353e-01
 -4.69662102e-01 -3.78320793e-01 -2.57153749e-01 -1.13617405e-01
  4.29676978e-02  2.05145125e-01  3.61730228e-01  5.05266572e-01
  6.30161833e-01  7.34551901e-01  8.12844452e-01  8.68767703e-01
  9.00457545e-01  9.13506304e-01  9.09778087e-01  8.89272895e-01
  8.53854836e-01  8.07252127e-01  7.49464768e-01  6.80492758e-01
  6.00336099e-01  5.14587114e-01  4.25109912e-01  3.33768603e-01
  2.44291401e-01  1.64134741e-01  9.70268404e-02  4.66959145e-02
  1.50060723e-02  1.95731378e-03  9.41374724e-03  3.36471560e-02
  7.27934316e-02  1.21260249e-01  1.75319392e-01  2.31242643e-01
  2.87165894e-01  3.39360928e-01  3.87827745e-01  4.30702238e-01
  4.71712622e-01  5.07130681e-01  5.40684631e-01  5.72374473e-01
  6.02200207e-01  6.32025941e-01  6.61851675e-01  6.89813300e-01
  7.19639034e-01  7.49464768e-01  7.77426393e-01  8.03523910e-01
  8.27757319e-01  8.46398403e-01  8.57583053e-01  8.59447161e-01
  8.50126620e-01  8.31485536e-01  7.97931585e-01  7.51328876e-01
  6.95405625e-01  6.26433616e-01  5.48141065e-01  4.62392080e-01
  3.67322553e-01  2.64796593e-01  1.52950091e-01  2.99189392e-02
 -1.04296863e-01 -2.51561424e-01 -4.11874743e-01 -5.83372713e-01
 -7.66055332e-01 -9.52466169e-01 -1.14074111e+00 -1.32155962e+00
 -1.48932938e+00 -1.64032216e+00 -1.76708152e+00 -1.86960748e+00
 -1.94417182e+00 -1.99450274e+00 -2.01873615e+00 -2.02246437e+00
 -2.00755150e+00 -1.97586166e+00 -1.93298717e+00 -1.87892803e+00
 -1.81368423e+00 -1.74098401e+00 -1.65523502e+00 -1.56016550e+00
 -1.45391132e+00 -1.33460838e+00 -1.20225669e+00 -1.06058445e+00
 -9.07727568e-01 -7.49278357e-01 -5.85236821e-01 -4.21195285e-01
 -2.59017857e-01 -1.02432755e-01  4.48318062e-02  1.80911717e-01
  3.05806977e-01  4.17653479e-01  5.16451222e-01  6.04064315e-01
  6.84220975e-01  7.58785310e-01  8.29621428e-01  9.02321654e-01
  9.80614205e-01  1.06449908e+00  1.15397628e+00  1.25090992e+00
  1.35343588e+00  1.45969005e+00  1.56967245e+00  1.67965484e+00
  1.78777313e+00  1.89402730e+00  1.99655326e+00  2.09535101e+00
  2.18855643e+00  2.27244130e+00  2.34514153e+00  2.40292889e+00
  2.44393927e+00  2.46071625e+00  2.45139570e+00  2.41597765e+00
  2.35073385e+00  2.25939254e+00  2.14754604e+00  2.01892256e+00
  1.87911444e+00  1.73930631e+00  1.60322640e+00  1.47833114e+00
  1.36462053e+00  1.26582278e+00  1.18007380e+00  1.10737357e+00
  1.04399389e+00  9.86206530e-01  9.35875604e-01  8.87408787e-01
  8.42670186e-01  7.99795694e-01  7.62513526e-01  7.28959576e-01
  7.00997950e-01  6.80492758e-01  6.67444000e-01  6.59987566e-01
  6.59987566e-01  6.67444000e-01  6.84220975e-01  7.08454384e-01
  7.40144226e-01  7.83018718e-01  8.33349644e-01  8.93001112e-01
  9.60109013e-01  1.02908102e+00  1.09991714e+00  1.16702504e+00
  1.22667651e+00  1.27514333e+00  1.30683317e+00  1.32361014e+00
  1.32174604e+00  1.30310495e+00  1.26955100e+00  1.22108418e+00
  1.15956861e+00  1.08873249e+00  1.00857583e+00  9.19098629e-01
  8.22164994e-01  7.14046709e-01  5.94743774e-01  4.64256188e-01
  3.24448061e-01  1.71591175e-01  1.12778556e-02 -1.56491897e-01
 -3.29853975e-01 -5.01351945e-01 -6.72849914e-01 -8.36891450e-01
 -9.93476553e-01 -1.14260522e+00 -1.27868513e+00 -1.40358039e+00
 -1.51729100e+00 -1.62168107e+00 -1.71675060e+00 -1.80249958e+00
 -1.87892803e+00 -1.94790004e+00 -2.00755150e+00 -2.05601832e+00
 -2.09143638e+00 -2.11194157e+00 -2.11566979e+00 -2.10075692e+00
 -2.06533886e+00 -2.00941561e+00 -1.93485128e+00 -1.84723818e+00
 -1.75030455e+00 -1.65150681e+00 -1.55457317e+00 -1.46696008e+00
 -1.39239574e+00 -1.33833660e+00 -1.30291854e+00 -1.28800567e+00
 -1.29173389e+00 -1.31037497e+00 -1.34579303e+00 -1.39053163e+00
 -1.44459078e+00 -1.50424224e+00 -1.56762193e+00 -1.63472983e+00
 -1.70370184e+00 -1.77453796e+00 -1.84537408e+00 -1.91621019e+00
 -1.98704631e+00 -2.05601832e+00 -2.12126211e+00 -2.18091358e+00
 -2.23497272e+00 -2.27971132e+00 -2.31512938e+00 -2.33749868e+00
 -2.35054744e+00 -2.35241155e+00 -2.34681923e+00 -2.33377047e+00
 -2.32258582e+00 -2.31326527e+00 -2.31512938e+00 -2.33004225e+00
 -2.36359620e+00 -2.42138356e+00 -2.50340433e+00 -2.61338672e+00]","[-1.3860474  -1.21936685 -1.04372497 -0.85912177 -0.67093405 -0.47736953
 -0.28738954 -0.10278634  0.07106327  0.22699024  0.36499457  0.47790721
  0.56752041  0.63024965  0.66609493  0.67684852  0.66430267  0.62845739
  0.5728972   0.49941438  0.40800891  0.2986808   0.17143006  0.0298412
 -0.12608578 -0.2945586  -0.473785   -0.6583882  -0.84478366 -1.03117912
 -1.20861326 -1.37350156 -1.52405174 -1.65488701 -1.76421512 -1.84845153
 -1.91118077 -1.95061058 -1.96853322 -1.96853322 -1.95240284 -1.92372662
 -1.88429681 -1.83949021 -1.78930681 -1.73733116 -1.6853555  -1.63696437
 -1.59036551 -1.5509357  -1.51867494 -1.49358325 -1.47924513 -1.47566061
 -1.48820645 -1.51509042 -1.55989702 -1.62441852 -1.7104472  -1.81798304
 -1.94523379 -2.09219944 -2.25171094 -2.4183915  -2.58865658 -2.75533714
 -2.91305637 -3.05464523 -3.17651919 -3.27867824 -3.35933012 -3.4202671
 -3.46328144 -3.49195766 -3.50808804 -3.51704936 -3.51884162 -3.51884162
 -3.51884162 -3.51884162 -3.52242615 -3.53317974 -3.54751785 -3.57081728
 -3.60307803 -3.64430011 -3.69269124 -3.75362821 -3.82352651 -3.90238613
 -3.99199933 -4.09057386 -4.19631744 -4.3128146  -4.43289629 -4.55835477
 -4.68381326 -4.811064   -4.93293796 -5.05301965 -5.16414002 -5.2698836
 -5.37025039 -5.46165585 -5.54589227 -5.62475188 -5.69644245 -5.76275622
 -5.82190093 -5.87566885 -5.92405998 -5.97065885 -6.01367318 -6.05668752
 -6.09970186 -6.14809299 -6.19827638 -6.25383657 -6.31118901 -6.37033373
 -6.42768618 -6.48324636 -6.53342976 -6.57644409 -6.61228938 -6.6409656
 -6.6660573  -6.6857722  -6.70727937 -6.73416333 -6.77000861 -6.82019201
 -6.89188257 -6.98687256 -7.11053878 -7.26288123 -7.44389989 -7.65001026
 -7.872251   -8.10703759]",1.6212150444729354,-0.287031087716073,5.364495000000002,0.35746000000000144
033,1,2,csm,54a.png,1,0,0,221,360,1,1,423,neu_feedback_onset,12,"[ 4.28582523e-02  1.79295150e-02 -5.08162723e-03 -2.04223887e-02
 -3.19279598e-02 -3.76807453e-02 -3.76807453e-02 -3.19279598e-02
 -2.61751742e-02 -1.65871983e-02 -5.08162723e-03  4.50634868e-03
  1.40943246e-02  2.17647053e-02  2.75174909e-02  3.13526812e-02
  2.94350860e-02  2.36823005e-02  1.02591342e-02 -1.08344128e-02
 -4.34335309e-02 -8.75382201e-02 -1.43148480e-01 -2.12181907e-01
 -2.92720905e-01 -3.82847878e-01 -4.78727637e-01 -5.76524992e-01
 -6.72404751e-01 -7.60614129e-01 -8.37317936e-01 -8.94845792e-01
 -9.35115291e-01 -9.54291242e-01 -9.50456052e-01 -9.27444910e-01
 -8.87175411e-01 -8.29647556e-01 -7.58696534e-01 -6.80075131e-01
 -5.91865753e-01 -4.97903589e-01 -4.02023830e-01 -3.02308880e-01
 -2.04511526e-01 -1.04796577e-01 -1.08344128e-02  8.12101560e-02
  1.65584344e-01  2.42288151e-01  3.07486387e-01  3.61179053e-01
  4.01448551e-01  4.26377289e-01  4.35965265e-01  4.34047669e-01
  4.20624503e-01  3.97613361e-01  3.70767028e-01  3.43920696e-01
  3.17074363e-01  2.94063221e-01  2.76804865e-01  2.65299293e-01
  2.59546508e-01  2.59546508e-01  2.65299293e-01  2.71052079e-01
  2.80640055e-01  2.92145626e-01  3.05568792e-01  3.22827149e-01
  3.43920696e-01  3.72684624e-01  4.07201337e-01  4.47470836e-01
  4.95410715e-01  5.47185785e-01  6.04713641e-01  6.64159091e-01
  7.23604542e-01  7.84967588e-01  8.44413038e-01  9.07693680e-01
  9.72891916e-01  1.04576053e+00  1.12629953e+00  1.22026169e+00
  1.32956462e+00  1.45996109e+00  1.61145111e+00  1.78595227e+00
  1.98154698e+00  2.20015283e+00  2.43409944e+00  2.68146922e+00
  2.93075660e+00  3.17812638e+00  3.41399058e+00  3.63259643e+00
  3.82435595e+00  3.98926914e+00  4.12541840e+00  4.23472132e+00
  4.31909551e+00  4.38812894e+00  4.44757439e+00  4.50893743e+00
  4.57605326e+00  4.65659226e+00  4.75630721e+00  4.87711571e+00
  5.01710016e+00  5.17626056e+00  5.35076172e+00  5.53485085e+00
  5.72469278e+00  5.91453470e+00  6.09862384e+00  6.27120740e+00
  6.42653261e+00  6.56268187e+00  6.67198480e+00  6.75444139e+00
  6.81005165e+00  6.83498039e+00  6.83306279e+00  6.80621646e+00
  6.75827658e+00  6.69307834e+00  6.61637454e+00  6.53391794e+00
  6.44762616e+00  6.36708716e+00  6.29038336e+00  6.22518512e+00
  6.16957486e+00  6.12547017e+00  6.09095346e+00  6.06410712e+00
  6.04301358e+00  6.02383763e+00  6.00274408e+00  5.97589775e+00
  5.94138103e+00  5.89535875e+00  5.83783089e+00  5.76879747e+00
  5.68634087e+00  5.59621390e+00  5.50033414e+00  5.40445438e+00
  5.30857462e+00  5.21844765e+00  5.13790865e+00  5.06504003e+00
  5.00175939e+00  4.94998432e+00  4.90587963e+00  4.86944533e+00
  4.83876380e+00  4.81383507e+00  4.79082392e+00  4.76973038e+00
  4.75055442e+00  4.73329607e+00  4.71603771e+00  4.69877935e+00
  4.68152100e+00  4.66426264e+00  4.64700428e+00  4.62974593e+00
  4.61248757e+00  4.59522921e+00  4.57797086e+00  4.56263010e+00
  4.54537174e+00  4.52811338e+00  4.51085503e+00  4.49359667e+00
  4.47633831e+00  4.46099755e+00  4.44373920e+00  4.42648084e+00
  4.40922248e+00  4.39196413e+00  4.37470577e+00  4.35744741e+00
  4.34210665e+00  4.32484829e+00  4.30758994e+00  4.29033158e+00
  4.27307322e+00  4.25581487e+00  4.24047411e+00  4.22321575e+00
  4.20595739e+00  4.18869904e+00  4.17144068e+00  4.15418232e+00
  4.13692397e+00  4.12158320e+00  4.10432485e+00  4.08706649e+00
  4.06980814e+00  4.05254978e+00  4.03529142e+00  4.01803307e+00
  4.00269230e+00  3.98543395e+00  3.96817559e+00  3.95091723e+00
  3.93365888e+00  3.91640052e+00  3.90105976e+00  3.88380140e+00
  3.86654305e+00  3.84928469e+00  3.83202633e+00  3.81476798e+00
  3.79750962e+00  3.78216886e+00  3.76491050e+00  3.74765214e+00
  3.73039379e+00  3.71313543e+00  3.69587707e+00  3.67861872e+00
  3.66327796e+00  3.64601960e+00  3.62876124e+00  3.61150289e+00
  3.59424453e+00  3.57698617e+00  3.56164541e+00  3.54438706e+00
  3.52712870e+00  3.50987034e+00  3.49261199e+00  3.47535363e+00
  3.45809527e+00  3.44275451e+00  3.42549615e+00  3.40823780e+00
  3.39097944e+00  3.37372108e+00  3.35646273e+00  3.34112197e+00
  3.32386361e+00  3.30660525e+00  3.28934690e+00  3.27208854e+00
  3.25483018e+00  3.23757183e+00  3.22223106e+00  3.20497271e+00
  3.18771435e+00  3.17045599e+00  3.15319764e+00  3.13593928e+00]","[-1.38063315e+00 -1.05019276e+00 -7.33045939e-01 -4.40587196e-01
 -1.84211026e-01  3.22844066e-02  2.01302771e-01  3.22844066e-01
  3.98807376e-01  4.31091783e-01  4.29192700e-01  3.96908293e-01
  3.47532142e-01  2.86761494e-01  2.27889929e-01  1.74715612e-01
  1.36733957e-01  1.17743130e-01  1.25339461e-01  1.59522950e-01
  2.22192681e-01  3.13348653e-01  4.31091783e-01  5.71623906e-01
  7.31146856e-01  9.03963386e-01  1.08437625e+00  1.26289002e+00
  1.43570655e+00  1.59333042e+00  1.73006438e+00  1.83831210e+00
  1.91237632e+00  1.95225706e+00  1.95035798e+00  1.91237632e+00
  1.83641301e+00  1.72816530e+00  1.58953226e+00  1.43000931e+00
  1.24959644e+00  1.05399092e+00  8.50789069e-01  6.38091802e-01
  4.25394534e-01  2.10798184e-01 -1.89908274e-03 -2.10798184e-01
 -4.10201872e-01 -6.00110147e-01 -7.76724842e-01 -9.36247792e-01
 -1.07867900e+00 -1.20211938e+00 -1.30466984e+00 -1.38633040e+00
 -1.45089922e+00 -1.49837628e+00 -1.53635794e+00 -1.56674326e+00
 -1.59522950e+00 -1.62561483e+00 -1.65979832e+00 -1.70347722e+00
 -1.75475245e+00 -1.81932127e+00 -1.89148641e+00 -1.97314697e+00
 -2.06240386e+00 -2.15735800e+00 -2.25800938e+00 -2.36055985e+00
 -2.46500940e+00 -2.57135803e+00 -2.67960575e+00 -2.78975255e+00
 -2.90179843e+00 -3.01384431e+00 -3.12968836e+00 -3.24363333e+00
 -3.35757829e+00 -3.46772509e+00 -3.57217464e+00 -3.66712878e+00
 -3.74689025e+00 -3.80955998e+00 -3.84944072e+00 -3.86653246e+00
 -3.85893613e+00 -3.82475264e+00 -3.76967924e+00 -3.69751410e+00
 -3.61015629e+00 -3.51710124e+00 -3.42214710e+00 -3.33289021e+00
 -3.25312874e+00 -3.19045901e+00 -3.14488102e+00 -3.11829386e+00
 -3.11259662e+00 -3.12589020e+00 -3.15437644e+00 -3.19805534e+00
 -3.24743149e+00 -3.30250489e+00 -3.35567921e+00 -3.40505536e+00
 -3.44493610e+00 -3.47532142e+00 -3.49431225e+00 -3.49811041e+00
 -3.49051408e+00 -3.47152325e+00 -3.44113793e+00 -3.39935811e+00
 -3.34808288e+00 -3.28541315e+00 -3.21324800e+00 -3.12968836e+00
 -3.03283514e+00 -2.92268834e+00 -2.79924796e+00 -2.66441309e+00
 -2.51818372e+00 -2.36245893e+00 -2.19913782e+00 -2.03391762e+00
 -1.86679834e+00 -1.70157814e+00 -1.54015610e+00 -1.38443132e+00
 -1.23630287e+00 -1.09387166e+00 -9.59036785e-01 -8.29899159e-01
 -7.08357863e-01 -5.88715650e-01 -4.74770686e-01 -3.62724804e-01]",5.9341900509409236,0.7018060276886124,5.214865,
033,1,2,csp,42b.png,1,1,284,325,284,1,1,320,pos_feedback_onset,13,"[-0.92075056 -0.81511231 -0.71136045 -0.6076086  -0.50574314 -0.40576408
 -0.30389862 -0.20580595 -0.10582689 -0.00773423  0.08847204  0.18279191
  0.27333898  0.36011326  0.44311474  0.51857064  0.59025374  0.65439125
  0.71286957  0.7656887   0.81850782  0.86755415  0.91848688  0.96941961
  1.02223874  1.07883066  1.13730898  1.19767369  1.25992481  1.32028952
  1.38065424  1.44101896  1.49761088  1.5523164   1.60513553  1.65606826
  1.70511459  1.75416092  1.79943446  1.844708    1.88809513  1.92959588
  1.96921022  2.00882457  2.04655251  2.08805326  2.1314404   2.18048673
  2.23330585  2.29178417  2.35780808  2.42760478  2.50117428  2.58040297
  2.66340446  2.74829234  2.83695302  2.92938649  3.02747915  3.12934461
  3.23686926  3.3519395   3.47644173  3.60848954  3.74808295  3.89522194
  4.04802013  4.20270472  4.3573893   4.5045283   4.64223531  4.75919194
  4.85351181  4.91953572  4.94971808  4.94405889  4.89878535  4.81578386
  4.69694083  4.54980183  4.37625328  4.18761354  3.98954181  3.78958369
  3.59717116  3.41607701  3.25196044  3.10482144  2.98031922  2.87468096
  2.78979308  2.72188278  2.67283644  2.63888129  2.62379011  2.62756291
  2.65208607  2.69735961  2.76904271  2.86524898  2.98409201  3.12557181
  3.2821428   3.45003216  3.61792153  3.7801517   3.9272907   4.05179293
  4.1461128   4.21025031  4.23854627  4.23477347  4.20081832  4.14234
  4.06499771  3.97256424  3.87069878  3.76883332  3.67074066  3.58019358
  3.49907849  3.43494098  3.38778105  3.35948509  3.3500531   3.35948509
  3.38589465  3.42739539  3.48021452  3.54246563  3.60848954  3.67639985
  3.74053736  3.79901568  3.84806201  3.88956275  3.91785871  3.93672269
  3.94426828  3.94049548  3.9291771   3.90842673  3.88013077  3.84428921
  3.79901568  3.74619655  3.68394544  3.61037594  3.52737446  3.43494098
  3.32930273  3.21611889  3.09161666  2.96145524  2.82563463  2.68604123
  2.54456142  2.40308162  2.26348821  2.129554    1.99939258  1.87489035
  1.75604732  1.64663627  1.54288441  1.44856455  1.36179027  1.28822077
  1.22785605  1.18258252  1.15240016  1.14108177  1.14862736  1.17315053
  1.21087848  1.25803841  1.31085754  1.35990387  1.40329101  1.43158697
  1.43913256  1.42404138  1.38254064  1.31274393  1.22031046  1.10524022
  0.97319241  0.82793981  0.67891442  0.52800263  0.38275003  0.24504302
  0.12054079  0.00924335 -0.08696292 -0.16619161 -0.23221552 -0.28126185
 -0.315217   -0.33785377 -0.34539936 -0.33974017 -0.3189898  -0.28314825
 -0.23032912 -0.15864602 -0.06809895  0.0413121   0.16770073  0.30918053
  0.46197872  0.62232249  0.78643907  0.95055564  1.11089942  1.265584
  1.41460939  1.5542028   1.68436422  1.80886644  1.92770948  2.03900692
  2.14841797  2.25216983  2.35403529  2.45024155  2.53890223  2.62190371
  2.69170042  2.74829234  2.78790668  2.80488426  2.79922507  2.76715631
  2.70867799  2.62567651  2.51626546  2.38421764  2.23519225  2.06918928
  1.89375433  1.71077378  1.52024765  1.32783511  1.13353618  0.93735086
  0.74116553  0.54120741  0.34313568  0.14317756 -0.05489416 -0.25107949
 -0.44349202 -0.63024536 -0.81133951 -0.98488807 -1.15089104 -1.30557562
 -1.45082822 -1.58287604]","[-0.76091295 -0.70598661 -0.64739851 -0.58697953 -0.51923704 -0.44600191
 -0.36727415 -0.27756112 -0.18052458 -0.07433365  0.03918079  0.15635699
  0.27353319  0.38704764  0.48957681  0.57562808  0.63787794  0.6744955
  0.67998814  0.65252496  0.59210599  0.50422384  0.39070939  0.25888617
  0.11241592 -0.03954697 -0.19150985 -0.34164186 -0.48261947 -0.61627358
 -0.73894241 -0.8487951  -0.9494934  -1.03737555 -1.11427243 -1.18201492
 -1.23694126 -1.28271321 -1.31933078 -1.34679395 -1.36693361 -1.37974976
 -1.38890415 -1.39073502 -1.38707327 -1.37791888 -1.36510273 -1.34496307
 -1.32299253 -1.29552936 -1.26989707 -1.2424339  -1.22229424 -1.20947809
 -1.20764721 -1.22046336 -1.24975741 -1.29736024 -1.36327185 -1.44749225
 -1.54819054 -1.66170499 -1.7862047  -1.9198588  -2.06083642 -2.20364491
 -2.35011516 -2.49475453 -2.63756303 -2.77670977 -2.91219475 -3.04218709
 -3.16485593 -3.28203213 -3.39554657 -3.50356838 -3.60792843 -3.71045761
 -3.81115591 -3.91368508 -4.01621426 -4.12423607 -4.23408875 -4.35126495
 -4.47393379 -4.60758789 -4.75222726 -4.91151366 -5.0836162  -5.26853489
 -5.46993149 -5.68048247 -5.89652609 -6.11440059 -6.32678245 -6.52634817
 -6.70943598 -6.86872238 -7.00603824 -7.11589092 -7.2019422  -7.26419205
 -7.30813313 -7.33742718 -7.35390508 -7.35939771 -7.36122859 -7.35573596
 -7.34475069 -7.33193454 -7.31362576 -7.29165522 -7.26236117 -7.23123625
 -7.19644956 -7.159832   -7.12504531 -7.09941302 -7.084766   -7.084766
 -7.10673653 -7.14884673 -7.21292746 -7.29531698 -7.38869176 -7.48939006
 -7.58825748 -7.67797051 -7.75120563 -7.80613198 -7.83725691 -7.8464113
 -7.83542603 -7.8043011  -7.75852915 -7.69994105 -7.63219856 -7.55530167
 -7.47108128 -7.37953737]",3.7546381795510833,-0.21588943962988894,5.3011099999999995,0.11268499999999992
033,1,2,csm,51a.png,1,1,116,57,118,1,0,NaN,neu_feedback_onset,14,"[ 0.76290225  0.74385588  0.70957242  0.65814723  0.5895803   0.50387165
  0.4029259   0.29245697  0.17246486  0.04866347 -0.07513792 -0.19703467
 -0.30940824 -0.41416326 -0.50558582 -0.58367593 -0.64652894 -0.69414486
 -0.72271441 -0.73604687 -0.73414223 -0.7170005  -0.69224022 -0.66367067
 -0.63510112 -0.61795939 -0.61986403 -0.64462431 -0.70176341 -0.79318597
 -0.92270127 -1.08840467 -1.28458225 -1.50552011 -1.74169507 -1.9816793
 -2.21404498 -2.42926893 -2.61782797 -2.77400818 -2.89019103 -2.97018577
 -3.01208778 -3.0235156  -3.00446923 -2.9663765  -2.91114203 -2.84828902
 -2.77972209 -2.71305981 -2.65211143 -2.5987816  -2.5568796  -2.52450077
 -2.5054544  -2.49593122 -2.49593122 -2.50164513 -2.51307295 -2.52450077
 -2.53592859 -2.54735641 -2.55497496 -2.56449814 -2.57211669 -2.58163987
 -2.59497233 -2.6140187  -2.63687434 -2.66353925 -2.69401344 -2.72448763
 -2.75496182 -2.77972209 -2.79876846 -2.80638701 -2.80448237 -2.78734064
 -2.75496182 -2.7073459  -2.64068361 -2.55307032 -2.44641066 -2.32070464
 -2.17214297 -2.00453494 -1.81978518 -1.61979832 -1.41028828 -1.19315969
 -0.9760311  -0.76271178 -0.55701102 -0.3646427  -0.18370221 -0.01609418
  0.13627676  0.27721988  0.40673518  0.52482265  0.63719622  0.74004661
  0.83527844  0.92670101  1.01050502  1.08669049  1.15906669  1.22763361
  1.29048663  1.34953036  1.40666947  1.4599993   1.50951985  1.55904041
  1.60475169  1.6466537   1.68474643  1.71902989  1.74759944  1.76855045
  1.7818829   1.78759682  1.78759682  1.77807363  1.7609319   1.73617162
  1.70760207  1.67141397  1.62951197  1.58380068  1.53428013  1.4809503
  1.4238112   1.36476746  1.30381908  1.24287071  1.18001769  1.12097396
  1.06193022  1.00669575  0.95907983  0.91908246  0.89051291  0.87527582
  0.87718045  0.90003609  0.94765201  1.02383748  1.1285925   1.26191707
  1.42762047  1.61808414  1.83140346  2.06376914  2.30565801  2.54945151
  2.79324502  3.0256107   3.24464392  3.44653542  3.62938055  3.79317931
  3.93983633  4.07316091  4.19315302  4.30552659  4.41028161  4.51313199
  4.6121731   4.71121422  4.80835069  4.90358253  4.99500509  5.08071374
  5.16261312  5.23879859  5.30736552  5.36831389  5.41973908  5.46354573
  5.49973383  5.52830338  5.54734975  5.5606822   5.56639611  5.56639611
  5.55687293  5.54163584  5.51878019  5.48640137  5.446404    5.39688344
  5.33974434  5.27308205  5.19880122  5.11690184  5.02547928  4.9283428
  4.82739706  4.71883276  4.61026847  4.4978949   4.38742597  4.27695704
  4.17029738  4.06554236  3.96840589  3.87507869  3.78937003  3.70937529
  3.63699909  3.56843217  3.50557916  3.44653542  3.39130095  3.3417804
  3.29416448  3.25035783  3.2122651   3.17988627  3.15322136  3.13227036
  3.1189379   3.11131935  3.10751008  3.10941471  3.11131935  3.11131935
  3.10751008  3.09608226  3.07513125  3.04084779  2.99323187  2.9322835
  2.85609803  2.7665801   2.66563435  2.55707006  2.43898258  2.31518119
  2.18757053  2.05995987  1.93044457  1.80283391  1.67903252  1.55904041
  1.44666684  1.34191182  1.25048925  1.17239915  1.11145077  1.06954876
  1.04859776  1.05240703  1.07907195  1.13049714  1.20668261  1.30572372
  1.4238112   1.55523113]","[ 1.50282652e+00  1.31671798e+00  1.11703901e+00  9.07666897e-01
  6.98294780e-01  4.94738556e-01  3.00875486e-01  1.24460091e-01
 -3.25689959e-02 -1.74089037e-01 -2.94284141e-01 -3.98970199e-01
 -4.88147212e-01 -5.63753809e-01 -6.29667253e-01 -6.87826175e-01
 -7.38230573e-01 -7.82819079e-01 -8.19653063e-01 -8.52609785e-01
 -8.77811984e-01 -8.95259660e-01 -9.03014183e-01 -9.03014183e-01
 -8.91382399e-01 -8.68118830e-01 -8.33223478e-01 -7.86696341e-01
 -7.28537419e-01 -6.60685345e-01 -5.81201486e-01 -4.95901735e-01
 -4.06724722e-01 -3.15609079e-01 -2.26432067e-01 -1.43070946e-01
 -6.74643486e-02 -3.48953527e-03  4.49762324e-02  7.79329544e-02
  9.53806308e-02  9.53806308e-02  8.18102158e-02  5.66080166e-02
  2.17126639e-02 -1.89985809e-02 -5.97098258e-02 -9.84824399e-02
 -1.27561900e-01 -1.46948208e-01 -1.50825469e-01 -1.41132315e-01
 -1.15930116e-01 -7.71575021e-02 -2.28758423e-02  4.10989710e-02
  1.14766938e-01  1.96189427e-01  2.81489179e-01  3.70666191e-01
  4.61781834e-01  5.52897477e-01  6.42074490e-01  7.29312872e-01
  8.14612623e-01  8.94096482e-01  9.71641710e-01  1.04337105e+00
  1.11316175e+00  1.17907520e+00  1.24498864e+00  1.31284071e+00
  1.38457005e+00  1.46017665e+00  1.54159914e+00  1.63077615e+00
  1.72770769e+00  1.82851648e+00  1.93320254e+00  2.03788860e+00
  2.13675876e+00  2.22981304e+00  2.31317416e+00  2.38296486e+00
  2.44112379e+00  2.48765092e+00  2.52254628e+00  2.55162574e+00
  2.57682793e+00  2.60396876e+00  2.63692549e+00  2.68345262e+00
  2.74548881e+00  2.82691130e+00  2.93353598e+00  3.06730150e+00
  3.22626922e+00  3.41237777e+00  3.62174989e+00  3.84663105e+00
  4.08314399e+00  4.32353420e+00  4.56004715e+00  4.78105105e+00
  4.98460727e+00  5.16102267e+00  5.30835860e+00  5.42661507e+00
  5.51773072e+00  5.58170553e+00  5.62629404e+00  5.65343487e+00
  5.66700528e+00  5.67282117e+00  5.66894391e+00  5.65925076e+00
  5.63986445e+00  5.60884636e+00  5.56813511e+00  5.51385346e+00
  5.44794001e+00  5.37233341e+00  5.28703366e+00  5.19979528e+00
  5.11061827e+00  5.02919578e+00  4.95358918e+00  4.89155300e+00
  4.84308723e+00  4.81013051e+00  4.78880557e+00  4.77911242e+00
  4.78105105e+00  4.79074420e+00  4.80625325e+00  4.82951682e+00
  4.85859628e+00  4.89155300e+00  4.93420287e+00  4.98073001e+00]",5.07276188517135,4.855882193289245,5.250345,-0.06938000000000066
033,2,2,csp,9b.png,1,1,120,280,120,1,0,NaN,neg_feedback_onset,1,"[-1.00639565 -0.89523481 -0.78017359 -0.66121198 -0.53835    -0.41743821
 -0.29652642 -0.17951501 -0.06640398  0.04085648  0.14031618  0.23197512
  0.31778349  0.39384091  0.46404776  0.53035422  0.59081012  0.65126601
  0.70977172  0.77022762  0.83068351  0.89503979  0.95939607  1.02765272
  1.09590938  1.16416604  1.23437288  1.30262954  1.36893601  1.43134209
  1.48789761  1.54055274  1.58735731  1.62636111  1.65561396  1.67901625
  1.69461777  1.70436872  1.7082691   1.71216948  1.71802005  1.72582081
  1.74142233  1.76482461  1.79797785  1.84283222  1.89548736  1.95789344
  2.0261501   2.10025733  2.17631475  2.25237216  2.32842958  2.404487
  2.47664403  2.54880107  2.61705773  2.68531439  2.75162085  2.81792732
  2.88423378  2.95249044  3.02269729  3.09680452  3.17481212  3.2586703
  3.35227943  3.45368932  3.56875054  3.6974631   3.83787679  3.993892
  4.16160836  4.33907567  4.52629393  4.71741257  4.9085312   5.09379927
  5.27321677  5.43703275  5.58329701  5.70615899  5.8036685   5.87192516
  5.90897877  5.91677953  5.89922782  5.86022402  5.80561869  5.74906318
  5.69445785  5.65545405  5.63985253  5.65155367  5.69445785  5.77051527
  5.87387535  6.00453809  6.15470274  6.3204689   6.49208564  6.66565257
  6.8372693   7.00303547  7.15905069  7.30141457  7.43207731  7.54713853
  7.64854842  7.7324066   7.79871307  7.84941801  7.87867087  7.89037201
  7.88257125  7.85331839  7.80261345  7.73630698  7.65049861  7.54908872
  7.43597769  7.31311571  7.18245297  7.04593966  6.90942634  6.77291303
  6.63639971  6.50183659  6.36922366  6.23661073  6.10399779  5.97138486
  5.83292136  5.69250766  5.54819359  5.40387951  5.25956544  5.12500232
  5.00409052  4.90658101  4.83442398  4.79542017  4.79346998  4.82662322
  4.89683006  4.99823995  5.12695251  5.27321677  5.43313237  5.59694834
  5.76076432  5.92067991  6.07279475  6.21515863  6.34777157  6.47258374
  6.59154534  6.70855675  6.82556816  6.94647996  7.07324232  7.20780544
  7.35016933  7.50033397  7.654399    7.81041421  7.96252905  8.10879331
  8.24530662  8.36426823  8.46372793  8.54173553  8.59439067  8.62169333
  8.62364352  8.60024124  8.55538686  8.49103059  8.4091226   8.31551347
  8.20825301  8.09319179  7.97228     7.84746782  7.72070546  7.59199291
  7.46133017  7.33066742  7.20195487  7.07324232  6.94647996  6.82166778
  6.6988058   6.5798442   6.46478298  6.35362214  6.24636168  6.1430016
  6.04549209  5.94993277  5.85827383  5.76661489  5.67690614  5.58329701
  5.48773769  5.38827799  5.28101753  5.16985669  5.05089509  4.92608292
  4.79542017  4.66085705  4.52434374  4.38783042  4.25521749  4.12650494
  4.00364296  3.88468135  3.77157032  3.66235967  3.55119883  3.43418742
  3.30547487  3.16506117  3.00904596  2.83352884  2.64631058  2.44934137
  2.24847178  2.05540295  1.88183603  1.73362157  1.62246073  1.55225388
  1.5288516   1.54640331  1.60685921  1.70241853  1.82528051  1.97154477
  2.13146037  2.29917673  2.47079346  2.6424102   2.81012656  2.97394253
  3.13190794  3.28402277  3.42833685  3.56485016  3.69356271  3.81252432
  3.91783459  4.00754334  4.07775018  4.12650494  4.14990722  4.14795703
  4.12065437  4.06604904]","[ 2.24171822e+00  2.15603857e+00  2.01456753e+00  1.80933490e+00
  1.54034067e+00  1.21356249e+00  8.34978017e-01  4.24512747e-01
 -1.89292236e-03 -4.22320942e-01 -8.10868164e-01 -1.14760909e+00
 -1.40863312e+00 -1.57999241e+00 -1.64375400e+00 -1.59593281e+00
 -1.43055117e+00 -1.14960164e+00 -7.63046967e-01 -2.80849902e-01
  2.83041707e-01  9.12687462e-01  1.58816186e+00  2.29153196e+00
  3.00287226e+00  3.70624236e+00  4.38370931e+00  5.02331781e+00
  5.61112002e+00  6.14113828e+00  6.60938750e+00  7.01586767e+00
  7.36057880e+00  7.65348362e+00  7.89458216e+00  8.09582969e+00
  8.26121133e+00  8.39471217e+00  8.50230986e+00  8.58599696e+00
  8.64378090e+00  8.67964680e+00  8.68960955e+00  8.67366915e+00
  8.63581070e+00  8.57404166e+00  8.49035456e+00  8.38674197e+00
  8.26918153e+00  8.13767324e+00  7.99620220e+00  7.84676096e+00
  7.69333462e+00  7.53393063e+00  7.37452664e+00  7.21113756e+00
  7.04774847e+00  6.88435938e+00  6.71897774e+00  6.55558865e+00
  6.39020702e+00  6.22681793e+00  6.06342884e+00  5.90203230e+00
  5.74063576e+00  5.57923922e+00  5.41983524e+00  5.26242380e+00
  5.10501236e+00  4.94760092e+00  4.78819693e+00  4.62480784e+00
  4.45544111e+00  4.27810417e+00  4.08881193e+00  3.88756440e+00
  3.66838391e+00  3.43525558e+00  3.18618685e+00  2.92317027e+00
  2.64819839e+00  2.36525631e+00  2.08032168e+00  1.79737960e+00
  1.52240772e+00  1.25939114e+00  1.01829260e+00  7.99112120e-01
  6.09819883e-01  4.52408445e-01  3.30862904e-01  2.47175810e-01
  2.01347163e-01  1.93376964e-01  2.21272662e-01  2.83041707e-01
  3.76691550e-01  4.94251992e-01  6.35723032e-01  7.95127020e-01
  9.68478858e-01  1.15378599e+00  1.34507078e+00  1.54233322e+00
  1.74358075e+00  1.94482829e+00  2.14607582e+00  2.34732336e+00
  2.54458579e+00  2.74184823e+00  2.93711812e+00  3.13039545e+00
  3.32168024e+00  3.50897992e+00  3.69827216e+00  3.88357930e+00
  4.06888643e+00  4.25220102e+00  4.43352306e+00  4.61285254e+00
  4.79018948e+00  4.96553387e+00  5.13888571e+00  5.31024499e+00
  5.47961173e+00  5.64499337e+00  5.81236756e+00  5.97575665e+00
  6.13914573e+00  6.30054227e+00  6.45994626e+00  6.61337260e+00
  6.76281384e+00  6.90229233e+00  7.03380062e+00  7.15136106e+00
  7.25298110e+00  7.33666820e+00  7.40242234e+00  7.45024354e+00]",7.648353405665874,7.0195538880127355,5.127705000000001,-0.03666000000000036
033,2,2,csp,17b.png,1,1,80,353,81,1,1,594,neg_feedback_onset,2,"[-0.14711708 -0.01658806  0.11212805  0.23721835  0.35143124  0.449328
  0.52909573  0.57985702  0.59979895  0.57985702  0.52184412  0.42032155
  0.27710222  0.09581192 -0.11992353 -0.36103963 -0.62209766 -0.8922202
 -1.16415564 -1.43065238 -1.6862717  -1.92376199 -2.13949745 -2.33166516
 -2.50026514 -2.64348447 -2.76132317 -2.85559412 -2.92629734 -2.97524572
 -3.00606507 -3.02056829 -3.02056829 -3.00787797 -2.98793604 -2.96074249
 -2.92992314 -2.89729089 -2.86284573 -2.82658767 -2.79032961 -2.75225865
 -2.71237479 -2.67067802 -2.62535544 -2.58003287 -2.53108449 -2.48213611
 -2.43500063 -2.39149096 -2.35160709 -2.31897484 -2.2954071  -2.28090388
 -2.27909097 -2.28815549 -2.30628452 -2.33710387 -2.37517483 -2.4186845
 -2.46944579 -2.52020707 -2.57096835 -2.61991673 -2.66705221 -2.70874898
 -2.74500704 -2.77763929 -2.80664574 -2.83021348 -2.85196831 -2.86828444
 -2.88278766 -2.89366508 -2.89910379 -2.90091669 -2.89910379 -2.89547799
 -2.88822637 -2.88278766 -2.87734896 -2.87916186 -2.89003928 -2.90998121
 -2.94261346 -2.98793604 -3.04051022 -3.10033602 -3.16016182 -3.21636181
 -3.25987148 -3.28887793 -3.29612954 -3.28162632 -3.24536826 -3.19098117
 -3.12027795 -3.04232313 -2.9643683  -2.89185218 -2.83383928 -2.79214252
 -2.77038768 -2.76494897 -2.77763929 -2.79758122 -2.82114896 -2.8429038
 -2.85196831 -2.84652961 -2.82114896 -2.77220058 -2.70149737 -2.61085222
 -2.50026514 -2.37517483 -2.23739421 -2.09054906 -1.93645231 -1.77510395
 -1.61012978 -1.4397169  -1.26386531 -1.08438791 -0.90309762 -0.72180732
 -0.54414283 -0.37554285 -0.21782029 -0.07460096  0.04867644  0.15382482
  0.23903126  0.30792157  0.36049576  0.40581833  0.44388929  0.48196026
  0.52365702  0.5707925   0.62699249  0.692257    0.76477312  0.84272795
  0.92430858  1.00770212  1.09109566  1.17086339  1.24700531  1.31952143
  1.38841174  1.45367625  1.51894076  1.58420526  1.65309558  1.7274246
  1.81081814  1.90690199  2.01386327  2.13714067  2.27129549  2.41814063
  2.57405029  2.73358575  2.89312121  3.04540506  3.18681149  3.3119018
  3.41523727  3.49863081  3.56026951  3.59834047  3.6146566   3.61284369
  3.59471466  3.56026951  3.51494693  3.45874694  3.39348243  3.32096631
  3.24301149  3.15961795  3.0689728   2.97107604  2.86230186  2.74083736
  2.60668254  2.45621159  2.28761162  2.10450842  1.90690199  1.69841815
  1.4844956   1.26876015  1.0584634   0.85541827  0.66506346  0.49102477
  0.32967641  0.18645707  0.05592806 -0.06372354 -0.17068482 -0.27039448
 -0.36103963 -0.44443316 -0.52057509 -0.5876525  -0.6492912  -0.70186539
 -0.74537506 -0.77800731 -0.80338795 -0.81789118 -0.82332989 -0.82151698
 -0.81063956 -0.79251054 -0.76712989 -0.73449764 -0.69280087 -0.64203959
 -0.58040089 -0.51151057 -0.42992994 -0.33747189 -0.23776223 -0.13261385
 -0.02565258  0.07768289  0.17195385  0.24809577  0.30066996  0.3260506
  0.31879899  0.27710222  0.20096029  0.09581192 -0.03109129 -0.17431062
 -0.32296866 -0.4643751  -0.59127831 -0.69280087 -0.76531699 -0.80338795
 -0.80882666 -0.77982021 -0.72362022 -0.64385249 -0.54414283 -0.43355575
 -0.31209125 -0.18881384 -0.06191064  0.06680547  0.19370868  0.32061189
  0.4475151   0.5726054 ]","[-0.81604978 -0.74487985 -0.67563344 -0.60831053 -0.54098763 -0.47174121
 -0.39864777 -0.3197838  -0.23322578 -0.14089722 -0.03895111  0.06876554
  0.18417623  0.30535746  0.4284622   0.55349045  0.6785187   0.80354696
  0.92472818  1.04206239  1.15554957  1.26711324  1.37482989  1.48062303
  1.58641616  1.68836227  1.7922319   1.89417801  1.99420061  2.09037619
  2.18462826  2.27118628  2.35005025  2.42122018  2.48277255  2.53470736
  2.57702462  2.60972431  2.63665347  2.65588859  2.67127668  2.68281775
  2.6905118   2.69628233  2.70205287  2.70589989  2.70974691  2.71167043
  2.71551745  2.71744096  2.72128798  2.72321149  2.72705852  2.72898203
  2.73282905  2.73475256  2.73859959  2.7405231   2.74244661  2.74629363
  2.74821715  2.75206417  2.75398768  2.7578347   2.75975821  2.76168173
  2.76360524  2.76552875  2.76552875  2.76168173  2.75591119  2.74437012
  2.72513501  2.69435882  2.64627103  2.57894813  2.48277255  2.35389727
  2.18462826  1.97304199  1.71336792  1.40368256  1.04590941  0.64004847
  0.1957173  -0.28323708 -0.7852736  -1.30269821 -1.82589335 -2.34331796
 -2.84535448 -3.32623237 -3.77633408 -4.19181257 -4.5630503  -4.88620025
 -5.15933889 -5.37477218 -5.53057662 -5.6267522  -5.66329892 -5.64021678
 -5.56135281 -5.42863051 -5.25166744 -5.03623415 -4.79002467 -4.52073305
 -4.23797685 -3.94560309 -3.65515285 -3.3647026  -3.0819464  -2.80688425
 -2.53759263 -2.27407155 -2.01439748 -1.75472342 -1.49312585 -1.22383423
 -0.95069559 -0.66793939 -0.37941266 -0.08511539  0.21495242  0.51502022
  0.81316451  1.10553827  1.38829447  1.66143311  1.92110717  2.16731665
  2.40390858  2.62703592  2.84246921  3.05020846  3.25410069  3.45414589
  3.65419109  3.85231278]",2.750898973262377,1.5056286757104071,5.516015000000001,-0.18632000000000026
033,2,2,csp,13b.png,1,1,336,46,337,1,1,379,pos_feedback_onset,3,"[ 1.79023774  1.50942373  1.23635631  0.97490878  0.72701779  0.49461999
  0.27965202  0.08211389 -0.09799441 -0.25486292 -0.39236496 -0.51050051
 -0.60539628 -0.68092556 -0.73515172 -0.76807474 -0.78356793 -0.77969463
 -0.76032815 -0.72546848 -0.67705227 -0.62088946 -0.56085336 -0.49694397
 -0.43884452 -0.38655501 -0.3458854  -0.32070897 -0.31102573 -0.31489902
 -0.32845556 -0.34782205 -0.36331523 -0.36525188 -0.34782205 -0.30134248
 -0.22000325 -0.10380435  0.04919087  0.23317246  0.44233049  0.67085499
  0.90906274  1.14920714  1.38354159  1.6043195   1.80960423  1.99358582
  2.15820093  2.29957626  2.42158511  2.52229082  2.60750335  2.67334939
  2.72370225  2.75468863  2.76630852  2.75662527  2.7256389   2.66753945
  2.58620022  2.48162121  2.35767571  2.21436373  2.06136851  1.90256335
  1.74763148  1.6004462   1.46875412  1.35836516  1.27121598  1.21117988
  1.17632021  1.16276367  1.17244692  1.19955999  1.24022961  1.28864582
  1.34287197  1.40097142  1.45713423  1.51329703  1.56364988  1.61206609
  1.65467236  1.69340533  1.728265    1.75925137  1.78636445  1.80960423
  1.82897071  1.8405906   1.84252725  1.83478066  1.81154087  1.77087126
  1.71083516  1.63143258  1.53072686  1.41452796  1.28089922  1.1356506
  0.98459203  0.83159681  0.68441153  0.54884614  0.4307106   0.33775147
  0.27190543  0.24091906  0.246729    0.29127191  0.37648444  0.49849329
  0.6592351   0.85096329  1.07367785  1.32156884  1.58882631  1.87157697
  2.16594752  2.46419137  2.76437187  3.06261571  3.35311297  3.63199033
  3.89731116  4.1432655   4.36985336  4.57126479  4.74749979  4.89855836
  5.0244405   5.12320957  5.2006755   5.25490166  5.28782468  5.30331787
  5.30138122  5.28588803  5.25877495  5.22391528  5.18130902  5.1406394
  5.09996979  5.06704677  5.04380699  5.03025045  5.0283138   5.03799704
  5.05930017  5.09028655  5.12708287  5.16775248  5.21423204  5.2607116
  5.30912781  5.35948067  5.40789688  5.45631309  5.5047293   5.5531455
  5.60156171  5.64997792  5.69839413  5.74681034  5.79522655  5.84364276
  5.89205897  5.94047518  5.99082803  6.03924424  6.08766045  6.13801331
  6.18642952  6.23678237  6.28519858  6.33555144  6.38396765  6.43238386
  6.48273672  6.53115293  6.58150578  6.62992199  6.68027485  6.72869106
  6.77710727  6.82746012  6.87587633  6.92622919  6.9746454   7.02499826
  7.07341447  7.12376732  7.17218353  7.22059974  7.2709526   7.31936881
  7.36972166  7.41813787  7.46849073  7.51690694  7.56532315  7.61567601
  7.66409222  7.71444507  7.76286128  7.81321414  7.86163035  7.91004656
  7.96039941  8.00881562  8.05916848  8.10758469  8.15793755  8.20635376
  8.25670661  8.30512282  8.35353903  8.40389189  8.4523081   8.50266095
  8.55107716  8.60143002  8.64984623  8.69826244  8.7486153   8.79703151
  8.84738436  8.89580057  8.94615343  8.99456964  9.04298585  9.0933387
  9.14175491  9.19210777  9.24052398  9.29087684  9.33929305  9.3896459
  9.43806211  9.48647832  9.53683118  9.58524739  9.63560024  9.68401645
  9.73436931  9.78278552  9.83120173  9.88155459  9.9299708   9.98032365
 10.02873986 10.07909272 10.12750893 10.17592514 10.22627799 10.2746942
 10.32504706 10.37346327]","[-0.44366706 -0.36738683 -0.29288057 -0.22192223 -0.15628576 -0.0941972
 -0.03743053  0.01578823  0.06545907  0.10980804  0.14706117  0.17721847
  0.19850597  0.20914972  0.20737577  0.19141014  0.15947888  0.111582
  0.04949345 -0.02856073 -0.12258054 -0.22901806 -0.34964725 -0.48092019
 -0.62283688 -0.77184941 -0.92973172 -1.09116196 -1.25614011 -1.41934431
 -1.57900059 -1.73156103 -1.87525168 -2.01007254 -2.13247568 -2.24246112
 -2.3418028  -2.43050074 -2.51387679 -2.59015701 -2.66466328 -2.73916954
 -2.8136758  -2.89172998 -2.97333208 -3.06203001 -3.15427586 -3.25006963
 -3.34941131 -3.45052695 -3.55341656 -3.65630616 -3.75919576 -3.86385932
 -3.97029684 -4.08383019 -4.20091146 -4.32863648 -4.46345734 -4.60537403
 -4.7526126  -4.89985116 -5.04354181 -5.17658871 -5.29544394 -5.39655958
 -5.47816168 -5.54025023 -5.5845992  -5.61298254 -5.63249608 -5.64668775
 -5.66087942 -5.67861901 -5.70522839 -5.74248152 -5.79570028 -5.86133675
 -5.9447128  -6.04050657 -6.15049201 -6.26934724 -6.39884622 -6.53544103
 -6.67735772 -6.82459629 -6.97538278 -7.12794322 -7.28405158 -7.4419339
 -7.60336414 -7.76479437 -7.92799857 -8.09297672 -8.25618092 -8.42115907
 -8.58258931 -8.74224558 -8.89657999 -9.04559251 -9.18573524 -9.31700818
 -9.43586341 -9.53875301 -9.62745095 -9.69663533 -9.74630617 -9.77468951
 -9.77823743 -9.76049784 -9.71614888 -9.65051241 -9.56181448 -9.45182904
 -9.32233006 -9.17863941 -9.02253105 -8.85577894 -8.68547891 -8.51517888
 -8.34665281 -8.18344861 -8.03088817 -7.89074544 -7.76656833 -7.65480894
 -7.56078913 -7.48096099 -7.41532452 -7.3603318  -7.31420888 -7.27518179
 -7.23970261 -7.20777136 -7.17761406 -7.14745676 -7.11907343 -7.09069009
 -7.06230675 -7.03569737]",9.881277922319384,-0.3775467796925576,5.1635599999999995,0.3519300000000003
033,2,2,csm,23a.png,1,1,72,300,NaN,0,1,649,neu_feedback_onset,4,"[-4.99837911e-01 -4.71566536e-01 -4.33871369e-01 -3.86752411e-01
 -3.35863936e-01 -2.77436427e-01 -2.17124160e-01 -1.54927135e-01
 -9.27301101e-02 -3.05330850e-02  3.16639400e-02  9.19762068e-02
  1.52288474e-01  2.10715982e-01  2.67258732e-01  3.23801482e-01
  3.80344232e-01  4.33117466e-01  4.82121182e-01  5.27355382e-01
  5.68820066e-01  6.04630474e-01  6.32901849e-01  6.53634191e-01
  6.66827499e-01  6.72481774e-01  6.66827499e-01  6.53634191e-01
  6.31017091e-01  5.97091441e-01  5.49972483e-01  4.89660216e-01
  4.12385124e-01  3.18147207e-01  2.08831224e-01  8.25524151e-02
 -5.50349434e-02 -1.98276577e-01 -3.39633452e-01 -4.69681777e-01
 -5.82767278e-01 -6.69466161e-01 -7.24124153e-01 -7.42971736e-01
 -7.29778428e-01 -6.86428986e-01 -6.16692928e-01 -5.29994044e-01
 -4.33871369e-01 -3.35863936e-01 -2.43510777e-01 -1.62466169e-01
 -9.46148685e-02 -4.56111517e-02 -1.54550184e-02 -4.14646834e-03
 -1.35702600e-02 -3.99568767e-02 -8.51910768e-02 -1.47388102e-01
 -2.26547952e-01 -3.22670627e-01 -4.37640886e-01 -5.65804453e-01
 -7.09046086e-01 -8.59826753e-01 -1.02003121e+00 -1.18023567e+00
 -1.34044013e+00 -1.49499031e+00 -1.64011670e+00 -1.77393455e+00
 -1.89644384e+00 -2.00764458e+00 -2.10942153e+00 -2.20177469e+00
 -2.29035833e+00 -2.37517246e+00 -2.45810182e+00 -2.53914643e+00
 -2.62019104e+00 -2.69935089e+00 -2.77285646e+00 -2.84259252e+00
 -2.90102003e+00 -2.95002375e+00 -2.98394940e+00 -3.00468174e+00
 -3.01410553e+00 -3.01033601e+00 -2.99902746e+00 -2.98394940e+00
 -2.97264085e+00 -2.96698657e+00 -2.97641036e+00 -3.00279698e+00
 -3.04803118e+00 -3.11211296e+00 -3.19881185e+00 -3.30247356e+00
 -3.42309809e+00 -3.55314642e+00 -3.69261853e+00 -3.83397541e+00
 -3.97533228e+00 -4.11291964e+00 -4.24108321e+00 -4.35793823e+00
 -4.46159993e+00 -4.54452930e+00 -4.60672633e+00 -4.64442149e+00
 -4.65573004e+00 -4.63876722e+00 -4.59541778e+00 -4.52568172e+00
 -4.43332856e+00 -4.32401258e+00 -4.20150328e+00 -4.07522447e+00
 -3.95083042e+00 -3.83586017e+00 -3.73408322e+00 -3.65303861e+00
 -3.59084158e+00 -3.55314642e+00 -3.53618359e+00 -3.53995311e+00
 -3.55691593e+00 -3.58518731e+00 -3.62288247e+00 -3.66057764e+00
 -3.70015757e+00 -3.73596797e+00 -3.76612411e+00 -3.79251072e+00
 -3.81324307e+00 -3.83020589e+00 -3.84151444e+00 -3.85282299e+00
 -3.86036202e+00 -3.86790106e+00 -3.87355533e+00 -3.87732485e+00
 -3.87732485e+00 -3.87355533e+00 -3.86224678e+00 -3.84528396e+00
 -3.82078210e+00 -3.78685645e+00 -3.74162225e+00 -3.68696426e+00
 -3.62288247e+00 -3.54937690e+00 -3.46833229e+00 -3.37974865e+00
 -3.28739549e+00 -3.19127281e+00 -3.09515014e+00 -2.99902746e+00
 -2.90478955e+00 -2.81620591e+00 -2.73327654e+00 -2.65600145e+00
 -2.58438063e+00 -2.51841409e+00 -2.45621706e+00 -2.39778956e+00
 -2.34313156e+00 -2.28847357e+00 -2.23570034e+00 -2.18292711e+00
 -2.13203863e+00 -2.08491967e+00 -2.03968547e+00 -2.00010555e+00
 -1.96806465e+00 -1.94356280e+00 -1.93036949e+00 -1.92471521e+00
 -1.93036949e+00 -1.94356280e+00 -1.96617990e+00 -1.99445127e+00
 -2.02837692e+00 -2.06607209e+00 -2.10753677e+00 -2.14900146e+00
 -2.19423566e+00 -2.24135461e+00 -2.29035833e+00 -2.34313156e+00
 -2.40155907e+00 -2.46564086e+00 -2.53914643e+00 -2.61830628e+00
 -2.70500516e+00 -2.79735832e+00 -2.89536576e+00 -2.99337319e+00
 -3.09326538e+00 -3.19127281e+00 -3.28362597e+00 -3.37032486e+00
 -3.45136947e+00 -3.52487504e+00 -3.59272634e+00 -3.65680812e+00
 -3.71900515e+00 -3.77931742e+00 -3.84151444e+00 -3.90559622e+00
 -3.97344752e+00 -4.04318358e+00 -4.11857392e+00 -4.19396425e+00
 -4.27312410e+00 -4.35228395e+00 -4.43521332e+00 -4.51814268e+00
 -4.60295681e+00 -4.68965569e+00 -4.77635458e+00 -4.86493822e+00
 -4.95352186e+00 -5.04399026e+00 -5.13445866e+00 -5.22492706e+00
 -5.31351070e+00 -5.40209434e+00 -5.48502371e+00 -5.56795308e+00
 -5.64522817e+00 -5.72250326e+00 -5.79789359e+00 -5.87328393e+00
 -5.95244378e+00 -6.03725790e+00 -6.12961106e+00 -6.23138801e+00
 -6.34447351e+00 -6.46509805e+00 -6.59703113e+00 -6.73838800e+00
 -6.88351440e+00 -7.03241030e+00 -7.17942145e+00 -7.31889357e+00
 -7.44705714e+00 -7.55825788e+00 -7.64684152e+00 -7.70903855e+00
 -7.73919468e+00 -7.73542516e+00 -7.69584524e+00 -7.61857015e+00
 -7.50548465e+00 -7.35470398e+00 -7.16811290e+00 -6.94948094e+00]","[-1.38468051e+00 -1.26771233e+00 -1.13774768e+00 -9.96643199e-01
 -8.42542257e-01 -6.81014764e-01 -5.12060719e-01 -3.39393399e-01
 -1.64869441e-01  4.08460327e-03  1.67468734e-01  3.23426314e-01
  4.66387428e-01  5.98208716e-01  7.17033538e-01  8.24718534e-01
  9.23120340e-01  1.01595223e+00  1.10135757e+00  1.18490628e+00
  1.26474170e+00  1.33900722e+00  1.40955946e+00  1.47082851e+00
  1.52095773e+00  1.55252057e+00  1.56366040e+00  1.54695066e+00
  1.50424799e+00  1.42998247e+00  1.32601075e+00  1.19418947e+00
  1.03823189e+00  8.65564566e-01  6.78044143e-01  4.84953807e-01
  2.90006832e-01  1.00629772e-01 -7.94641001e-02 -2.48418145e-01
 -4.06232362e-01 -5.52906752e-01 -6.88441315e-01 -8.16549327e-01
 -9.37230788e-01 -1.05419897e+00 -1.16931052e+00 -1.28256543e+00
 -1.39396370e+00 -1.50350533e+00 -1.60933369e+00 -1.70773550e+00
 -1.79871075e+00 -1.87483290e+00 -1.93795859e+00 -1.98251790e+00
 -2.01036747e+00 -2.02150729e+00 -2.01965066e+00 -2.00479755e+00
 -1.98623117e+00 -1.96395152e+00 -1.94352850e+00 -1.93053204e+00
 -1.92681876e+00 -1.93795859e+00 -1.96395152e+00 -2.01036747e+00
 -2.07534979e+00 -2.16446841e+00 -2.27957995e+00 -2.41697116e+00
 -2.58035529e+00 -2.76416243e+00 -2.96096605e+00 -3.16705285e+00
 -3.37128301e+00 -3.56066007e+00 -3.72775748e+00 -3.86514868e+00
 -3.96355049e+00 -4.02110626e+00 -4.03967264e+00 -4.02110626e+00
 -3.97097704e+00 -3.89671152e+00 -3.80573627e+00 -3.70547782e+00
 -3.60336274e+00 -3.50496094e+00 -3.41769896e+00 -3.34343344e+00
 -3.28402103e+00 -3.24503164e+00 -3.22275198e+00 -3.21718207e+00
 -3.22832190e+00 -3.25245819e+00 -3.28959095e+00 -3.33415025e+00
 -3.38613611e+00 -3.44369189e+00 -3.50310430e+00 -3.56622999e+00
 -3.63121231e+00 -3.69619464e+00 -3.75932032e+00 -3.82244601e+00
 -3.88371506e+00 -3.93755756e+00 -3.98397350e+00 -4.02110626e+00
 -4.04709919e+00 -4.06195229e+00 -4.06566557e+00 -4.06195229e+00
 -4.04895583e+00 -4.03595936e+00 -4.02110626e+00 -4.01182307e+00
 -4.00996643e+00 -4.01367971e+00 -4.02667617e+00 -4.04338591e+00
 -4.06380893e+00 -4.08423195e+00 -4.09908505e+00 -4.10465496e+00
 -4.09908505e+00 -4.07866203e+00 -4.04338591e+00 -3.99325669e+00
 -3.93013100e+00 -3.85586549e+00 -3.77231679e+00 -3.68505481e+00
 -3.59593619e+00 -3.50681757e+00 -3.42326887e+00 -3.34529008e+00]",0.15063931002765193,0.552674672489089,5.305720000000001,
033,2,2,csm,53a.png,1,1,272,308,271,1,1,273,neu_feedback_onset,5,"[ 0.20765647  0.12182383  0.03989267 -0.03423552 -0.10446222 -0.16493522
 -0.21370377 -0.2527186  -0.27807825 -0.28588121 -0.2761275  -0.24686638
 -0.19614709 -0.12592038 -0.03228478  0.08085825  0.21155795  0.35786359
  0.51587367  0.6758345   0.83579533  0.98990394  1.13230809  1.25910631
  1.36834785  1.46198346  1.54001313  1.60828909  1.66681135  1.72143212
  1.7721514   1.82482143  1.87554072  1.92626001  1.97112707  2.00819116
  2.03355081  2.04525526  2.03940303  2.01794487  1.97893004  1.92821075
