sub,run,cat_cond,trial_type,picture,old,response_old,target_pos,response_pos,dot_resp_loc,cat_corr,TN_corr,TN_rt,feedback_type,trial,SP_timeseries,FB_timeseries,SP_peak_response,FB_peak_response,preStim_bl,anticipation
007,1,1,csp,33a.png,1,1,104,128,104,1,1,438,pos_feedback_onset,1,"[-0.51496623 -0.45511714 -0.39702832 -0.34069976 -0.28261093 -0.22452211
 -0.16291275 -0.09778286 -0.03441323  0.03071667  0.09408629  0.15041485
  0.20146261  0.24370902  0.27715411  0.29827731  0.30883892  0.31059919
  0.30355812  0.29123624  0.27715411  0.26307197  0.2560309   0.25779116
  0.2718733   0.30179785  0.34580453  0.40389336  0.47606432  0.56055716
  0.65209107  0.74714551  0.84043968  0.93021332  1.01118562  1.08335658
  1.14496594  1.19777397  1.24002038  1.276986    1.31043108  1.34387616
  1.37732124  1.41428686  1.45653328  1.5040605   1.55510825  1.60791627
  1.66248456  1.71353232  1.75929927  1.79626489  1.82090863  1.83499077
  1.83499077  1.8226689   1.79802516  1.76281981  1.72057339  1.67304617
  1.62727922  1.58327253  1.54806718  1.52518371  1.51638237  1.52694397
  1.55686852  1.61319708  1.69592965  1.80858676  1.95468896  2.1359965
  2.35250939  2.60422763  2.88763069  3.20271856  3.53892963  3.89274339
  4.25183794  4.60917223  4.95242437  5.27455331  5.56499743  5.81671568
  6.0261875   6.18461157  6.29198788  6.34831644  6.35183697  6.30607002
  6.21277584  6.07547499  5.90296878  5.69877776  5.47346353  5.23406716
  4.98938999  4.74999362  4.52643966  4.3240089   4.14798216  4.00364023
  3.89098312  3.80825055  3.75368226  3.72023718  3.7026345   3.69911397
  3.7026345   3.71319611  3.72903852  3.75016172  3.78008627  3.82233269
  3.87514071  3.94027061  4.01420184  4.0916536   4.16558484  4.22543393
  4.26063928  4.26592008  4.232475    4.15502323  4.03532505  3.87690098
  3.6867921   3.47203947  3.24848551  3.02493155  2.81369946  2.62359058
  2.46516651  2.34194779  2.25745495  2.20992773  2.19936613  2.2222496
  2.27329736  2.34722859  2.4387625   2.54261827  2.65527539  2.77145304
  2.88939096  3.00556861  3.11822572  3.22912257  3.33473861  3.43507386
  3.5301283   3.61814167  3.69559343  3.75896306  3.80296975  3.82233269
  3.81353135  3.76952467  3.6867921   3.56357338  3.39986851  3.20095829
  2.97036326  2.71512448  2.44756383  2.17648265  1.91244254  1.6660051
  1.44245114  1.25058199  1.09215792  0.9689392   0.87916556  0.82283701
  0.79467273  0.79291246  0.81403567  0.85452182  0.91261064  0.99006241
  1.08335658  1.19249316  1.31571188  1.45125247  1.59735467  1.7469774
  1.8983604   2.04270233  2.17648265  2.2979411   2.40003661  2.48452945
  2.54965934  2.6007071   2.63767272  2.66759726  2.69224101  2.71688475
  2.74152849  2.76969277  2.79961732  2.8277816   2.85594588  2.87706908
  2.89115122  2.89467176  2.88763069  2.86826775  2.83658293  2.79609678
  2.7468093   2.69048074  2.62887138  2.56550175  2.49861159  2.43172143
  2.36483127  2.30146164  2.24161255  2.18880452  2.14479784  2.11135276
  2.09375008  2.09022955  2.10431169  2.13423623  2.17824292  2.23633174
  2.30322191  2.3736326   2.4440433   2.50917319  2.56550175  2.60950844
  2.63591245  2.64647405  2.63943298  2.61478924  2.57782362  2.5302964
  2.47748838  2.42292009  2.3736326   2.33490672  2.31202324  2.30850271
  2.32610538  2.36659153  2.42996116  2.51269373  2.60774817  2.70808341
  2.80665839  2.89291149  2.96156192  3.00204807  3.01084941  2.98268513
  2.92107577  2.82426106]","[-1.98524432 -1.89831328 -1.78008705 -1.63230427 -1.45148769 -1.24285318
 -1.00987797 -0.75603932 -0.48655307 -0.20837372  0.07328287  0.35320084
  0.62790295  0.89391196  1.15296648  1.40158927  1.64325758  1.87797141
  2.10399213  2.32305837  2.52995427  2.72120257  2.89506466  3.04632469
  3.17150539  3.26886817  3.338413    3.38361715  3.40621922  3.41491233
  3.41491233  3.41143508  3.40969646  3.41143508  3.42012819  3.43229854
  3.44794612  3.46011647  3.46707095  3.46185509  3.4375144   3.39231025
  3.31754955  3.2132323   3.07414262  2.90028053  2.69164601  2.45171632
  2.18223008  1.88666452  1.5702355   1.2381589   0.89217334  0.53575604
  0.17412289 -0.19098751 -0.55957515 -0.92816279 -1.29501181 -1.65838359
 -2.0165395  -2.36947955 -2.7137265  -3.0458031  -3.36744797 -3.67344526
 -3.9672722  -4.24545155 -4.50972193 -4.76529921 -5.01044477 -5.25211308
 -5.49030415 -5.73023384 -5.96842491 -6.21009322 -6.45002291 -6.68821398
 -6.9229278  -7.14894853 -7.36453752 -7.56621755 -7.75398861 -7.92611209
 -8.08084935 -8.21820041 -8.33990387 -8.44248251 -8.52593631 -8.59026529
 -8.63373081 -8.65111702 -8.64242392 -8.60417426 -8.53462942 -8.43031216
 -8.29122249 -8.11909901 -7.91220312 -7.67575067 -7.41495753 -7.13156232
 -6.83425813 -6.52826085 -6.22226356 -5.92148214 -5.63113244 -5.35816895
 -5.10259168 -4.86787785 -4.65402747 -4.46104055 -4.28543983 -4.12374808
 -3.9759653  -3.83687563 -3.70647906 -3.58303697 -3.46654937 -3.35701625
 -3.25617623 -3.16576794 -3.08579138 -3.01798516 -2.96408792 -2.92062239
 -2.88932721 -2.86498652 -2.84760031 -2.83195272 -2.81804376 -2.79891893
 -2.77805547 -2.74849892 -2.7137265  -2.6719996  -2.62679545 -2.57637544
 -2.52421682 -2.47205819]",4.449163916982268,2.53047585185906,5.680955,0.2039250000000008
007,1,1,csp,28a.png,1,1,116,129,116,1,1,468,pos_feedback_onset,2,"[ 0.8173093   0.81027414  0.77685715  0.71354074  0.62032492  0.50072726
  0.36002413  0.20525069  0.04520088 -0.10957256 -0.25203448 -0.37163214
 -0.46308917 -0.52464679 -0.556305   -0.55982257 -0.54223468 -0.51585285
 -0.48595343 -0.46836554 -0.47364191 -0.51057648 -0.58972199 -0.71987238
 -0.90454524 -1.14725814 -1.44801107 -1.80328647 -2.20780797 -2.65278161
 -3.12765467 -3.61659804 -4.10730021 -4.58569084 -5.03945843 -5.45805024
 -5.83267232 -6.1598071  -6.43769578 -6.66282078 -6.84221727 -6.97764403
 -7.07437743 -7.14121142 -7.17990478 -7.20101025 -7.2080454  -7.20628662
 -7.20101025 -7.19925146 -7.20452783 -7.21683935 -7.24322119 -7.28015576
 -7.32940185 -7.38920068 -7.45603467 -7.52638623 -7.5967378  -7.66533057
 -7.72688819 -7.78492823 -7.83593312 -7.87990284 -7.92211378 -7.96080714
 -7.99774171 -8.0329175  -8.06633449 -8.09799269 -8.12261574 -8.13668605
 -8.14020363 -8.12789211 -8.09799269 -8.0487466  -7.98191261 -7.89573195
 -7.79548097 -7.68291846 -7.55980323 -7.42789404 -7.29246728 -7.15528173
 -7.0145786  -6.87211669 -6.72613719 -6.5783989  -6.42714304 -6.26885202
 -6.10528463 -5.93468209 -5.75704439 -5.57237153 -5.38242231 -5.1907143
 -4.99900628 -4.81081585 -4.63141936 -4.4643344  -4.31307853 -4.18644572
 -4.08267716 -4.00880802 -3.9630795  -3.94900919 -3.96132071 -3.99649649
 -4.05277774 -4.11961173 -4.19523966 -4.2691088  -4.33770158 -4.39398283
 -4.43443498 -4.45729924 -4.4643344  -4.45202287 -4.42388225 -4.38518889
 -4.334184   -4.27614396 -4.21106876 -4.14247599 -4.06860685 -3.99122012
 -3.91031583 -3.82413516 -3.73091934 -3.63242715 -3.52865859 -3.41609609
 -3.29825722 -3.17690077 -3.04850916 -2.91835877 -2.7846908  -2.65278161
 -2.51911364 -2.38896325 -2.25881285 -2.13218004 -2.00554722 -1.87715562
 -1.74876401 -1.61509604 -1.4761517  -1.33193099 -1.18243392 -1.02941927
 -0.87464582 -0.72338996 -0.58092804 -0.44901886 -0.33645636 -0.24324053
 -0.17464776 -0.13067803 -0.11309014 -0.11660772 -0.14298955 -0.18871807
 -0.2485169  -0.31710968 -0.3944964  -0.47188312 -0.54926984 -0.6196214
 -0.68293781 -0.73218391 -0.76911848 -0.79198274 -0.80253547 -0.79901789
 -0.79022395 -0.77615363 -0.76384211 -0.75680695 -0.75856574 -0.77263606
 -0.80077668 -0.84122883 -0.89751008 -0.96258528 -1.03821321 -1.11735872
 -1.19826302 -1.27916732 -1.35655404 -1.42514681 -1.48670443 -1.53770932
 -1.57464389 -1.59750815 -1.60278451 -1.59047299 -1.55881479 -1.50605111
 -1.43394076 -1.34424252 -1.23519759 -1.11208235 -0.97841438 -0.83771125
 -0.69700812 -0.55982257 -0.43143097 -0.31710968 -0.22037628 -0.14650713
 -0.09726104 -0.07263799 -0.07263799 -0.09198467 -0.13067803 -0.18168291
 -0.23972296 -0.29952179 -0.35404425 -0.39977276 -0.43143097 -0.44550128
 -0.44022491 -0.41560187 -0.37339093 -0.31535089 -0.24675811 -0.17288897
 -0.09901983 -0.03218584  0.02233662  0.0575124   0.06982393  0.05575361
  0.01530147 -0.05153252 -0.14298955 -0.25203448 -0.37514972 -0.50354132
 -0.63369172 -0.75680695 -0.86585188 -0.96082649 -1.03645442 -1.09273567
 -1.12791146 -1.14374056 -1.14374056 -1.12967024 -1.10680599 -1.08042415
 -1.05228352 -1.02941927 -1.01534895 -1.01359016 -1.0241429  -1.05228352
 -1.09801204 -1.16132845]","[-1.50152393 -1.43244543 -1.34469706 -1.23641184 -1.10945675 -0.96756578
 -0.80887192 -0.63710916 -0.45227749 -0.25811089 -0.05274237  0.16196108
  0.38413248  0.61563881  0.85087912  1.08985339  1.32882767  1.56406798
  1.79370732  2.01214475  2.21751327  2.40421192  2.5741077   2.72533361
  2.85975664  2.97737679  3.08192804  3.17714435  3.26862669  3.35450807
  3.44225644  3.53000481  3.61962016  3.70736853  3.79324991  3.87166334
  3.93887486  3.9892835   4.0172883   4.01915528  3.99115048  3.93140691
  3.84365855  3.72790538  3.58974838  3.43292151  3.26489272  3.09312996
  2.92136719  2.75707238  2.60024551  2.45462056  2.32206451  2.20071039
  2.0886912   1.98974091  1.89825857  1.81611116  1.73956471  1.67048621
  1.60514168  1.54166414  1.47631961  1.41097508  1.33629562  1.25414821
  1.15706491  1.04131174  0.90688871  0.74819486  0.56336319  0.35052672
  0.10781847 -0.16662855 -0.47281434 -0.81260589 -1.18226923 -1.58367134
 -2.01307824 -2.46862296 -2.94283754 -3.433855   -3.93047342 -4.42709184
 -4.91624232 -5.38858991 -5.83666668 -6.25113769 -6.63013596 -6.96432655
 -7.25184248 -7.49268375 -7.68311637 -7.82687434 -7.92022366 -7.96876532
 -7.97249929 -7.93515956 -7.85674612 -7.73912597 -7.58416609 -7.39373346
 -7.17156206 -6.9157849  -6.63200295 -6.3202162  -5.98602561 -5.63316515
 -5.26350181 -4.88076957 -4.49056938 -4.09850221 -3.70456805 -3.31810183
 -2.94097055 -2.57877516 -2.23898361 -1.92532987 -1.64154792 -1.39137172
 -1.17666827 -1.00303852 -0.8667485  -0.7696652  -0.70618766 -0.67631588
 -0.6725819  -0.69125177 -0.72485753 -0.76593123 -0.80887192 -0.84994562
 -0.87981741 -0.89662029 -0.8947533  -0.87234946 -0.82754179 -0.76033027
 -0.67071492 -0.56056271]",-2.4227841954882478e-14,3.056116948037092,5.685730000000001,-0.05521499999999957
007,1,1,csm,19b.png,1,1,16,277,19,1,1,480,neu_feedback_onset,3,"[-1.20149578e+00 -1.05884652e+00 -9.06934329e-01 -7.47611783e-01
 -5.86436649e-01 -4.28966691e-01 -2.77054497e-01 -1.34405241e-01
 -2.87151100e-03  1.13841517e-01  2.17586430e-01  3.08363229e-01
  3.86171915e-01  4.52865073e-01  5.14000469e-01  5.69578101e-01
  6.23303145e-01  6.73323014e-01  7.21490296e-01  7.64099814e-01
  8.01151569e-01  8.28940385e-01  8.41908499e-01  8.40055911e-01
  8.21530034e-01  7.86330867e-01  7.36310998e-01  6.73323014e-01
  6.04777268e-01  5.36231522e-01  4.71390951e-01  4.19518494e-01
  3.80614151e-01  3.62088274e-01  3.63940862e-01  3.86171915e-01
  4.26928845e-01  4.84359065e-01  5.51052224e-01  6.25155733e-01
  7.01111831e-01  7.71510165e-01  8.34498148e-01  8.84518017e-01
  9.16012008e-01  9.27127535e-01  9.12306833e-01  8.69697315e-01
  7.99298981e-01  6.95554067e-01  5.64020338e-01  4.04697792e-01
  2.21291606e-01  1.75069542e-02 -2.01098399e-01 -4.27114104e-01
 -6.53129808e-01 -8.73587749e-01 -1.08107758e+00 -1.26818894e+00
 -1.43492183e+00 -1.57386592e+00 -1.68502118e+00 -1.76653504e+00
 -1.81840750e+00 -1.84249114e+00 -1.83878596e+00 -1.80914456e+00
 -1.75912469e+00 -1.68502118e+00 -1.59424438e+00 -1.48864688e+00
 -1.37008126e+00 -1.24225271e+00 -1.11071898e+00 -9.77332663e-01
 -8.45798933e-01 -7.21675554e-01 -6.04962527e-01 -4.97512438e-01
 -4.01177875e-01 -3.15958839e-01 -2.40002742e-01 -1.69604408e-01
 -1.02911249e-01 -3.80706781e-02  2.67698929e-02  9.53156393e-02
  1.65713973e-01  2.39817483e-01  3.12068405e-01  3.82466739e-01
  4.49159898e-01  5.04737530e-01  5.49199636e-01  5.80693627e-01
  5.97366917e-01  5.97366917e-01  5.82546215e-01  5.52904811e-01
  5.14000469e-01  4.63980600e-01  4.10255555e-01  3.50972748e-01
  2.93542528e-01  2.37964895e-01  1.86092439e-01  1.41630333e-01
  1.08283753e-01  8.42001128e-02  7.30845864e-02  7.67897619e-02
  9.34630515e-02  1.23104455e-01  1.63861386e-01  2.17586430e-01
  2.78721826e-01  3.47267572e-01  4.21371082e-01  4.99179767e-01
  5.78841040e-01  6.60354900e-01  7.43721349e-01  8.28940385e-01
  9.16012008e-01  1.00308363e+00  1.09200784e+00  1.18093206e+00
  1.26800368e+00  1.34766495e+00  1.41991587e+00  1.48290386e+00
  1.53107114e+00  1.56441772e+00  1.58109101e+00  1.58109101e+00
  1.56441772e+00  1.53662890e+00  1.49957715e+00  1.45326245e+00
  1.40509517e+00  1.35878048e+00  1.31802355e+00  1.28652956e+00
  1.26615109e+00  1.26244592e+00  1.27911921e+00  1.31987614e+00
  1.38471671e+00  1.47734609e+00  1.60146947e+00  1.75338167e+00
  1.93308268e+00  2.13316215e+00  2.35362010e+00  2.58148839e+00
  2.81120927e+00  3.03537238e+00  3.24656739e+00  3.43923651e+00
  3.60782200e+00  3.75232384e+00  3.87274204e+00  3.97092919e+00
  4.04688529e+00  4.10987327e+00  4.15804055e+00  4.20065007e+00
  4.23955442e+00  4.27660617e+00  4.31551051e+00  4.35626744e+00
  4.40072955e+00  4.44704424e+00  4.49335894e+00  4.53967363e+00
  4.58598832e+00  4.62674525e+00  4.66379701e+00  4.69714359e+00
  4.72863758e+00  4.76013157e+00  4.79533074e+00  4.83794026e+00
  4.88981271e+00  4.95650587e+00  5.03616714e+00  5.13064912e+00
  5.23439403e+00  5.34554930e+00  5.45855715e+00  5.56600724e+00
  5.66604698e+00  5.75311860e+00  5.82907470e+00  5.89206268e+00
  5.94949290e+00  6.00321794e+00  6.05879558e+00  6.11993097e+00
  6.19032931e+00  6.27184317e+00  6.36261997e+00  6.45895453e+00
  6.55714168e+00  6.65162365e+00  6.73499010e+00  6.80538844e+00
  6.85911348e+00  6.89246006e+00  6.90913335e+00  6.90913335e+00
  6.89801782e+00  6.87578677e+00  6.85170313e+00  6.82391431e+00
  6.79797809e+00  6.77389445e+00  6.75351598e+00  6.73684269e+00
  6.72016940e+00  6.70534870e+00  6.69238058e+00  6.67755988e+00
  6.66273918e+00  6.64977107e+00  6.63680295e+00  6.62383484e+00
  6.61457190e+00  6.60716155e+00  6.60345637e+00  6.60160379e+00
  6.60160379e+00  6.60345637e+00  6.60530896e+00  6.60530896e+00
  6.60530896e+00  6.60160379e+00  6.59604602e+00  6.58678308e+00
  6.57752014e+00  6.56825721e+00  6.56084685e+00  6.56084685e+00
  6.56640462e+00  6.58493050e+00  6.61457190e+00  6.65718142e+00
  6.70905387e+00  6.76833668e+00  6.82947208e+00  6.88690230e+00
  6.93506958e+00  6.96841616e+00  6.97953168e+00  6.96656357e+00
  6.92580664e+00  6.85540831e+00  6.75722116e+00  6.63309778e+00]","[-6.59527507e-03 -4.27337686e-02 -8.06791868e-02 -1.22238454e-01
 -1.63797722e-01 -2.01743140e-01 -2.36074709e-01 -2.61371655e-01
 -2.74020127e-01 -2.72213203e-01 -2.54143956e-01 -2.14391613e-01
 -1.54763099e-01 -7.34514881e-02  3.13501432e-02  1.54221021e-01
  2.96968071e-01  4.52363593e-01  6.22214513e-01  8.01100056e-01
  9.85406373e-01  1.17513346e+00  1.36847440e+00  1.56181534e+00
  1.75696321e+00  1.95211108e+00  2.14364509e+00  2.33156526e+00
  2.51045080e+00  2.68030172e+00  2.83389032e+00  2.96760274e+00
  3.07782515e+00  3.15913676e+00  3.20973065e+00  3.22779990e+00
  3.21334450e+00  3.16997831e+00  3.09589440e+00  2.99470661e+00
  2.87002881e+00  2.72186099e+00  2.55381699e+00  2.36228298e+00
  2.15087279e+00  1.91416566e+00  1.65396850e+00  1.36666748e+00
  1.05045566e+00  7.08946897e-01  3.40334263e-01 -5.17683920e-02
 -4.63747218e-01 -8.90181442e-01 -1.32203644e+00 -1.75569836e+00
 -2.18032566e+00 -2.58869064e+00 -2.97356560e+00 -3.32591591e+00
 -3.64212773e+00 -3.91678028e+00 -4.14445279e+00 -4.32514525e+00
 -4.45705076e+00 -4.54559006e+00 -4.59257011e+00 -4.60160473e+00
 -4.57992163e+00 -4.53474852e+00 -4.46789230e+00 -4.38838762e+00
 -4.29804138e+00 -4.20408130e+00 -4.11012122e+00 -4.01977498e+00
 -3.93665645e+00 -3.86618639e+00 -3.81197865e+00 -3.77945400e+00
 -3.77222630e+00 -3.79752325e+00 -3.85895869e+00 -3.96195339e+00
 -4.11192814e+00 -4.31068986e+00 -4.56004546e+00 -4.86360881e+00
 -5.21957297e+00 -5.62432410e+00 -6.07605527e+00 -6.56573185e+00
 -7.08793309e+00 -7.63001049e+00 -8.18654329e+00 -8.74307609e+00
 -9.28876734e+00 -9.81638935e+00 -1.03151006e+01 -1.07776733e+01
 -1.11968798e+01 -1.15691063e+01 -1.18907389e+01 -1.21599707e+01
 -1.23768016e+01 -1.25430387e+01 -1.26604888e+01 -1.27309589e+01
 -1.27616766e+01 -1.27544489e+01 -1.27183104e+01 -1.26550680e+01
 -1.25683356e+01 -1.24635340e+01 -1.23424700e+01 -1.22069507e+01
 -1.20569759e+01 -1.18925458e+01 -1.17136603e+01 -1.15185124e+01
 -1.13089091e+01 -1.10830435e+01 -1.08427226e+01 -1.05897531e+01
 -1.03259421e+01 -1.00530965e+01 -9.77483008e+00 -9.49475676e+00
 -9.21468343e+00 -8.94003088e+00 -8.67079910e+00 -8.41060195e+00
 -8.16124634e+00 -7.92092536e+00 -7.69325285e+00 -7.47822882e+00
 -7.27946710e+00 -7.09696771e+00 -6.93253756e+00 -6.78979051e+00]",6.711761502414442,1.7177077714926832,5.397855000000001,-0.04021499999999989
007,1,1,csp,2a.png,1,1,296,181,293,1,1,373,pos_feedback_onset,4,"[ 4.08246680e-01  3.01197491e-01  1.94148302e-01  9.29381596e-02
  3.40611056e-03 -7.05551474e-02 -1.28945614e-01 -1.69818941e-01
 -1.91228779e-01 -1.95121477e-01 -1.83443383e-01 -1.62033545e-01
 -1.30891963e-01 -9.39113341e-02 -5.30380073e-02 -1.21646806e-02
  3.06549951e-02  7.34746707e-02  1.20187044e-01  1.66899418e-01
  2.19450838e-01  2.77841304e-01  3.42070818e-01  4.12139378e-01
  4.88046985e-01  5.63954592e-01  6.41808547e-01  7.17716154e-01
  7.87784714e-01  8.50067879e-01  9.04565648e-01  9.51278021e-01
  9.90204999e-01  1.02134658e+00  1.04664912e+00  1.07000530e+00
  1.08946879e+00  1.11087863e+00  1.13423482e+00  1.16148370e+00
  1.19651798e+00  1.23933766e+00  1.29188908e+00  1.35611859e+00
  1.43397255e+00  1.52739729e+00  1.63444648e+00  1.75317377e+00
  1.88552549e+00  2.02566261e+00  2.16969243e+00  2.31761494e+00
  2.46359111e+00  2.60762093e+00  2.74581170e+00  2.87816343e+00
  3.00467610e+00  3.12924243e+00  3.24991606e+00  3.37058970e+00
  3.48931698e+00  3.60415156e+00  3.71314710e+00  3.81435724e+00
  3.89805024e+00  3.96227976e+00  3.99926039e+00  4.00315309e+00
  3.97395785e+00  3.91167469e+00  3.82019629e+00  3.70146901e+00
  3.56717093e+00  3.42314112e+00  3.28105765e+00  3.14870592e+00
  3.02997864e+00  2.93266119e+00  2.85675359e+00  2.80030947e+00
  2.76527519e+00  2.74581170e+00  2.74191900e+00  2.74775805e+00
  2.76332884e+00  2.78473868e+00  2.81198756e+00  2.84118280e+00
  2.87621708e+00  2.91319771e+00  2.95212468e+00  2.99105166e+00
  3.02803229e+00  3.06306657e+00  3.09031545e+00  3.10783259e+00
  3.11367164e+00  3.10199355e+00  3.07085197e+00  3.01830055e+00
  2.94239294e+00  2.84118280e+00  2.71856282e+00  2.57453300e+00
  2.41493239e+00  2.24365369e+00  2.06653594e+00  1.88747184e+00
  1.71424679e+00  1.54686078e+00  1.39115287e+00  1.24906940e+00
  1.12644942e+00  1.02134658e+00  9.39599928e-01  8.81209461e-01
  8.46175181e-01  8.38389786e-01  8.59799623e-01  9.06511997e-01
  9.82419604e-01  1.08168340e+00  1.20430338e+00  1.34249415e+00
  1.49430936e+00  1.65196362e+00  1.80961788e+00  1.95948675e+00
  2.09767752e+00  2.21835115e+00  2.31956129e+00  2.39741525e+00
  2.45191302e+00  2.48694730e+00  2.50446444e+00  2.50641079e+00
  2.50251809e+00  2.49667904e+00  2.49473269e+00  2.50057174e+00
  2.52198158e+00  2.55896221e+00  2.61540632e+00  2.69326028e+00
  2.79057773e+00  2.90346596e+00  3.02997864e+00  3.16816941e+00
  3.31025288e+00  3.45428270e+00  3.59636617e+00  3.73261059e+00
  3.85912327e+00  3.97395785e+00  4.07516799e+00  4.16275369e+00
  4.23671495e+00  4.29705177e+00  4.34376414e+00  4.37490572e+00
  4.39047651e+00  4.39047651e+00  4.37685207e+00  4.34571049e+00
  4.30094447e+00  4.23866130e+00  4.16470004e+00  4.07711434e+00
  3.98368960e+00  3.88247945e+00  3.78321566e+00  3.68589822e+00
  3.59441982e+00  3.51656586e+00  3.45233635e+00  3.40562398e+00
  3.37448239e+00  3.36280430e+00  3.36475065e+00  3.38421414e+00
  3.41340937e+00  3.45233635e+00  3.50099507e+00  3.55354649e+00
  3.61388331e+00  3.68005917e+00  3.75207408e+00  3.83382073e+00
  3.92724548e+00  4.03429467e+00  4.15302195e+00  4.28926637e+00
  4.43718889e+00  4.59873585e+00  4.76806820e+00  4.94323960e+00
  5.11841100e+00  5.29358240e+00  5.46096841e+00  5.62056902e+00
  5.77238423e+00  5.91641405e+00  6.05265847e+00  6.18695654e+00
  6.31930827e+00  6.45749904e+00  6.59958251e+00  6.75139772e+00
  6.91294468e+00  7.08422338e+00  7.26523383e+00  7.45402967e+00
  7.64866456e+00  7.84913850e+00  8.05155878e+00  8.25592542e+00
  8.46223840e+00  8.66660503e+00  8.86902532e+00  9.06755290e+00
  9.26218779e+00  9.45098364e+00  9.63199408e+00  9.80521913e+00
  9.96871244e+00  1.01224740e+01  1.02645575e+01  1.03988555e+01
  1.05214755e+01  1.06343638e+01  1.07375203e+01  1.08328913e+01
  1.09204771e+01  1.10002774e+01  1.10781313e+01  1.11501462e+01
  1.12202148e+01  1.12902833e+01  1.13584056e+01  1.14265278e+01
  1.14888109e+01  1.15433087e+01  1.15880747e+01  1.16133773e+01
  1.16153236e+01  1.15880747e+01  1.15296843e+01  1.14401522e+01
  1.13194786e+01  1.11715561e+01  1.10041701e+01  1.08231596e+01
  1.06363101e+01  1.04475143e+01  1.02645575e+01  1.00854934e+01
  9.91032197e+00  9.73709692e+00  9.55997917e+00  9.37507603e+00]","[-0.58363744 -0.63994856 -0.66356289 -0.65811343 -0.62541666 -0.57092203
 -0.49826253 -0.40743815 -0.30571485 -0.19127614 -0.06957147  0.05758265
  0.19018624  0.32460632  0.45720991  0.5898135   0.71878412  0.84230527
  0.96037696  1.07299918  1.18198844  1.2891612   1.39815045  1.50895619
  1.62521139  1.74873255  1.87951965  2.01575621  2.15562575  2.29912827
  2.43899781  2.57705086  2.70965445  2.83499209  2.95306378  3.06568601
  3.17104228  3.2709491   3.36903942  3.46349677  3.55613764  3.6487785
  3.73960288  3.83406023  3.92488461  4.01570898  4.10290039  4.18282584
  4.24821939  4.29544806  4.31724591  4.30634699  4.25366885  4.15012906
  3.99391113  3.77593263  3.49619355  3.15469389  2.75325015  2.29367881
  1.7850623   1.2310336   0.64249164  0.02488588 -0.61451773 -1.26845324
 -1.93147119 -2.59630563 -3.25932358 -3.91507557 -4.55811216 -5.17753441
 -5.76970934 -6.32192155 -6.8250886  -7.26649507 -7.63887501 -7.93314599
 -8.14567503 -8.27646214 -8.33095676 -8.31824135 -8.2528478  -8.14930801
 -8.02215388 -7.89136678 -7.76784563 -7.66430584 -7.58982985 -7.54986712
 -7.54623415 -7.58074741 -7.65159043 -7.75513021 -7.8877338  -8.04395173
 -8.21651805 -8.39998329 -8.58889799 -8.77417972 -8.9521955  -9.11749586
 -9.26644784 -9.39360197 -9.49895824 -9.5788837  -9.63337832 -9.66425861
 -9.66789158 -9.64972671 -9.6079475  -9.54437043 -9.46444498 -9.36453817
 -9.24828297 -9.11749586 -8.97036037 -8.8068765  -8.6306772  -8.43812953
 -8.23286644 -8.01488793 -7.7860105  -7.54805064 -7.30282482 -7.05578252
 -6.80692372 -6.56169791 -6.32010507 -6.08759466 -5.86235021 -5.6443717
 -5.43547564 -5.23384552 -5.03766487 -4.84693368 -4.66165195 -4.48363617
 -4.31106986 -4.14758598]",10.824078714674476,2.399897913400751,5.1378249999999985,0.09879999999999978
007,1,1,csm,46b.png,1,1,260,84,263,1,1,551,neu_feedback_onset,5,"[ 0.84228592  0.76750128  0.68312887  0.5930038   0.49904362  0.40124833
  0.30537059  0.20949285  0.11361512  0.02349005 -0.06663503 -0.15484254
 -0.24113251 -0.32550492 -0.40987732 -0.49424973 -0.57670459 -0.65340678
 -0.72627386 -0.78955316 -0.84132714 -0.87776068 -0.89885378 -0.90460645
 -0.89118356 -0.8643378  -0.82215159 -0.77037761 -0.71285097 -0.64765411
 -0.5805397  -0.50959017 -0.43480554 -0.35426824 -0.26606072 -0.17018298
 -0.05896481  0.06375869  0.19798753  0.34180413  0.4913734   0.63902512
  0.77325395  0.88830723  0.96884453  1.00719562  0.99185519  0.91707055
  0.77900661  0.57574581  0.31112326 -0.01102594 -0.38303156 -0.79147072
 -1.2286732  -1.68121611 -2.13759414 -2.5882195  -3.02350443 -3.4357787
 -3.8212072  -4.17787238 -4.50385668 -4.79916011 -5.06761777 -5.30731212
 -5.5239958  -5.72150394 -5.89791897 -6.05707602 -6.20089262 -6.32936879
 -6.44633963 -6.54988758 -6.64384777 -6.72630262 -6.79725214 -6.86244901
 -6.91614054 -6.96216185 -6.99859539 -7.0235236  -7.03886404 -7.03886404
 -7.02544116 -6.99667784 -6.94873897 -6.88354211 -6.79725214 -6.68986908
 -6.56139291 -6.41182364 -6.24307883 -6.05324091 -5.84806255 -5.6256262
 -5.39168452 -5.15007263 -4.90462562 -4.66301372 -4.42715449 -4.2066357
 -4.00529245 -3.82504231 -3.67163793 -3.54699687 -3.44920158 -3.38208716
 -3.34373607 -3.33031318 -3.34373607 -3.38016961 -3.43769625 -3.51631599
 -3.60835862 -3.71574169 -3.83079497 -3.94968336 -4.0666542  -4.17787238
 -4.27758522 -4.36004008 -4.42140183 -4.45975292 -4.47701092 -4.47125825
 -4.44633004 -4.40414384 -4.34661719 -4.27950278 -4.20471814 -4.12418084
 -4.03789088 -3.94776581 -3.85188807 -3.75025767 -3.6390395  -3.5201511
 -3.38975738 -3.24977589 -3.09828906 -2.93913202 -2.77230476 -2.60164239
 -2.42906246 -2.26031764 -2.09732549 -1.94775622 -1.81160984 -1.694639
 -1.59876126 -1.52397663 -1.4741202  -1.44727444 -1.44535688 -1.46453243
 -1.50671863 -1.56808038 -1.64861768 -1.74641297 -1.85763115 -1.98418976
 -2.12033615 -2.26798786 -2.42139224 -2.58054928 -2.73778877 -2.89119315
 -3.03692731 -3.17115614 -3.28812698 -3.38592227 -3.46070691 -3.51248088
 -3.5374091  -3.53932665 -3.51823355 -3.47604734 -3.41468559 -3.33990096
 -3.25169344 -3.15389815 -3.04843264 -2.93529691 -2.81449096 -2.68793235
 -2.55562107 -2.41563958 -2.26990542 -2.12033615 -1.96501421 -1.80585717
 -1.64478257 -1.48562553 -1.32838604 -1.17306411 -1.02541239 -0.88351334
 -0.75120207 -0.62847856 -0.51342528 -0.40604221 -0.30824692 -0.21428674
 -0.12224411 -0.03211904  0.05992359  0.15771888  0.26126683  0.3686499
  0.48178563  0.59683891  0.70805709  0.8135226   0.90364767  0.9784323
  1.03404139  1.06855738  1.08389781  1.08198026  1.06855738  1.04938183
  1.03020628  1.01486584  1.00719562  1.01103073  1.02637117  1.05321694
  1.09156803  1.13758935  1.19128088  1.25072508  1.31208683  1.37728369
  1.4443981   1.50959496  1.57479183  1.63423602  1.68792755  1.73394887
  1.7665473   1.78380529  1.78380529  1.76079463  1.71285577  1.63998869
  1.54027584  1.41563478  1.26414796  1.09348559  0.90748278  0.70613953
  0.50096117  0.29194771  0.08868691 -0.10690368 -0.29098893 -0.45973375
 -0.61122057 -0.74353185]","[-1.16213977 -1.11175799 -1.05391224 -0.98300455 -0.89716892 -0.79640535
 -0.67698187 -0.54076446 -0.38775312 -0.22167984 -0.04254462  0.14405458
  0.33438575  0.52658292  0.7169141   0.9016473   1.07705054  1.24312382
  1.39613516  1.53421856  1.65924002  1.76933354  1.86449913  1.94473678
  2.01377848  2.07162423  2.12200602  2.16492383  2.20597565  2.24516148
  2.28621331  2.3328631   2.38511088  2.44668861  2.51573031  2.59596796
  2.68180359  2.77696918  2.87586675  2.97663032  3.07739388  3.17255947
  3.26026109  3.33490077  3.3964785   3.4431283   3.46925219  3.47485016
  3.45992223  3.42446838  3.36848862  3.29198295  3.19681736  3.08299186
  2.95423841  2.81428902  2.66314367  2.50640035  2.34592505  2.18544974
  2.02870642  1.87569508  1.73014771  1.59206431  1.46517686  1.34948536
  1.24312382  1.14982422  1.06772058  0.99681289  0.93710114  0.88858535
  0.85126552  0.82514163  0.81207969  0.80648171  0.81207969  0.82514163
  0.84753353  0.87552341  0.90724527  0.9464311   0.98748293  1.03413272
  1.08078252  1.12929831  1.17594811  1.21886592  1.25618576  1.28044366
  1.29163961  1.28417564  1.25618576  1.20393799  1.1330303   1.0397307
  0.92777118  0.80461572  0.67399628  0.54337685  0.41462341  0.29706591
  0.19070437  0.10113676  0.02463109 -0.03881263 -0.08919441 -0.13211223
 -0.16570008 -0.19742195 -0.22541182 -0.2534017  -0.27952559 -0.30378349
 -0.32617539 -0.34856729 -0.36536122 -0.38028915 -0.39148511 -0.40081507
 -0.40827903 -0.415743   -0.42507296 -0.4381349  -0.45866081 -0.4847847
 -0.51837256 -0.56129037 -0.61167215 -0.6695179  -0.73296163 -0.79827135
 -0.86731305 -0.93635475 -1.00353046 -1.06697418 -1.12855192 -1.18453167
 -1.23864544 -1.28902722]",1.0303046170907315,2.6424311635579323,5.214975000000001,0.07303000000000104
007,1,1,csp,60a.png,1,1,48,88,46,1,1,396,pos_feedback_onset,6,"[ -2.08550251  -1.98035112  -1.82984031  -1.64015546  -1.41748193
  -1.16800511  -0.89791037  -0.61544488  -0.32679402  -0.04020494
   0.24019876   0.5082317    0.75770852   0.98862922   1.19480841
   1.38036968   1.54118945   1.6813913    1.80303702   1.90612661
   1.99684546   2.07519355   2.14117089   2.20096286   2.24838407
   2.28755812   2.31436141   2.32673216   2.32260858   2.29786708
   2.25044586   2.17828315   2.07931713   1.95354783   1.79685164
   1.61335216   1.4009876    1.16181974   0.89791037   0.60925951
   0.30205251  -0.0257724   -0.36390627  -0.7123491   -1.06491552
  -1.41542014  -1.7576776   -2.08550251  -2.3947713   -2.68342216
  -2.94939332  -3.19062297  -3.40917291  -3.60916673  -3.79266621
  -3.96585673  -4.13492366  -4.3039906   -4.47924291  -4.66686597
  -4.87304516  -5.09778048  -5.34313372  -5.61322846  -5.90394112
  -6.21527169  -6.5451584   -6.88535406  -7.2317351   -7.58017793
  -7.9203736   -8.24613672  -8.55334371  -8.83168562  -9.08116244
  -9.2955888   -9.4729029   -9.61516654  -9.72237972  -9.79866602
  -9.85021082  -9.8790759   -9.89350845  -9.89969382  -9.90175562
  -9.90381741  -9.91206458  -9.92443533  -9.94711504  -9.97391833
 -10.006907   -10.04195747 -10.07700793 -10.10793481 -10.13267631
 -10.14504706 -10.14504706 -10.12649093 -10.08937868 -10.03164851
  -9.95123862  -9.84402544  -9.71413255  -9.55949816  -9.38218406
  -9.18219024  -8.9636403   -8.73065781  -8.48324279  -8.22964238
  -7.9698566   -7.71007082  -7.45234683  -7.20080822  -6.95339319
  -6.71216354  -6.47918106  -6.25032215  -6.02764863  -5.8070369
  -5.58848695  -5.36787522  -5.14726349  -4.92665175  -4.70397823
  -4.47924291  -4.25863118  -4.04008123  -3.82359308  -3.6153521
  -3.4132965   -3.21742627  -3.0298032   -2.85042731  -2.68136037
  -2.5205406   -2.37209158  -2.23601332  -2.1143676   -2.00715442
  -1.91849737  -1.84839644  -1.79478985  -1.7576776   -1.73293609
  -1.71850355  -1.70819459  -1.69582384  -1.67520592  -1.64221725
  -1.59273425  -1.52469511  -1.43603806  -1.32882488  -1.20305558
  -1.06697731  -0.92265188  -0.77420286  -0.62987743  -0.49379916
  -0.37009165  -0.26287847  -0.16803604  -0.09174974  -0.02989598
   0.02164881   0.06288465   0.09999691   0.13710916   0.17422142
   0.21751905   0.26700205   0.32473222   0.38864777   0.4587487
   0.53297321   0.6113213    0.6876076    0.7638939    0.8401802
   0.91440471   0.98656743   1.06079193   1.13707823   1.2216117
   1.31645413   1.42366731   1.54737482   1.69170026   1.8587054
   2.04839026   2.26075482   2.49373731   2.7493995    3.01743245
   3.29783615   3.58442522   3.8710143    4.151418     4.42563632
   4.6854221    4.93283713   5.16581961   5.38436956   5.59261054
   5.78848077   5.97610383   6.15754152   6.33485562   6.51010793
   6.68123666   6.85236539   7.01937053   7.18843747   7.35338082
   7.51626238   7.67295857   7.82553117   7.97191839   8.10593487
   8.23170417   8.34304094   8.43788336   8.52035504   8.58427059
   8.63581539   8.67086585   8.69560735   8.7079781    8.71210169
   8.7079781    8.69766914   8.68117481   8.6584951    8.6316918
   8.59664134   8.55746729   8.51004608   8.45850128   8.4028329
   8.34922631   8.29768152   8.25850747   8.23788955   8.23995134
   8.27294001   8.34304094   8.45231591   8.59870313   8.78014082
   8.99456718   9.23373504   9.48939724   9.7533066   10.01515417
  10.26875457  10.50586064  10.72647238  10.92234261  11.09965671]","[-2.05125827e+00 -1.85610276e+00 -1.63776046e+00 -1.40009584e+00
 -1.14697335e+00 -8.88054164e-01 -6.27202745e-01 -3.70215792e-01
 -1.20957769e-01  1.16706857e-01  3.36981389e-01  5.36001360e-01
  7.13766772e-01  8.68345390e-01  1.00166945e+00  1.11760341e+00
  1.21614728e+00  1.30696222e+00  1.39584493e+00  1.48859210e+00
  1.58906820e+00  1.70693440e+00  1.84025846e+00  1.99483707e+00
  2.16294132e+00  2.34650343e+00  2.53586224e+00  2.72522105e+00
  2.90878316e+00  3.07881964e+00  3.23146602e+00  3.36092562e+00
  3.46913065e+00  3.55221666e+00  3.61211587e+00  3.65462499e+00
  3.68360848e+00  3.70099858e+00  3.71259197e+00  3.72225314e+00
  3.73577877e+00  3.75316886e+00  3.77635565e+00  3.80727138e+00
  3.84205157e+00  3.87489952e+00  3.90195078e+00  3.91354418e+00
  3.90195078e+00  3.85944166e+00  3.78022012e+00  3.66042169e+00
  3.49811414e+00  3.29329747e+00  3.05176838e+00  2.77545910e+00
  2.47209856e+00  2.14555123e+00  1.80354603e+00  1.45187968e+00
  1.09055215e+00  7.29224634e-01  3.64032647e-01 -1.15933964e-03
 -3.64419094e-01 -7.25746615e-01 -1.08514190e+00 -1.43874049e+00
 -1.78654239e+00 -2.12661535e+00 -2.45316268e+00 -2.76425215e+00
 -3.06181599e+00 -3.34005750e+00 -3.60477339e+00 -3.85789588e+00
 -4.10328943e+00 -4.34868299e+00 -4.59794101e+00 -4.85879243e+00
 -5.13510171e+00 -5.43073332e+00 -5.74568726e+00 -6.07996352e+00
 -6.42583318e+00 -6.78136400e+00 -7.13882706e+00 -7.49049341e+00
 -7.83056638e+00 -8.15131701e+00 -8.44888085e+00 -8.71359674e+00
 -8.94739690e+00 -9.14448463e+00 -9.30485995e+00 -9.43045508e+00
 -9.52127002e+00 -9.58116923e+00 -9.61208496e+00 -9.61981389e+00
 -9.61015272e+00 -9.58503370e+00 -9.55025351e+00 -9.51354109e+00
 -9.47489643e+00 -9.44011624e+00 -9.40920052e+00 -9.38794596e+00
 -9.37442033e+00 -9.37055586e+00 -9.37055586e+00 -9.37828480e+00
 -9.38601373e+00 -9.39374266e+00 -9.39760712e+00 -9.39181042e+00
 -9.37248810e+00 -9.33770791e+00 -9.28360539e+00 -9.20245162e+00
 -9.09617882e+00 -8.96092253e+00 -8.79475051e+00 -8.59959500e+00
 -8.37352377e+00 -8.12233352e+00 -7.84795647e+00 -7.55232486e+00
 -7.24316763e+00 -6.92434922e+00 -6.59973412e+00 -6.27511903e+00
 -5.95436839e+00 -5.63941446e+00 -5.33605392e+00 -5.04428677e+00
 -4.76604526e+00 -4.50326161e+00 -4.25400359e+00 -4.02020343e+00]",9.202022716037721,2.7679716966549464,4.850150000000001,-0.06184000000000012
007,1,1,csm,13b.png,1,1,152,331,156,1,0,491,neu_feedback_onset,7,"[ 1.63412392  1.48874455  1.35531416  1.23383277  1.12031737  1.01277646
  0.90722705  0.79371164  0.66625575  0.51689338  0.33965003  0.12655972
 -0.12436907 -0.41512782 -0.74770803 -1.12011822 -1.52638387 -1.9605305
 -2.4165836  -2.8845857  -3.3545793  -3.8185984  -4.26270252 -4.68490016
 -5.07125083 -5.41976303 -5.72446227 -5.98335705 -6.19246437 -6.35178423
 -6.45932514 -6.51907009 -6.52504458 -6.48322312 -6.3916142  -6.25021782
 -6.06102548 -5.82802018 -5.55319342 -5.23853669 -4.89201598 -4.51562281
 -4.11732315 -3.7011     -3.27292787 -2.83878124 -2.40264312 -1.96650499
 -1.53634136 -1.11414372 -0.69991208 -0.29762942  0.09469574  0.47308042
  0.83752461  1.18404531  1.51662553  1.82729926  2.11407501  2.37496129
  2.60398359  2.79715893  2.9524958   3.0640197   3.13372214  3.15762012
  3.13969664  3.07995169  2.98635127  2.86088687  2.709533    2.53826415
  2.35106331  2.15390498  1.95077215  1.74166483  1.53255751  1.32145869
  1.11434287  0.90722705  0.70409422  0.50693589  0.31774355  0.13850871
 -0.03076865 -0.18411402 -0.3215274  -0.4410173  -0.54059221 -0.61826065
 -0.6720311  -0.70588657 -0.71783556 -0.70986957 -0.68398009 -0.64016713
 -0.58639667 -0.52067723 -0.45097479 -0.37728935 -0.30758691 -0.24186747
 -0.18610552 -0.14030105 -0.11042858 -0.0925051  -0.0905136  -0.10246259
 -0.12237757 -0.15025855 -0.18212252 -0.21199499 -0.23589297 -0.24784196
 -0.24585046 -0.22792698 -0.19208001 -0.13830956 -0.06860712  0.01702731
  0.11261923  0.21418564  0.31973505  0.42528446  0.52685087  0.62244279
  0.71206021  0.79570314  0.87138008  0.94307402  1.01078496  1.0784959
  1.14819834  1.22387528  1.3075182   1.39912713  1.50268504  1.61819194
  1.74564783  1.88704421  2.04038958  2.20369244  2.37296979  2.54822164
  2.72546499  2.89673384  3.0620282   3.21338207  3.34880396  3.46231936
  3.54994528  3.60969023  3.63956271  3.63757121  3.60371574  3.54197929
  3.45236187  3.34083796  3.21139057  3.06999419  2.92262332  2.77326095
  2.62987307  2.49445119  2.37496129  2.26941188  2.18377745  2.11805801
  2.07225355  2.04636407  2.04238108  2.05831306  2.09416003  2.14992198
  2.22559892  2.32119084  2.43868924  2.57610262  2.73542248  2.91465733
  3.11579866  3.33486347  3.57185176  3.82278055  4.08565832  4.35650209
  4.63132886  4.90615562  5.17500789  5.43390267  5.67885696  5.90588777
  6.11101209  6.29024694  6.4455838   6.57503119  6.6805806   6.76422353
  6.83193447  6.88570493  6.92951789  6.96735636  7.00121183  7.0330758
  7.06294827  7.09282075  7.12269322  7.1525657   7.18442967  7.22027664
  7.2620981   7.31586856  7.3795965   7.46323943  7.56281435  7.68429574
  7.82569212  7.98501198  8.15827234  8.34149018  8.53267401  8.72584935
  8.91504169  9.10025103  9.27749438  9.44278873  9.5961341   9.73753048
  9.86299487  9.97451878 10.0701107  10.15375363 10.22146457 10.27523502
 10.31705649 10.34892046 10.36883544 10.38078443 10.38675893 10.38675893
 10.38476743 10.38277593 10.38277593 10.38875042 10.40269091 10.42858039
 10.47239335 10.5341298  10.61777273 10.72531364 10.85476103 11.0021319
 11.16543476 11.33670361 11.50996396 11.67525832 11.82860369 11.96004258
 12.06758349 12.14923492]","[-2.21637637 -2.01190273 -1.78186987 -1.53807437 -1.2864145  -1.03475462
 -0.78899303 -0.54912971 -0.31713076 -0.09103009  0.13113839  0.35134078
  0.57547535  0.80157602  1.03357497  1.27147219  1.5133016   1.75119883
  1.98516386  2.20143407  2.39804334  2.56319514  2.69492335  2.78536362
  2.83254985  2.84238031  2.8168211   2.76177051  2.69099117  2.61234746
  2.53763593  2.47078878  2.42360255  2.39411116  2.38821288  2.40394162
  2.4373652   2.48455143  2.54746639  2.61627964  2.69492335  2.77553316
  2.86007514  2.94658323  3.0350574   3.12156548  3.21003966  3.29851383
  3.386988    3.47546218  3.56393635  3.65241053  3.7408847   3.82935888
  3.91783305  4.00630723  4.0947814   4.18325557  4.26976366  4.35627174
  4.43884763  4.51945744  4.59613505  4.6649483   4.72393108  4.76915122
  4.8006087   4.80847307  4.79471042  4.74949029  4.67477877  4.56664366
  4.42311889  4.24420445  4.03186643  3.78807093  3.51281794  3.21200575
  2.88760044  2.54353421  2.18177314  1.80624942  1.41892915  1.02177841
  0.61872939  0.20781601 -0.20309738 -0.61794296 -1.03278853 -1.44370192
 -1.85068312 -2.24783386 -2.63515413 -3.00674566 -3.35671018 -3.68111548
 -3.97799549 -4.24145192 -4.46951868 -4.66416186 -4.82341538 -4.95514359
 -5.05934651 -5.14782068 -5.2244983  -5.29920983 -5.37588745 -5.46042943
 -5.55873407 -5.66883527 -5.79269911 -5.92639342 -6.06598601 -6.20754468
 -6.34320509 -6.47100111 -6.58110231 -6.67350867 -6.73838973 -6.77967768
 -6.78950814 -6.76984721 -6.7187288  -6.638119   -6.5280178  -6.38645913
 -6.21934124 -6.02273196 -5.80449567 -5.56266626 -5.30314201 -5.02592293
 -4.7349412  -4.4360951  -4.12938463 -3.81677588 -3.50220104 -3.18566011
 -2.86911917 -2.55454433]",10.983639414766909,3.539458498730842,5.021345000000001,-0.05271999999999988
007,1,1,csp,20a.png,1,1,292,277,291,1,1,353,pos_feedback_onset,8,"[-0.64773638 -0.59774782 -0.55352717 -0.50738389 -0.45739533 -0.39971622
 -0.33434656 -0.25744109 -0.1747677  -0.08440376  0.00980545  0.1059373
  0.2001465   0.29051044  0.3770291   0.45970249  0.53660797  0.60966817
  0.6788831   0.74617539  0.81346769  0.88268262  0.95382018  1.02688039
  1.10186323  1.1787687   1.25182891  1.3191212   1.37680031  1.41909832
  1.44216996  1.4440926   1.42102096  1.37295504  1.29989483  1.20760826
  1.10186323  0.98650501  0.8711468   0.75963385  0.65965673  0.57506071
  0.50776841  0.45777985  0.42317239  0.40010075  0.38856492  0.38279701
  0.37895174  0.37895174  0.38087438  0.38664229  0.39817811  0.41548184
  0.4443214   0.48277413  0.53276269  0.59236444  0.65965673  0.73271694
  0.80962241  0.88845053  0.96535601  1.03649357  1.09994059  1.15377442
  1.1941498   1.21914408  1.22683463  1.21337617  1.1787687   1.11916696
  1.03457093  0.92113536  0.78078286  0.61159081  0.41163657  0.18668805
 -0.06517739 -0.33819184 -0.62658738 -0.92844138 -1.23221801 -1.53407201
 -1.82823546 -2.10894045 -2.36849644 -2.60498078 -2.81839348 -3.00488927
 -3.16831341 -3.30674326 -3.42402412 -3.52015596 -3.59706144 -3.65474055
 -3.69511593 -3.71626493 -3.71434229 -3.69127065 -3.64128209 -3.56053134
 -3.4490184  -3.30289799 -3.12024748 -2.90106687 -2.64920143 -2.36465117
 -2.05510662 -1.72441307 -1.38218369 -1.03803168 -0.69964758 -0.37472194
 -0.07286794  0.2001465   0.44047612  0.64427564  0.81154505  0.944207
  1.04418412  1.11724432  1.17107816  1.20760826  1.23644781  1.26528737
  1.29604956  1.3345023   1.38833613  1.45562842  1.54022445  1.64212421
  1.76325033  1.89783492  2.04587796  2.20545683  2.36888097  2.53615038
  2.70149716  2.85915339  3.00719643  3.13985838  3.25521659  3.35327108
  3.43017656  3.48593303  3.52438577  3.54553477  3.54938005  3.53976686
  3.52054049  3.48785566  3.44748029  3.39749173  3.33596735  3.26482978
  3.18023375  3.08602454  2.97835688  2.85915339  2.72841407  2.59190685
  2.45155436  2.30927922  2.17084936  2.03818741  1.91898392  1.81323889
  1.72479759  1.65366003  1.60174883  1.57098664  1.55752818  1.56137345
  1.57867719  1.61136202  1.65366003  1.70364859  1.7613277   1.82285208
  1.88822173  1.95359139  2.02280632  2.09202125  2.15931354  2.22852847
  2.29966604  2.36888097  2.44194117  2.51884665  2.59767476  2.68227079
  2.77071209  2.86684393  2.97066633  3.08025663  3.19753749  3.32250889
  3.4532482   3.58975542  3.73395319  3.88391887  4.03965246  4.2030766
  4.37226865  4.54530598  4.72411121  4.90676172  5.08941223  5.2701401
  5.4470227   5.61236948  5.76618043  5.90461029  6.02189114  6.11994563
  6.19685111  6.25260758  6.29298295  6.31797723  6.3372036   6.35066206
  6.36988843  6.39488271  6.43333545  6.48716928  6.55446158  6.63521233
  6.72365363  6.81978547  6.91207205  6.99859071  7.06972827  7.12163947
  7.15047902  7.15047902  7.12356211  7.06780564  6.98513225  6.87938722
  6.75057054  6.60445014  6.44294863  6.26991131  6.08918344  5.90076502
  5.70850132  5.51239236  5.31628339  5.12017442  4.92791073  4.73949231
  4.5568418   4.38188184  4.2184577   4.06656938  3.92813952  3.80316812
  3.69165518  3.58783278]","[-0.81177526 -0.77752715 -0.7394737  -0.69380956 -0.6424374  -0.58345455
 -0.51876368 -0.44455945 -0.36274453 -0.26951357 -0.16676925 -0.04880355
  0.08248086  0.23279199  0.40403252  0.59620246  0.81120446  1.04713586
  1.30589933  1.57988418  1.86909042  2.16590734  2.46652961  2.76334653
  3.05255277  3.33034297  3.59100911  3.83264853  4.05335855  4.2512365
  4.4243797   4.57278817  4.69646189  4.79349819  4.86389707  4.90956122
  4.93239329  4.93429596  4.91717191  4.88482647  4.841065    4.7858875
  4.7230993   4.65270042  4.57469084  4.49287592  4.39964496  4.29880331
  4.18083761  4.04765053  3.89163138  3.70897481  3.49587548  3.25043072
  2.97073785  2.6548942   2.30670511  1.92807327  1.52280401  1.09470267
  0.64947729  0.19283587 -0.27331892 -0.74137637 -1.20753116 -1.66797793
 -2.11700866 -2.55081801 -2.96179529 -3.3423298  -3.68861621 -3.99114116
 -4.24609928 -4.44968525 -4.59999638 -4.69322734 -4.73508614 -4.72747545
 -4.67420062 -4.584775   -4.46300396 -4.31649817 -4.15286833 -3.97591978
 -3.79516588 -3.61060664 -3.43175542 -3.26241755 -3.10449573 -2.96560063
 -2.8495376  -2.75820932 -2.6973238  -2.66688103 -2.67258905 -2.71444785
 -2.79055475 -2.90090976 -3.04551288 -3.21865609 -3.42033938 -3.64485475
 -3.88839684 -4.14716031 -4.41543714 -4.68751932 -4.96340685 -5.23548903
 -5.50376586 -5.76443201 -6.01558479 -6.25532154 -6.48173958 -6.69483891
 -6.89081418 -7.06586006 -7.22187921 -7.35126095 -7.45590794 -7.53201484
 -7.57767899 -7.59670571 -7.58528968 -7.54533355 -7.48064268 -7.39311975
 -7.28276474 -7.153383   -7.00687721 -6.84515004 -6.67010416 -6.48364225
 -6.28956964 -6.08598368 -5.87859236 -5.66549303 -5.45429638 -5.24119705
 -5.03000039 -4.82260908]",6.277217329111214,3.762868012553845,5.20119,0.04678000000000182
007,1,1,csp,62a.png,1,1,128,101,120,1,1,482,neg_feedback_onset,9,"[-0.88788879 -0.85383744 -0.80654391 -0.74600819 -0.67033854 -0.57953495
 -0.47548918 -0.36009296 -0.23523803 -0.10849136  0.02014705  0.14689371
  0.2698569   0.3890366   0.50632456  0.62361253  0.74279223  0.8695389
  1.00574427  1.14951661  1.30085592  1.45597871  1.60731801  1.75109035
  1.87594528  1.97999105  2.05376896  2.09917076  2.11241294  2.09917076
  2.06133593  2.00836717  1.94593971  1.87972876  1.8173013   1.76433254
  1.72082249  1.68866289  1.66596199  1.65461155  1.65082806  1.6527198
  1.65650329  1.66028677  1.66217851  1.66028677  1.6527198   1.63947761
  1.61866846  1.5884006   1.55434926  1.51273095  1.46543741  1.41625214
  1.36517512  1.31220637  1.25734587  1.19870189  1.13249094  1.05871303
  0.97358467  0.87332238  0.75792616  0.62361253  0.47038148  0.3020165
  0.11662585 -0.07633176 -0.27685634 -0.47738092 -0.67223028 -0.85572919
 -1.02031068 -1.16029954 -1.27380402 -1.35704064 -1.41190113 -1.43838551
 -1.44595248 -1.44027725 -1.43081855 -1.42892681 -1.43838551 -1.46865337
 -1.52351387 -1.60296701 -1.71079626 -1.83943467 -1.98888224 -2.15346373
 -2.32939567 -2.51289458 -2.70017697 -2.8893511  -3.07663349 -3.2601324
 -3.43795609 -3.60632106 -3.76522734 -3.90899968 -4.0338546  -4.13979212
 -4.21924525 -4.27599749 -4.30248187 -4.30248187 -4.27599749 -4.22302873
 -4.14735908 -4.05277202 -3.9373758  -3.80873739 -3.66496505 -3.511734
 -3.35093599 -3.18635449 -3.01798951 -2.85151628 -2.68882652 -2.53559548
 -2.3899314  -2.25372602 -2.13076284 -2.0191501  -1.91510432 -1.81484203
 -1.72025497 -1.62188442 -1.52162213 -1.41568462 -1.3002884  -1.18110869
 -1.05436202 -0.92194013 -0.78951824 -0.65520461 -0.52278271 -0.39036082
 -0.25793893 -0.12551704  0.00690486  0.14121849  0.27931561  0.41930446
  0.55929332  0.6954987   0.82602885  0.94710029  1.05492955  1.14762487
  1.21951104  1.27437154  1.31031462  1.33112378  1.33869074  1.33869074
  1.33301552  1.32923204  1.3273403   1.32923204  1.34058249  1.35760816
  1.3822008   1.41057691  1.44462826  1.4786796   1.51462269  1.54867403
  1.58272537  1.61677672  1.65082806  1.68677115  1.72838946  1.77568299
  1.83243523  1.89864618  1.97431583  2.05944419  2.15213951  2.24672658
  2.34320539  2.43590071  2.51913733  2.59291524  2.65345096  2.70263624
  2.73857932  2.7650637   2.78587285  2.80289853  2.82181594  2.84451684
  2.87667644  2.91829475  2.9712635   3.03747445  3.11503584  3.20583943
  3.30420998  3.40825575  3.51797674  3.62769774  3.73363526  3.83578929
  3.93037635  4.01550471  4.09495785  4.16873576  4.23873019  4.30683288
  4.37871905  4.45817218  4.54519228  4.64167109  4.74571686  4.85922134
  4.97840104  5.10136423  5.22432742  5.34350712  5.4570116   5.56484085
  5.6632114   5.75212324  5.83346812  5.90724603  5.97345698  6.0339927
  6.09074494  6.1437137   6.19479071  6.24397599  6.29316126  6.33856305
  6.38396484  6.42747489  6.46720146  6.49936106  6.52584544  6.54097937
  6.54287111  6.53341241  6.50692803  6.46341798  6.40099052  6.32153738
  6.21938335  6.09642016  5.95264782  5.78617459  5.59700045  5.38701717
  5.15811647  4.91408184  4.66248024  4.40898691  4.15738531  3.91713416
  3.6901252   3.4839254 ]","[-0.63652251 -0.69483548 -0.73674792 -0.75861529 -0.75861529 -0.73492564
 -0.68572407 -0.6091883  -0.50531833 -0.37593642 -0.22286488 -0.05157053
  0.13612434  0.33475289  0.53884828  0.74476596  0.95068363  1.15477902
  1.35522985  1.55568069  1.75613152  1.96204919  2.17525598  2.39757418
  2.63264834  2.87865618  3.13195314  3.39253922  3.6531253   3.90824454
  4.15060782  4.37292602  4.57155457  4.73920436  4.87223082  4.97063395
  5.03623604  5.06903709  5.07268165  5.05445885  5.01983552  4.97245623
  4.9196101   4.86129714  4.80662873  4.75196032  4.70275875  4.65902402
  4.62257842  4.59342193  4.57519913  4.57155457  4.58248825  4.61346702
  4.66631314  4.74284892  4.84307433  4.96516711  5.10730498  5.25855424
  5.41527034  5.56469733  5.69954607  5.80888289  5.8817741   5.91457514
  5.8999969   5.83439481  5.72141343  5.55740821  5.34966825  5.10183813
  4.81938469  4.50959704  4.17976431  3.83535333  3.48183095  3.12830858
  2.77660848  2.43401979  2.10054249  1.78346572  1.48278947  1.20398059
  0.94886135  0.72472087  0.53338144  0.3803099   0.2691508   0.20354871
  0.18350363  0.20901555  0.27461764  0.37666534  0.5096918   0.66276334
  0.82859085  0.99806292  1.16206814  1.31149513  1.43905475  1.53928016
  1.60670453  1.63950558  1.63950558  1.61034909  1.55568069  1.48278947
  1.3971423   1.30420601  1.20762515  1.11104429  1.01446344  0.91423802
  0.81036805  0.69556439  0.56982705  0.42951146  0.27461764  0.10696785
 -0.06979334 -0.2483768  -0.42331571 -0.58549866 -0.72399196 -0.8315065
 -0.90075315 -0.92808735 -0.90804227 -0.8406179  -0.7294588  -0.57820954
 -0.39051467 -0.17730787  0.05412172  0.29830728  0.5461374   0.7866784
  1.018108    1.22949251]",5.763379104014561,4.392242188339986,5.286135,0.12065000000000037
007,1,1,csm,5b.png,1,1,96,90,97,1,1,302,neu_feedback_onset,10,"[-0.02431203  0.06086881  0.12830364  0.18154167  0.21880828  0.2454273
  0.2596241   0.26317331  0.2596241   0.2454273   0.21880828  0.17976707
  0.12297984  0.046672   -0.05093104 -0.1698293  -0.30824817 -0.46263844
 -0.62590172 -0.789165   -0.94532987 -1.08374874 -1.19554859 -1.27718023
 -1.32154525 -1.33219286 -1.30734844 -1.25588502 -1.18135178 -1.09262174
 -0.9967933  -0.90273945 -0.81578401 -0.74125077 -0.68446355 -0.64719693
 -0.62767632 -0.62590172 -0.63832392 -0.65606993 -0.67381594 -0.68623815
 -0.68623815 -0.66671754 -0.62767632 -0.56733989 -0.48748285 -0.39342901
 -0.28695296 -0.17870231 -0.07045165  0.02892599  0.11588144  0.18864007
  0.2454273   0.28624312  0.31286213  0.32528434  0.32705894  0.31996053
  0.30576373  0.28624312  0.2613987   0.23477969  0.20638608  0.17444326
  0.14072585  0.10523383  0.06441801  0.02005299 -0.03141044 -0.08642306
 -0.14675949 -0.21241972 -0.28162915 -0.35438779 -0.42537182 -0.49458126
 -0.55846689 -0.61702871 -0.66671754 -0.70753336 -0.73947617 -0.76609519
 -0.7873904  -0.8051364  -0.82110781 -0.83707922 -0.85482523 -0.87612044
 -0.89741565 -0.92226006 -0.94710447 -0.97194888 -0.9967933  -1.01808851
 -1.03405991 -1.04825672 -1.05712973 -1.06245353 -1.06422813 -1.06245353
 -1.06245353 -1.06067893 -1.06245353 -1.06600273 -1.07310113 -1.08197414
 -1.09084714 -1.09794554 -1.09794554 -1.08907254 -1.06245353 -1.01631391
 -0.94355527 -0.84062842 -0.70575876 -0.54072088 -0.34551479 -0.12901348
  0.10523383  0.34303034  0.57727766  0.79732816  0.99608346  1.16467054
  1.3013148   1.40601625  1.48409869  1.53733671  1.57460333  1.60477155
  1.63493976  1.67220638  1.7218952   1.78400623  1.86208867  1.94904411
  2.04487256  2.1389264   2.22588184  2.29686588  2.3447801   2.36075151
  2.3430055   2.28621827  2.18684062  2.05019636  1.87451088  1.66865718
  1.43440987  1.18241654  0.91445182  0.64293789  0.36964936  0.10168463
 -0.1574071  -0.40407661 -0.63477472 -0.84772683 -1.04293292 -1.220393
 -1.37655788 -1.51497674 -1.6356496  -1.73502725 -1.81843349 -1.88409372
 -1.93378254 -1.97282376 -1.99944278 -2.01896338 -2.03493479 -2.0526808
 -2.07220141 -2.09882042 -2.13431244 -2.17867746 -2.23191549 -2.29225192
 -2.35613755 -2.42179778 -2.48568341 -2.54069603 -2.58683566 -2.61877847
 -2.63474988 -2.63474988 -2.62055307 -2.59038486 -2.54601984 -2.49100721
 -2.42534698 -2.35436294 -2.27805511 -2.19819807 -2.11834103 -2.04025859
 -1.96395076 -1.89474133 -1.83085569 -1.77406847 -1.72615424 -1.68533843
 -1.65339561 -1.6285512  -1.60903059 -1.59660838 -1.58773538 -1.58418618
 -1.58418618 -1.58950998 -1.59660838 -1.60903059 -1.625002   -1.642748
 -1.66404322 -1.68356382 -1.70485903 -1.72260504 -1.73680185 -1.74567485
 -1.74744945 -1.74212565 -1.72970345 -1.70840824 -1.68178922 -1.64984641
 -1.61257979 -1.56998937 -1.52739895 -1.48125933 -1.43511971 -1.39075468
 -1.34816426 -1.31089765 -1.27718023 -1.25056122 -1.23281521 -1.2221676
 -1.220393   -1.22749141 -1.24346281 -1.26298342 -1.28605323 -1.31089765
 -1.33396746 -1.35348807 -1.37123408 -1.38543088 -1.39785309 -1.41027529
 -1.4244721  -1.44576731 -1.47416092 -1.51320214 -1.56466557 -1.6267766
 -1.70130983 -1.78826527]","[nan nan nan nan nan nan nan nan nan nan nan nan nan nan nan nan nan nan
 nan nan nan nan nan nan nan nan nan nan nan nan nan nan nan nan nan nan
 nan nan nan nan nan nan nan nan nan nan nan nan nan nan nan nan nan nan
 nan nan nan nan nan nan nan nan nan nan nan nan nan nan nan nan nan nan
 nan nan nan nan nan nan nan nan nan nan nan nan nan nan nan nan nan nan
 nan nan nan nan nan nan nan nan nan nan nan nan nan nan nan nan nan nan
 nan nan nan nan nan nan nan nan nan nan nan nan nan nan nan nan nan nan
 nan nan nan nan nan nan nan nan nan nan nan nan nan nan]",1.1818397996830767,,5.635069999999999,0.1468549999999995
007,1,1,csm,38b.png,1,1,160,303,160,1,1,555,neu_feedback_onset,11,"[-0.80095816 -0.74294483 -0.68306011 -0.62317539 -0.55767647 -0.48843476
 -0.41545026 -0.33310877 -0.24515308 -0.1497118  -0.04678494  0.06175612
  0.17778277  0.30129501  0.42667864  0.55767647  0.6905457   0.82528632
  0.95815555  1.08728198  1.21079422  1.32682087  1.42787634  1.51396063
  1.57945954  1.62063029  1.63373007  1.62250168  1.58320234  1.52144622
  1.44471892  1.35676323  1.26693615  1.18459466  1.11535295  1.06669661
  1.04236844  1.04236844  1.06669661  1.11535295  1.18272326  1.26693615
  1.36237742  1.46717569  1.57758814  1.69174339  1.80589865  1.92192529
  2.03982334  2.15584999  2.27374804  2.39164608  2.50954413  2.62931357
  2.74908302  2.87072386  2.9942361   3.12149113  3.25436036  3.39097238
  3.53694139  3.69039599  3.85320758  4.02350475  4.19941612  4.37719889
  4.55311026  4.72527884  4.88809043  5.04341642  5.18751404  5.32225466
  5.45138109  5.57489333  5.69653417  5.81817501  5.93981585  6.0558425
  6.16251216  6.25608204  6.33093794  6.38333708  6.40953664  6.40953664
  6.38707987  6.34590912  6.29350999  6.23549667  6.18122614  6.1325698
  6.09514185  6.06894229  6.05022831  6.03899993  6.02964294  6.02028595
  6.00531477  5.98660079  5.96788682  5.95104424  5.94355865  5.94917284
  5.97350101  6.01841455  6.08391347  6.16999775  6.26731043  6.37398009
  6.47877835  6.57609102  6.65656112  6.71644584  6.75574519  6.77258777
  6.76884497  6.7463882   6.71270305  6.6696609   6.62287596  6.57421963
  6.52556329  6.48252115  6.4432218   6.41515083  6.40017965  6.40017965
  6.42450782  6.47503556  6.55550565  6.66778951  6.81001572  6.9746987
  7.15248147  7.33213564  7.49681862  7.62968785  7.71764354  7.7475859
  7.71764354  7.62781645  7.48559024  7.30593607  7.10943933  6.91668538
  6.7482596   6.62100457  6.54989146  6.53866307  6.58731941  6.69024628
  6.83434389  7.00651246  7.18990942  7.37143499  7.54173217  7.69144397
  7.81495621  7.91601168  7.99461038  8.0526237   8.09192305  8.11437982
  8.11999401  8.10502283  8.06946628  8.01145295  7.92536867  7.81495621
  7.68021558  7.52301819  7.35084961  7.16370986  6.97282731  6.78007336
  6.59106221  6.40953664  6.23736807  6.07455648  5.92484467  5.78448986
  5.65723482  5.54120817  5.43828131  5.35032562  5.27921252  5.22494199
  5.19125683  5.18002845  5.18938543  5.22494199  5.28295531  5.3652968
  5.47196646  5.6010929   5.7508047   5.92110188  6.10637024  6.30473838
  6.51059211  6.71831724  6.92229957  7.11879632  7.30032188  7.46500487
  7.61284527  7.73822891  7.84676997  7.93659705  8.01145295  8.07320907
  8.1256082   8.16865035  8.20982109  8.24724905  8.284677    8.32584774
  8.36888989  8.42128902  8.47930234  8.54292986  8.61404297  8.68889887
  8.76188337  8.82551089  8.87229583  8.8928812   8.87791002  8.8161539
  8.70199865  8.52795868  8.29590538  8.00396736  7.66150161  7.27786511
  6.86428625  6.43386481  6.00157197  5.58050752  5.18189984  4.81323452
  4.47825436  4.17883075  3.91683509  3.68665319  3.48454226  3.30863089
  3.15517629  3.02417846  2.9156374   2.8351673   2.78651097  2.77341118
  2.80335354  2.87820945  2.99797889  3.16453327  3.3722584   3.61741148
  3.89063553  4.18631634]","[-0.86577933 -0.97091571 -1.03662595 -1.05727774 -1.03850338 -0.97654802
 -0.87892138 -0.74374603 -0.58040915 -0.39266561 -0.18427028  0.03914453
  0.27194652  0.50850337  0.74693767  0.98161709  1.21254164  1.43783389
  1.65749383  1.86964403  2.07428449  2.27704751  2.47605566  2.67318637
  2.86843965  3.06369293  3.25706878  3.44668975  3.63067842  3.80340248
  3.96298448  4.1019147   4.21643826  4.30655516  4.36475566  4.39103975
  4.38728488  4.35349104  4.29341311  4.20705108  4.1019147   3.97800397
  3.84282862  3.69638866  3.54431639  3.38661182  3.22515238  3.06557037
  2.90598836  2.75016122  2.59808896  2.45540387  2.32398339  2.2075824
  2.10995576  2.03298091  1.98041272  1.95600606  1.96163836  1.99730964
  2.06301987  2.15689164  2.27517007  2.41410029  2.57180486  2.74640635
  2.93039502  3.12189343  3.32090158  3.5236646   3.72830506  3.93670039
  4.14509572  4.35536848  4.56564124  4.77779144  4.99181908  5.20960158
  5.42738408  5.64892146  5.87233627  6.09575108  6.31353359  6.52380635
  6.71905963  6.88802881  7.01944929  7.10581132  7.13397285  7.09266927
  6.97814571  6.78289243  6.5106643   6.16521619  5.75593528  5.29408617
  4.79468836  4.27651619  3.75271172  3.2420493   2.75579353  2.3033316
  1.89029582  1.51856361  1.18813498  0.89525506  0.63429155  0.39961212
  0.18746192 -0.00966879 -0.19365746 -0.36825895 -0.5353507  -0.69493271
 -0.84512754 -0.98405776 -1.10984593 -1.22061462 -1.31073151 -1.37831919
 -1.41962277 -1.43276481 -1.4158679  -1.36893201 -1.2938346  -1.19433052
 -1.07417466 -0.93899931 -0.79631422 -0.65362913 -0.51469891 -0.3870333
 -0.27438718 -0.18239285 -0.1110503  -0.06035955 -0.02844315 -0.01342366
 -0.00966879 -0.01717853]",7.4054944232352655,4.638344928061373,5.3436,-0.058244999999999436
007,1,1,csp,50a.png,1,1,356,284,352,1,1,379,pos_feedback_onset,12,"[ 2.25274965  2.18191989  2.06205414  1.89678469  1.69337615  1.45364465
  1.18667093  0.89608729  0.58915832  0.26951632 -0.05920642 -0.3897453
 -0.72210034 -1.04719078 -1.36320049 -1.66649716 -1.94981621 -2.20952533
 -2.43835995 -2.63632005 -2.79614105 -2.9196391  -3.00499804 -3.05403403
 -3.0721955  -3.06311477 -3.03224025 -2.98320427 -2.92145524 -2.85062548
 -2.77253113 -2.68535604 -2.59091636 -2.48557979 -2.36571404 -2.2313191
 -2.08057884 -1.90986096 -1.72461389 -1.52483764 -1.31598065 -1.10167521
 -0.88918593 -0.68214509 -0.48781728 -0.3098348  -0.15182995 -0.01380272
  0.10243073  0.19687041  0.27133247  0.32400076  0.36032371  0.37848519
  0.37848519  0.36395601  0.33308149  0.28586165  0.22411263  0.14601828
  0.0515786  -0.05375797 -0.17180758 -0.29712177 -0.42970055 -0.56227934
 -0.69485812 -0.82198846 -0.94185421 -1.05445537 -1.15797579 -1.25241548
 -1.33777442 -1.41586877 -1.48669853 -1.5502637  -1.60838043 -1.66104872
 -1.70826856 -1.74822381 -1.77909832 -1.80270824 -1.81542127 -1.81723742
 -1.80634053 -1.78273061 -1.74822381 -1.70282011 -1.64833568 -1.58840281
 -1.52665378 -1.46853706 -1.41950107 -1.38317811 -1.36138434 -1.35956819
 -1.37409737 -1.40678803 -1.45219173 -1.50486001 -1.56297674 -1.61927732
 -1.6719456  -1.713717   -1.74459151 -1.76275299 -1.76456914 -1.75367225
 -1.72824618 -1.69010708 -1.64107109 -1.57932207 -1.51030845 -1.4322141
 -1.35048745 -1.26331236 -1.17432112 -1.08532989 -0.99270635 -0.89826667
 -0.79837854 -0.69122583 -0.57317622 -0.44059744 -0.29530562 -0.13548462
  0.03704941  0.21503189  0.39301437  0.56191611  0.71628867  0.8470513
  0.94693943  1.01595304  1.052276    1.05772444  1.03593067  0.99779156
  0.94693943  0.89608729  0.85249975  0.82344138  0.81436064  0.82888983
  0.86884508  0.9305941   1.01413689  1.11402502  1.22117774  1.3301466
  1.43366702  1.52265826  1.58985573  1.63162712  1.64434016  1.62436253
  1.57532654  1.50086449  1.4064248   1.29927209  1.18848708  1.08133436
  0.98689468  0.91243262  0.86158048  0.83978671  0.84523515  0.87610967
  0.9305941   1.00142386  1.08133436  1.16487716  1.24297151  1.31016897
  1.35920496  1.39189562  1.40460866  1.39916021  1.38099874  1.35738882
  1.33196275  1.31380127  1.31016897  1.3265143   1.36465341  1.42821858
  1.51357752  1.62436253  1.75330902  1.90223314  2.06750258  2.24911735
  2.44707746  2.65956674  2.8902175   3.13721359  3.40237116  3.68024177
  3.9708254   4.26322519  4.55199268  4.82986328  5.08594011  5.31477473
  5.50910253  5.66529124  5.78334084  5.86506749  5.91047118  5.92863266
  5.92136807  5.895942    5.85961904  5.81421535  5.76517936  5.71614337
  5.66710739  5.61988754  5.57448385  5.52908016  5.48004417  5.42737588
  5.36925916  5.2984294   5.2185189   5.12589536  5.02055879  4.90250919
  4.77174655  4.63008703  4.47571447  4.30862888  4.12701411  3.92723786
  3.70930013  3.47320092  3.2134918   2.93380505  2.63414067  2.31631482
  1.98577593  1.6461563   1.30472053  0.9687332   0.64364276  0.34034609
  0.06065933 -0.18633676 -0.39700989 -0.57136008 -0.70575501 -0.80201084
 -0.86012757 -0.88555363 -0.8764729  -0.83833379 -0.77476862 -0.68577738
 -0.57317622 -0.44241359]","[-1.18461614 -1.086639   -0.98684748 -0.88342717 -0.77637808 -0.66751459
 -0.55502233 -0.43890128 -0.31915145 -0.19214405 -0.05606469  0.08727223
  0.2396811   0.40297633  0.57897229  0.76404021  0.95818009  1.16139193
  1.37004694  1.58414512  1.8000577   2.01778466  2.23369724  2.44960982
  2.663708    2.87780618  3.08827558  3.29874499  3.5074      3.71242622
  3.91200928  4.10252037  4.28395951  4.44906913  4.59603483  4.72122783
  4.82283375  4.90085258  4.95528432  4.98794337  5.0024585   5.0024585
  4.98975776  4.96979946  4.94439798  4.91536771  4.88633745  4.85730719
  4.83009132  4.80468984  4.77928836  4.75570127  4.73392857  4.71215588
  4.69038318  4.66861048  4.64865218  4.62687948  4.60329239  4.57970531
  4.55248944  4.52164478  4.48354256  4.43636839  4.37649347  4.30210342
  4.20594068  4.08437646  3.93559636  3.75234283  3.53461587  3.28060107
  2.98666967  2.65826482  2.29357216  1.89803483  1.47346725  1.02531257
  0.55901399  0.07638588 -0.41531419 -0.91608621 -1.42048702 -1.92488783
 -2.42747424 -2.92461748 -3.41087437 -3.88261613 -4.33439959 -4.75896718
 -5.15269011 -5.50649643 -5.81675736 -6.07984411 -6.29031351 -6.44816556
 -6.55521465 -6.61508957 -6.63504787 -6.61871835 -6.57698735 -6.51892682
 -6.45179434 -6.38284747 -6.31752938 -6.26128325 -6.21592346 -6.18326442
 -6.16149172 -6.14697659 -6.13971902 -6.13609024 -6.13246146 -6.12701828
 -6.11976072 -6.10887437 -6.09254485 -6.07077215 -6.04537067 -6.01271163
 -5.9764238  -5.9328784  -5.88207545 -5.82220053 -5.75325366 -5.67160604
 -5.5754433  -5.46295104 -5.33594364 -5.19079233 -5.02931149 -4.84968675
 -4.65736126 -4.45052064 -4.23460806 -4.00780914 -3.77738143 -3.53969616
 -3.29838211 -3.05525366]",4.7772858035363965,4.234562704459225,5.50616,-0.26705999999999896
007,1,1,csm,9b.png,1,1,316,324,310,1,1,769,neu_feedback_onset,13,"[-1.68607676 -1.47641118 -1.27828682 -1.08785661 -0.90896763 -0.73969633
 -0.57619565 -0.41846557 -0.26265904 -0.10877604  0.05087757  0.21245471
  0.38172601  0.55869146  0.74335105  0.93378126  1.12613501  1.32233583
  1.51468957  1.69934917  1.87246754  2.03019761  2.16676877  2.27833395
  2.36104606  2.41298157  2.43414048  2.42067572  2.3783579   2.30911055
  2.21485721  2.10521558  1.98210918  1.85707924  1.73397285  1.62048414
  1.52238372  1.44736576  1.39927733  1.38004195  1.39158318  1.43582454
  1.5108425   1.61278999  1.73589638  1.87631462  2.024427    2.17446292
  2.31872823  2.45529939  2.57455872  2.67842974  2.76498893  2.83423627
  2.89001886  2.93426022  2.97273097  3.00927818  3.04582539  3.08429614
  3.12661397  3.17662594  3.22856145  3.28819111  3.35166785  3.41899166
  3.48823901  3.56325697  3.64212201  3.72291058  3.80754623  3.89410542
  3.98643521  4.07876501  4.17494189  4.2730423   4.37114271  4.47309019
  4.57503768  4.6789087   4.78277972  4.88857428  4.99436884  5.1001634
  5.20595796  5.30982899  5.4079294   5.50218273  5.58489485  5.65606573
  5.70992478  5.74647199  5.75993675  5.7522426   5.71954247  5.66568342
  5.59066546  5.5002592   5.39638817  5.284823    5.16941075  5.05592204
  4.94628041  4.84240938  4.74815605  4.6635204   4.58850244  4.52117863
  4.46154897  4.40768992  4.35575441  4.30958951  4.26342461  4.22110678
  4.18263603  4.14608882  4.11531222  4.09222977  4.0729944   4.06337671
  4.06145317  4.06914732  4.08453562  4.11146515  4.14801236  4.1961008
  4.257654    4.33074842  4.41538407  4.51348448  4.62120258  4.73469129
  4.85395061  4.96936286  5.08285157  5.18672259  5.27905239  5.35984096
  5.4233177   5.47525321  5.51180042  5.53488287  5.54834763  5.55411825
  5.55219471  5.54834763  5.54257702  5.53680641  5.53680641  5.54065348
  5.55219471  5.57143008  5.59835961  5.62913621  5.66568342  5.70415417
  5.73877784  5.7676309   5.78494274  5.78686628  5.76955444  5.73108369
  5.67145403  5.58681838  5.48102382  5.35791742  5.21942273  5.07131034
  4.91935088  4.77316204  4.63851441  4.5250257   4.43846652  4.38653101
  4.37114271  4.39614869  4.45770189  4.5558023   4.68275578  4.82894462
  4.98475116  5.14055769  5.28674654  5.41370001  5.51757103  5.59451253
  5.64260097  5.66953049  5.67914818  5.67722464  5.67145403  5.66760696
  5.66953049  5.67914818  5.69453648  5.71184832  5.72723662  5.73493077
  5.72916015  5.71184832  5.67722464  5.63298328  5.58104777  5.53295933
  5.49641212  5.48294736  5.49641212  5.54834763  5.63875389  5.76955444
  5.9369022   6.14079717  6.36969813  6.61783446  6.87558848  7.13911311
  7.40263775  7.65846823  7.90468102  8.13935259  8.36440648  8.57984267
  8.78373764  8.97993847  9.16459806  9.33963997  9.50506419  9.65510012
  9.78974774  9.90708352 10.00518393 10.08020189 10.13021387 10.15714339
 10.16099047 10.14367863 10.10520788 10.0494253   9.98017795  9.89938937
  9.81283019  9.72242393  9.63009413  9.54353494  9.46274637  9.39542256
  9.34348705  9.31463398  9.31078691  9.3357929   9.38965195  9.47621113
  9.58969984  9.726271    9.880154   10.04557822 10.21484952 10.38219728
 10.54185089 10.69381034]","[-0.97661995 -1.07002886 -1.13362641 -1.15946292 -1.14555095 -1.09189052
 -1.00046903 -0.86929908 -0.70633034 -0.51355025 -0.29294624 -0.05246798
  0.20788451  0.48413638  0.7723128   1.07241377  1.38245184  1.70242704
  2.02836451  2.36225167  2.7021011   3.04791281  3.39968678  3.75344818
  4.11118442  4.46892067  4.82864434  5.18638058  5.54014198  5.88595369
  6.22381569  6.54577831  6.85184155  7.13604312  7.39440819  7.6229619
  7.81574198  7.97076102  8.08404417  8.15559142  8.18142792  8.16552854
  8.11385552  8.03435858  7.9349874   7.82766653  7.72233308  7.63289902
  7.56731404  7.52955299  7.52359072  7.54942722  7.60507508  7.68655945
  7.78791805  7.90716347  8.04032085  8.1794405   8.32650985  8.47556661
  8.62661081  8.77964242  8.93466146  9.08769308  9.24271212  9.39574373
  9.54877535  9.69981954  9.84688889  9.99197081 10.13109046 10.26226042
 10.38349325 10.4888267  10.58024819 10.64980801 10.69551876 10.71340557
 10.70148103 10.65179544 10.56633622 10.43914112 10.26822269 10.04761867
  9.77732906  9.45536644  9.08173081  8.65443474  8.1794405   7.65873552
  7.09828207  6.50801727  5.89390338  5.26985237  4.64580137  4.02970006
  3.43347298  2.86506984  2.33442774  1.84750896  1.40828835  1.01875333
  0.68287874  0.39668975  0.16217376 -0.0286189  -0.17568824 -0.28698397
 -0.36846833 -0.42014135 -0.45194012 -0.46585209 -0.46386466 -0.44796528
 -0.42212877 -0.38436772 -0.33865698 -0.28300912 -0.21742414 -0.14587689
 -0.06836737  0.01510442  0.10255106  0.19198512  0.28539403  0.38476521
  0.48811123  0.59940695  0.72063979  0.85180975  0.99689167  1.15191071
  1.31686687  1.48977272  1.66466599  1.83558442  1.99656573  2.14164765
  2.26486792  2.3642391 ]",9.748162689684275,8.86003370670397,5.198754999999999,-0.08219499999999869
007,1,1,csm,64b.png,1,1,180,177,178,1,1,530,neu_feedback_onset,14,"[-1.15558391 -1.12483496 -1.07294611 -0.99223013 -0.88460881 -0.74623854
 -0.57904113 -0.39262563 -0.19275747  0.01095431  0.20890067  0.38955074
  0.54906091  0.67974394  0.78159983  0.85462858  0.89883019  0.92189191
  0.92765733  0.91804829  0.90267381  0.88345572  0.86231582  0.84309773
  0.82580144  0.81234878  0.80466154  0.80081792  0.80081792  0.80850516
  0.81811421  0.83348868  0.85078496  0.86808125  0.88345572  0.89690839
  0.90459562  0.90651743  0.90267381  0.89306477  0.8796121   0.86423763
  0.84886315  0.83348868  0.82195782  0.81042697  0.80273973  0.79505249
  0.78736526  0.7758344   0.76238174  0.74700726  0.72586736  0.70472746
  0.68358756  0.66821308  0.66052585  0.66436946  0.68358756  0.71818012
  0.76814716  0.83541049  0.91420467  1.0045297   1.10062017  1.19863244
  1.29664471  1.38889156  1.47537298  1.55608896  1.62719591  1.69061561
  1.74634808  1.79439331  1.8328295   1.86550026  1.89240559  1.91354549
  1.93084177  1.94429444  1.96159072  1.98080881  2.00963595  2.05191576
  2.11341365  2.19412964  2.29982915  2.43243399  2.59002235  2.77259423
  2.97630601  3.19731408  3.429853    3.67007916  3.91222713  4.15245329
  4.38114859  4.59831304  4.7981812   4.97883127  5.13834144  5.27863352
  5.39586388  5.49579796  5.57843576  5.6476209   5.70719698  5.75716402
  5.80328745  5.84556725  5.89169067  5.94165771  5.99931199  6.06657532
  6.14921312  6.24530358  6.35676852  6.48168612  6.61621277  6.75073942
  6.87565702  6.98327834  7.0582289   7.08897785  7.06399433  6.9755911
  6.81800274  6.58546382  6.28181795  5.91090877  5.47657987  4.99036213
  4.46186458  3.90453989  3.33184073  2.75721976  2.19220783  1.64833581
  1.13521273  0.66052585  0.23196238 -0.14855586 -0.48102886 -0.76545663
 -1.00568279 -1.20555095 -1.37082655 -1.5053532  -1.61105271 -1.69561232
 -1.75903202 -1.80323364 -1.83206078 -1.84551344 -1.84359163 -1.83013897
 -1.80707725 -1.77248469 -1.73212669 -1.68408146 -1.63219261 -1.57646014
 -1.51496225 -1.44962073 -1.3804356  -1.30356323 -1.22092543 -1.13060039
 -1.03450993 -0.93073223 -0.82311091 -0.70972416 -0.59441561 -0.47718524
 -0.35995488 -0.24272451 -0.12741595 -0.0121074   0.10512297  0.22235333
  0.34534913  0.47603216  0.61248061  0.76045993  0.9199701   1.09101112
  1.27166119  1.46384212  1.66563209  1.87318749  2.08650832  2.30367277
  2.52083722  2.73800166  2.95132249  3.1607997   3.36258968  3.55861422
  3.74502972  3.92183617  4.08903358  4.24854375  4.40036668  4.54450238
  4.68095083  4.81355567  4.93847328  5.05954726  5.1710122   5.27671171
  5.37088036  5.44967454  5.51117244  5.54960862  5.56113948  5.5438432
  5.49387615  5.41123836  5.29400799  5.14795049  4.97306584  4.7770413
  4.56179866  4.33886878  4.11017348  3.88339999  3.66239192  3.4509929
  3.24920293  3.057022    2.87445012  2.69956548  2.52852445  2.36324886
  2.20373869  2.04999395  1.90393644  1.77325341  1.65986666  1.56954163
  1.50996554  1.4811384   1.48690383  1.52534002  1.59452515  1.6886938
  1.80592417  1.93852901  2.07882109  2.22103497  2.35940524  2.49008827
  2.61116225  2.71686176  2.80910861  2.88213736  2.93786983  2.9743842
  2.99168049  2.98975868]","[-0.60080351 -0.5670663  -0.53520337 -0.50334045 -0.46960324 -0.42836887
 -0.37963734 -0.32153437 -0.25405995 -0.17721407 -0.08912247  0.00834059
  0.11517509  0.22763246  0.34758699  0.4712901   0.59874179  0.72619348
  0.85364517  0.97734827  1.09542851  1.2060116   1.30534894  1.39344055
  1.46466355  1.52276653  1.5640009   1.59024095  1.60336098  1.60523527
  1.60336098  1.60148669  1.60336098  1.61273242  1.63709819  1.67645827
  1.73081266  1.80203567  1.88825298  1.98759033  2.09629912  2.21250507
  2.33620818  2.46178558  2.59298585  2.72418611  2.85726067  2.99033523
  3.12528407  3.26023292  3.39518176  3.52825632  3.66133088  3.79065685
  3.91435996  4.02681733  4.12615468  4.20112626  4.2479835   4.25735495
  4.21986916  4.12802897  3.97433723  3.75504535  3.46827906  3.11403833
  2.69419748  2.21812794  1.68957829  1.12166857  0.52002163 -0.1003682
 -0.73387806 -1.36551363 -1.98590347 -2.58380183 -3.14796298 -3.66901546
 -4.13571356 -4.54430867 -4.88917795 -5.16844709 -5.38586467 -5.54517928
 -5.65576236 -5.72885965 -5.77196831 -5.79445979 -5.80570552 -5.81320268
 -5.82069984 -5.83381987 -5.85443705 -5.88629997 -5.92940863 -5.98751161
 -6.05686032 -6.14307764 -6.2405407  -6.34924949 -6.46732973 -6.59290713
 -6.71848452 -6.84406192 -6.96589074 -7.07834811 -7.18330833 -7.27327422
 -7.3501201  -7.41197165 -7.45320602 -7.47569749 -7.47757178 -7.4569546
 -7.41009736 -7.33887436 -7.2414113  -7.11770819 -6.96589074 -6.79158182
 -6.59290713 -6.37548954 -6.14307764 -5.89754571 -5.64451663 -5.39148754
 -5.13845845 -4.89292653 -4.65489176 -4.4318513  -4.22193087 -4.02700476
 -3.84894726 -3.68775836 -3.53968949 -3.40474064 -3.28291182 -3.17045445
 -3.06549424 -2.96803118]",5.003430429543572,2.024373261010769,5.203430000000001,0.06562499999999893
007,2,1,csp,53a.png,1,1,248,257,246,1,1,404,pos_feedback_onset,1,"[-1.24814893 -1.08074797 -0.92438443 -0.77905832 -0.6410905  -0.51232053
 -0.39090884 -0.2731763  -0.15912289 -0.04690906  0.06530477  0.18119774
  0.29893029  0.42034198  0.54543281  0.67052363  0.79377489  0.91518658
  1.02923998  1.1359351   1.23159279  1.31805263  1.3897959   1.45050174
  1.50200973  1.54248029  1.57559257  1.60134657  1.62158185  1.63445884
  1.63997756  1.63997756  1.6307797   1.61054442  1.58111128  1.53880115
  1.48545359  1.41922904  1.34012748  1.2499885   1.14513295  1.02740041
  0.8949513   0.74778562  0.58590337  0.40930455  0.21614959  0.00827807
 -0.21247045 -0.44609597 -0.68891934 -0.94094057 -1.19664094 -1.45234131
 -1.70804168 -1.9545442  -2.19368843 -2.41627652 -2.62046891 -2.80442601
 -2.96262911 -3.09323866 -3.19625463 -3.27167704 -3.32134546 -3.34709946
 -3.35261817 -3.34158074 -3.31582675 -3.2808749  -3.24040434 -3.19257549
 -3.1410675  -3.0840408  -3.02149539 -2.95343126 -2.87616928 -2.79154901
 -2.69773089 -2.59655448 -2.48985936 -2.37764553 -2.26359213 -2.1513783
 -2.03916447 -1.93246935 -1.82577423 -1.72091868 -1.61422356 -1.5038493
 -1.38611676 -1.25550722 -1.11386025 -0.95749671 -0.78825618 -0.60613865
 -0.41666283 -0.22350788 -0.03219249  0.15544375  0.33388214  0.49760396
  0.64844878  0.78273747  0.90047001  1.00532556  1.09546454  1.17456609
  1.24079065  1.29965692  1.34932534  1.39347504  1.42842689  1.4596996
  1.48545359  1.51120759  1.53512201  1.56455515  1.60134657  1.64733584
  1.70804168  1.78530367  1.87544265  1.98213777  2.10170988  2.22680071
  2.35741025  2.48618022  2.60575234  2.7161266   2.81178429  2.89088585
  2.9571104   3.01229753  3.06196595  3.1097948   3.16498193  3.23488562
  3.32134546  3.43355929  3.57152712  3.73708851  3.92472475  4.13075671
  4.34414694  4.55753718  4.75988999  4.94016795  5.09285235  5.20874532
  5.2860073   5.32647787  5.33383615  5.31544044  5.28232816  5.2418576
  5.20874532  5.18851004  5.1848309   5.20322661  5.23817846  5.28416773
  5.33199658  5.37246714  5.39270242  5.38350457  5.33567572  5.24553674
  5.11308763  4.93832838  4.73045686  4.49499177  4.24481011  3.98910974
  3.73892808  3.50346299  3.28639361  3.09139909  2.92031898  2.76763459
  2.63150633  2.5064155   2.38500382  2.26359213  2.1385013   2.00421262
  1.86072608  1.70804168  1.54983858  1.38795633  1.22791365  1.07522926
  0.93358229  0.80849146  0.70547548  0.62453436  0.5711868   0.54175366
  0.53807452  0.5583098   0.59878036  0.65948621  0.73490862  0.82320803
  0.92254486  1.02923998  1.14329338  1.2628655   1.38611676  1.51120759
  1.63813799  1.76690796  1.8975175   2.02812704  2.15873658  2.2911857
  2.42179524  2.55424435  2.68669346  2.82098215  2.95343126  3.08955951
  3.22752734  3.36549517  3.50714213  3.65246824  3.79779435  3.94312046
  4.08476743  4.22089569  4.34598652  4.45084206  4.52994362  4.57409332
  4.57593289  4.53178319  4.43244635  4.27792239  4.06821129  3.80515264
  3.49242557  3.13922793  2.75291802  2.34085411  1.91223407  1.4725766
  1.03291912  0.59326165  0.16096246 -0.26397844 -0.67972149 -1.08626668
 -1.48545359 -1.87360308 -2.25623385 -2.62966676 -2.99390182 -3.34709946
 -3.68925966 -4.0167033 ]","[-1.19938994 -1.14594037 -1.07774609 -0.99665019 -0.90449575 -0.79759661
 -0.68148203 -0.55246582 -0.41239108 -0.25941473 -0.09353675  0.08339976
  0.27508098  0.47782073  0.68793284  0.9054173   1.12105867  1.33117078
  1.53022435  1.70900395  1.86566648  1.99099651  2.08499403  2.14581596
  2.17714847  2.18267773  2.16977611  2.14765905  2.12554198  2.11264036
  2.11816963  2.14765905  2.2047948   2.28773378  2.39647601  2.52180604
  2.66188078  2.80195552  2.93650099  3.05445866  3.14661309  3.20374884
  3.21849355  3.18347487  3.0968497   2.95493187  2.76140757  2.51627678
  2.22506877  1.8951559   1.53206744  1.14317573  0.73401005  0.31194275
 -0.11933999 -0.55430891 -0.99112092 -1.42240366 -1.84631405 -2.25732282
 -2.65358688 -3.02957697 -3.37976381 -3.70414741 -3.99904159 -4.26260327
 -4.49667553 -4.70310146 -4.88556723 -5.05144521 -5.20995084 -5.36661337
 -5.53249135 -5.71495713 -5.91585379 -6.14439678 -6.39505684 -6.66783396
 -6.95719887 -7.25393615 -7.55067342 -7.83635216 -8.09991384 -8.33582918
 -8.53856893 -8.70076073 -8.82424767 -8.90718666 -8.95142079 -8.95695006
 -8.92930373 -8.87032489 -8.78185664 -8.66389896 -8.52198114 -8.35426007
 -8.16442194 -7.95062366 -7.71470831 -7.46220516 -7.19311422 -6.91112166
 -6.61807056 -6.3194902  -6.02090984 -5.72232948 -5.42927838 -5.14544273
 -4.87082252 -4.60726085 -4.35660079 -4.11699927 -3.89029936 -3.6728149
 -3.46454589 -3.26364922 -3.06828183 -2.88028678 -2.69597792 -2.51719832
 -2.34579108 -2.1799131  -2.02140747 -1.87027421 -1.72651329 -1.59196782
 -1.4647947  -1.34499394 -1.23256553 -1.12750948 -1.02798269 -0.93582826
 -0.84920309 -0.76995028 -0.69622674 -0.62803246 -0.56536744 -0.50823169
 -0.45478212 -0.40317564]",4.516606727311194,1.5331732918024028,5.43605,0.11946499999999993
007,2,1,csm,27b.png,1,1,336,330,333,1,1,604,neu_feedback_onset,2,"[-4.90389874e-01 -3.75347751e-01 -2.65783825e-01 -1.65350226e-01
 -7.95251499e-02 -6.48253231e-03  4.82994309e-02  9.21250015e-02
  1.21342049e-01  1.39602703e-01  1.50559096e-01  1.56037292e-01
  1.56037292e-01  1.52385161e-01  1.41428768e-01  1.23168114e-01
  9.57771324e-02  5.74297581e-02  6.29992577e-03 -5.76123647e-02
 -1.34307113e-01 -2.23784320e-01 -3.20565788e-01 -4.22825453e-01
 -5.25085117e-01 -6.25518717e-01 -7.20474120e-01 -8.04473130e-01
 -8.75689682e-01 -9.30471645e-01 -9.70645085e-01 -9.90731805e-01
 -9.96210001e-01 -9.83427543e-01 -9.56036561e-01 -9.15863122e-01
 -8.64733289e-01 -8.06299195e-01 -7.42386905e-01 -6.78474614e-01
 -6.21866586e-01 -5.76214950e-01 -5.50650034e-01 -5.52476099e-01
 -5.87171342e-01 -6.63866091e-01 -7.84386410e-01 -9.52384431e-01
 -1.17151228e+00 -1.43446571e+00 -1.74124470e+00 -2.08271894e+00
 -2.44975809e+00 -2.83323183e+00 -3.22583590e+00 -3.61661391e+00
 -3.99643552e+00 -4.35982254e+00 -4.70129678e+00 -5.01720610e+00
 -5.30755051e+00 -5.57050393e+00 -5.80606637e+00 -6.01241177e+00
 -6.19319225e+00 -6.34658174e+00 -6.47440632e+00 -6.57483992e+00
 -6.64788254e+00 -6.69536024e+00 -6.71544696e+00 -6.70996877e+00
 -6.68075172e+00 -6.62779582e+00 -6.55292714e+00 -6.45979780e+00
 -6.35023387e+00 -6.22606142e+00 -6.09093258e+00 -5.94849948e+00
 -5.80058818e+00 -5.65085081e+00 -5.50293951e+00 -5.35868034e+00
 -5.22355150e+00 -5.09755298e+00 -4.98251086e+00 -4.88207726e+00
 -4.79442612e+00 -4.71955743e+00 -4.65747121e+00 -4.60451531e+00
 -4.55703761e+00 -4.51321204e+00 -4.46938647e+00 -4.42190877e+00
 -4.37077894e+00 -4.31051878e+00 -4.23930222e+00 -4.15712928e+00
 -4.06034781e+00 -3.94895782e+00 -3.81930717e+00 -3.67322194e+00
 -3.51070211e+00 -3.33174770e+00 -3.14001083e+00 -2.93914363e+00
 -2.73097217e+00 -2.52280071e+00 -2.31828138e+00 -2.12471844e+00
 -1.94393796e+00 -1.78141814e+00 -1.63533291e+00 -1.50933439e+00
 -1.40159653e+00 -1.30846719e+00 -1.22994638e+00 -1.16238196e+00
 -1.10577393e+00 -1.05464410e+00 -1.00899246e+00 -9.68819020e-01
 -9.32297711e-01 -8.97602467e-01 -8.62907224e-01 -8.28211981e-01
 -7.89864606e-01 -7.46039036e-01 -6.96735269e-01 -6.38301175e-01
 -5.72562819e-01 -4.97694136e-01 -4.15521191e-01 -3.29696115e-01
 -2.40218909e-01 -1.50741702e-01 -6.67426919e-02  1.17781221e-02
  7.93425434e-02  1.35950572e-01  1.81602208e-01  2.14471386e-01
  2.34558106e-01  2.41862368e-01  2.40036302e-01  2.25427779e-01
  2.01688928e-01  1.66993685e-01  1.21342049e-01  6.65600853e-02
  2.64779489e-03 -7.03948227e-02 -1.50741702e-01 -2.36566778e-01
 -3.24217919e-01 -4.10042995e-01 -4.94042005e-01 -5.70736753e-01
 -6.38301175e-01 -6.96735269e-01 -7.44212970e-01 -7.78908214e-01
 -8.02647064e-01 -8.15429523e-01 -8.15429523e-01 -8.02647064e-01
 -7.77082148e-01 -7.38734774e-01 -6.87604942e-01 -6.23692651e-01
 -5.46997903e-01 -4.61172827e-01 -3.66217424e-01 -2.69435956e-01
 -1.69002357e-01 -7.22208882e-02  2.45605802e-02  1.17689918e-01
  2.10819255e-01  3.03948593e-01  4.02556126e-01  5.06641857e-01
  6.21683979e-01  7.45856429e-01  8.80985272e-01  1.02707051e+00
  1.18228607e+00  1.34297983e+00  1.50732572e+00  1.66984554e+00
  1.82871324e+00  1.98027667e+00  2.12270977e+00  2.25053435e+00
  2.36557648e+00  2.46235794e+00  2.54270482e+00  2.60661711e+00
  2.65226875e+00  2.67965973e+00  2.68879006e+00  2.67783367e+00
  2.64679055e+00  2.59566072e+00  2.52809630e+00  2.44227122e+00
  2.34183762e+00  2.23044763e+00  2.11175338e+00  1.99305913e+00
  1.87436487e+00  1.76297488e+00  1.65888915e+00  1.56210768e+00
  1.47445654e+00  1.39045753e+00  1.30645852e+00  1.21698131e+00
  1.11654771e+00  9.97853460e-01  8.59072487e-01  6.96552662e-01
  5.10293987e-01  2.98470396e-01  6.65600853e-02 -1.79958749e-01
 -4.33781845e-01 -6.89431007e-01 -9.37775907e-01 -1.16968622e+00
 -1.37603161e+00 -1.55315996e+00 -1.69011487e+00 -1.78689634e+00
 -1.83802617e+00 -1.84167830e+00 -1.79967880e+00 -1.71202765e+00
 -1.58602914e+00 -1.42350931e+00 -1.23177244e+00 -1.01994885e+00
 -7.93516737e-01 -5.61606426e-01 -3.33348246e-01 -1.14220393e-01
  8.48207397e-02  2.56470891e-01  3.98903996e-01  5.02989726e-01
  5.66902016e-01  5.90640867e-01  5.74206278e-01  5.21250380e-01
  4.35425304e-01  3.27687443e-01  2.03514993e-01  7.56904125e-02]","[-9.41569796e-01 -9.09693491e-01 -8.62816572e-01 -8.00939038e-01
 -7.24060891e-01 -6.30307053e-01 -5.23427678e-01 -4.01547688e-01
 -2.70292315e-01 -1.27786481e-01  1.84695061e-02  1.66600570e-01
  3.14731634e-01  4.59112545e-01  5.94118072e-01  7.19748215e-01
  8.34127897e-01  9.37257119e-01  1.03101096e+00  1.11726449e+00
  1.19789279e+00  1.27664601e+00  1.35914939e+00  1.44540292e+00
  1.53728168e+00  1.63478567e+00  1.73791490e+00  1.84104412e+00
  1.94042319e+00  2.02667672e+00  2.09792963e+00  2.14480655e+00
  2.16168224e+00  2.14480655e+00  2.09417948e+00  2.00980103e+00
  1.89354627e+00  1.75104043e+00  1.59165891e+00  1.41915185e+00
  1.24289463e+00  1.06663742e+00  8.97880507e-01  7.38498982e-01
  5.88492841e-01  4.49737161e-01  3.22231941e-01  2.04102105e-01
  9.53476533e-02 -2.15633828e-03 -8.65347925e-02 -1.59662786e-01
 -2.15915089e-01 -2.55291701e-01 -2.75917545e-01 -2.75917545e-01
 -2.60916931e-01 -2.30915703e-01 -1.93414168e-01 -1.57787709e-01
 -1.33411712e-01 -1.31536635e-01 -1.65288016e-01 -2.44041240e-01
 -3.79046767e-01 -5.74054750e-01 -8.36565497e-01 -1.16845408e+00
 -1.56972051e+00 -2.03286447e+00 -2.55601089e+00 -3.12790930e+00
 -3.73918432e+00 -4.37858550e+00 -5.03486236e+00 -5.69488938e+00
 -6.34929117e+00 -6.98494220e+00 -7.59434214e+00 -8.16999071e+00
 -8.70438759e+00 -9.19753277e+00 -9.64192597e+00 -1.00394422e+01
 -1.03882065e+01 -1.06863437e+01 -1.09338539e+01 -1.11326120e+01
 -1.12844932e+01 -1.13857474e+01 -1.14438747e+01 -1.14551252e+01
 -1.14251240e+01 -1.13576212e+01 -1.12544920e+01 -1.11213615e+01
 -1.09657302e+01 -1.07875979e+01 -1.05963400e+01 -1.03938317e+01
 -1.01856982e+01 -9.97193948e+00 -9.75630565e+00 -9.54067182e+00
 -9.32316292e+00 -9.10377894e+00 -8.88439495e+00 -8.66313590e+00
 -8.43812669e+00 -8.20936732e+00 -7.97685780e+00 -7.73872305e+00
 -7.49683815e+00 -7.24932802e+00 -7.00369296e+00 -6.75805791e+00
 -6.51617301e+00 -6.28553856e+00 -6.06802966e+00 -5.86739645e+00
 -5.69113923e+00 -5.53925801e+00 -5.41550295e+00 -5.31987403e+00
 -5.24862112e+00 -5.20174420e+00 -5.17174297e+00 -5.15299220e+00
 -5.13986666e+00 -5.12674113e+00 -5.10611528e+00 -5.07423898e+00
 -5.02923713e+00 -4.96923468e+00 -4.89235653e+00 -4.80235285e+00
 -4.69922362e+00 -4.58671902e+00 -4.46671411e+00 -4.34295904e+00]",1.799907053269066,1.1667665145041815,5.476255,-0.05273000000000039
007,2,1,csp,5a.png,1,1,44,49,45,1,1,503,neg_feedback_onset,3,"[-0.83603989 -0.75689264 -0.67209202 -0.58352249 -0.49306849 -0.4026145
 -0.31404496 -0.22735988 -0.14444372 -0.0596431   0.02515752  0.11184259
  0.20418105  0.30028842  0.4001647   0.50192545  0.60180173  0.6979091
  0.78459418  0.86185696  0.92404409  0.97115554  1.00507579  1.02392037
  1.03334266  1.03334266  1.02768929  1.01638254  1.00319133  0.98811566
  0.96927108  0.94665758  0.92027517  0.88447046  0.84112792  0.78647864
  0.7205226   0.64514427  0.56034365  0.46988966  0.37566674  0.27955938
  0.18722092  0.09865139  0.01573523 -0.06152756 -0.13313697 -0.20474638
 -0.27824026 -0.35927196 -0.45537933 -0.57221574 -0.71166564 -0.87938243
 -1.07725054 -1.30715444 -1.56909413 -1.85741624 -2.17212076 -2.50755432
 -2.85994801 -3.22364844 -3.59677117 -3.97366281 -4.35055445 -4.72556164
 -5.09491545 -5.45673143 -5.8053562  -6.14078976 -6.45737874 -6.75512314
 -7.03025403 -7.28088698 -7.5051375  -7.70300562 -7.87260686 -8.01582568
 -8.13266209 -8.22500054 -8.29284104 -8.34183695 -8.37387274 -8.39083286
 -8.39460178 -8.38706395 -8.37387274 -8.35502816 -8.3305302  -8.30414779
 -8.27776537 -8.24761404 -8.21934717 -8.19108029 -8.16281342 -8.13643101
 -8.11193305 -8.08931955 -8.07235943 -8.05916822 -8.05351484 -8.05351484
 -8.06293714 -8.08178172 -8.10627967 -8.14208438 -8.181658   -8.226885
 -8.27399646 -8.32110791 -8.36633491 -8.40590853 -8.43794432 -8.46244228
 -8.47563348 -8.4794024  -8.47563348 -8.46244228 -8.44359769 -8.4209842
 -8.39271732 -8.36445045 -8.33241466 -8.29849441 -8.26080525 -8.21934717
 -8.17035125 -8.11004859 -8.04032364 -7.95363856 -7.85187782 -7.73504141
 -7.59936041 -7.45048822 -7.28842481 -7.11882357 -6.94545341 -6.77208326
 -6.60248202 -6.44230307 -6.29154641 -6.15586542 -6.0352601  -5.92784598
 -5.83362307 -5.75259137 -5.68098195 -5.61691037 -5.55660771 -5.49630505
 -5.43600239 -5.37004635 -5.29843694 -5.22117415 -5.13448907 -5.04403508
 -4.94792771 -4.8537048  -4.7632508  -4.68410356 -4.61814752 -4.57292052
 -4.54842257 -4.54653811 -4.56726715 -4.61060969 -4.67091235 -4.74629068
 -4.83297576 -4.92342975 -5.01765266 -5.10810666 -5.19290728 -5.27017006
 -5.33801056 -5.39265985 -5.43223347 -5.45484697 -5.45861588 -5.44354022
 -5.40773551 -5.35308622 -5.27959235 -5.19290728 -5.09303099 -4.98750133
 -4.87443384 -4.7632508  -4.65206777 -4.54465365 -4.44100845 -4.34113216
 -4.24690925 -4.15645526 -4.06788572 -3.98496956 -3.90582232 -3.83232845
 -3.77014132 -3.71737649 -3.67968733 -3.65895829 -3.65707383 -3.67591841
 -3.71360758 -3.76825687 -3.8342129  -3.90582232 -3.97554727 -4.03396547
 -4.07730801 -4.09426814 -4.08107693 -4.03396547 -3.95104931 -3.83232845
 -3.67780287 -3.49501043 -3.28583556 -3.05970058 -2.82225884 -2.58293265
 -2.34925983 -2.12877822 -1.92714119 -1.75000212 -1.59924546 -1.47675568
 -1.38441723 -1.32223011 -1.28830986 -1.28265648 -1.30338552 -1.35238144
 -1.42587531 -1.52198268 -1.63881909 -1.77450008 -1.92525673 -2.08732014
 -2.25692138 -2.42840708 -2.59800832 -2.7657251  -2.92401959 -3.06912287
 -3.20103494 -3.3159869  -3.40832535 -3.47993476 -3.52516176 -3.54400634
 -3.53646851 -3.49877934 -3.4328233  -3.33860039 -3.21611061 -3.06912287
 -2.89952163 -2.71107581]","[-0.57708835 -0.53439606 -0.48427903 -0.434162   -0.38033259 -0.32650319
 -0.27267378 -0.22070056 -0.16687116 -0.11304175 -0.05364379  0.00946655
  0.08185782  0.16538621  0.26005171  0.36399815  0.48093789  0.6034462
  0.73337924  0.86516848  0.99510152  1.1213222   1.24011813  1.35520168
  1.46286049  1.57051931  1.6800343   1.79697404  1.92505091  2.06797726
  2.22760929  2.40394699  2.59327801  2.79188995  2.99421427  3.18911384
  3.3710201   3.52879595  3.65316044  3.73854501  3.77938111  3.76824399
  3.70698984  3.59561866  3.43784281  3.23737468  2.99978283  2.73434817
  2.44292691  2.13665615  1.8173921   1.49255948  1.16587067  0.84103805
  0.52177399  0.21179087 -0.08705514 -0.37105166 -0.63648631 -0.88150292
 -1.10424528 -1.30471341 -1.48290731 -1.64068315 -1.77618476 -1.89498069
 -2.00078331 -2.09359263 -2.17712102 -2.25508085 -2.3293283  -2.3980072
 -2.46297372 -2.52422787 -2.57805728 -2.62260575 -2.65787329 -2.68014753
 -2.68757228 -2.67829134 -2.65230473 -2.61332482 -2.55763923 -2.49452889
 -2.42028143 -2.34603398 -2.26993034 -2.19753907 -2.13442873 -2.07874314
 -2.03605085 -2.0026395  -1.98036526 -1.96551577 -1.95623484 -1.94695391
 -1.9339606  -1.91539874 -1.88569975 -1.84115128 -1.77804094 -1.69822493
 -1.59799086 -1.47919493 -1.34369333 -1.19519842 -1.03742257 -0.87593436
 -0.71630233 -0.56409504 -0.42302488 -0.29866039 -0.19471395 -0.10932938
 -0.04250667  0.00575418  0.04102172  0.06515214  0.08371401  0.10041968
  0.12083773  0.14496816  0.17466714  0.21364705  0.26005171  0.31016875
  0.36771052  0.42896467  0.49021883  0.55332916  0.61458331  0.67026891
  0.72224212  0.76307823  0.79277721  0.80577051  0.79648958  0.76122204
  0.69625552  0.59602145]",0.5390021605313249,2.040505699420298,5.306565000000001,0.13704999999999945
007,2,1,csm,3b.png,1,1,192,214,195,1,1,482,neu_feedback_onset,4,"[-1.49840624e+00 -1.39793462e+00 -1.26988255e+00 -1.12213016e+00
 -9.58617510e-01 -7.83284674e-01 -6.02041741e-01 -4.16858745e-01
 -2.27735685e-01 -4.05826566e-02  1.46570372e-01  3.29783336e-01
  5.09056237e-01  6.80449010e-01  8.40021592e-01  9.81863887e-01
  1.10400586e+00  1.19659736e+00  1.25372829e+00  1.27539864e+00
  1.25372829e+00  1.18674720e+00  1.08036548e+00  9.32613090e-01
  7.49400125e-01  5.40576747e-01  3.12053049e-01  7.56492240e-02
 -1.60754601e-01 -3.83368203e-01 -5.88251518e-01 -7.63584355e-01
 -9.03456618e-01 -1.00392824e+00 -1.06302920e+00 -1.07681942e+00
 -1.04726894e+00 -9.78317829e-01 -8.69966076e-01 -7.30093813e-01
 -5.58701040e-01 -3.61697852e-01 -1.46964378e-01  8.35293515e-02
  3.25843272e-01  5.74067288e-01  8.26231368e-01  1.07839545e+00
  1.32858950e+00  1.57484348e+00  1.81518737e+00  2.04765113e+00
  2.27026473e+00  2.48302818e+00  2.68397143e+00  2.87309449e+00
  3.05039736e+00  3.21785006e+00  3.37348258e+00  3.51926494e+00
  3.65519714e+00  3.78127918e+00  3.90145113e+00  4.01374294e+00
  4.11815463e+00  4.21665623e+00  4.30530766e+00  4.38410893e+00
  4.45306005e+00  4.51216101e+00  4.55944177e+00  4.59490235e+00
  4.62051276e+00  4.63824305e+00  4.65006324e+00  4.65991340e+00
  4.66976356e+00  4.68355378e+00  4.70325410e+00  4.73280458e+00
  4.77220521e+00  4.82145601e+00  4.88055697e+00  4.94753805e+00
  5.01845920e+00  5.09135038e+00  5.16424156e+00  5.23516270e+00
  5.30214379e+00  5.36321478e+00  5.42034570e+00  5.47156653e+00
  5.51687726e+00  5.56021796e+00  5.60158863e+00  5.63901924e+00
  5.67053975e+00  5.69418013e+00  5.70994039e+00  5.71191042e+00
  5.70009023e+00  5.66856972e+00  5.61734889e+00  5.55036780e+00
  5.46762647e+00  5.37700500e+00  5.28244347e+00  5.19379204e+00
  5.11893082e+00  5.06573996e+00  5.03815952e+00  5.04012955e+00
  5.07165006e+00  5.13075102e+00  5.20758226e+00  5.29820372e+00
  5.38882519e+00  5.47353656e+00  5.54248768e+00  5.58976844e+00
  5.60749873e+00  5.59764857e+00  5.56021796e+00  5.49717694e+00
  5.41443561e+00  5.31987408e+00  5.21546239e+00  5.11105070e+00
  5.01057907e+00  4.91798757e+00  4.83721627e+00  4.76629512e+00
  4.70916419e+00  4.66582349e+00  4.63430298e+00  4.61263263e+00
  4.60475250e+00  4.60475250e+00  4.61263263e+00  4.62642286e+00
  4.64809321e+00  4.67370362e+00  4.70325410e+00  4.73871467e+00
  4.77614528e+00  4.81751595e+00  4.86479671e+00  4.91798757e+00
  4.97708853e+00  5.04406961e+00  5.11893082e+00  5.19773210e+00
  5.28441350e+00  5.37503497e+00  5.46762647e+00  5.56218800e+00
  5.65477949e+00  5.74343093e+00  5.82617227e+00  5.90300351e+00
  5.96998459e+00  6.02908555e+00  6.08030638e+00  6.12364708e+00
  6.15910765e+00  6.19062816e+00  6.22017864e+00  6.24972912e+00
  6.27927960e+00  6.31080011e+00  6.34626068e+00  6.37975122e+00
  6.41324177e+00  6.44279224e+00  6.46249256e+00  6.46840266e+00
  6.46052253e+00  6.43294209e+00  6.38566132e+00  6.31868024e+00
  6.23396887e+00  6.13546727e+00  6.02711552e+00  5.91679373e+00
  5.80844198e+00  5.70797035e+00  5.61734889e+00  5.54445771e+00
  5.48929682e+00  5.45186621e+00  5.43413592e+00  5.43610596e+00
  5.45186621e+00  5.48338672e+00  5.52672742e+00  5.58188831e+00
  5.64886940e+00  5.72373061e+00  5.80647195e+00  5.89906345e+00
  5.99756504e+00  6.10394676e+00  6.21623858e+00  6.33050043e+00
  6.45067237e+00  6.57281435e+00  6.69692636e+00  6.82300840e+00
  6.95106047e+00  7.08502264e+00  7.22095484e+00  7.36082710e+00
  7.50266939e+00  7.65042178e+00  7.79620414e+00  7.94395653e+00
  8.08973889e+00  8.23355122e+00  8.37539351e+00  8.51132571e+00
  8.64331785e+00  8.76939989e+00  8.89154187e+00  9.00580371e+00
  9.11218544e+00  9.20871700e+00  9.29342837e+00  9.36434952e+00
  9.41360031e+00  9.44118076e+00  9.44118076e+00  9.40966025e+00
  9.34267916e+00  9.23432741e+00  9.08066493e+00  8.87775164e+00
  8.62164750e+00  8.31038246e+00  7.94395653e+00  7.52236971e+00
  7.05153209e+00  6.53341371e+00  5.97983475e+00  5.39670532e+00
  4.79387556e+00  4.18513572e+00  3.57639587e+00  2.97947621e+00
  2.40225687e+00  1.84867791e+00  1.32661946e+00  8.41991623e-01
  3.94794388e-01 -7.09211475e-03 -3.65637916e-01 -6.74932920e-01
 -9.36947160e-01 -1.15168063e+00 -1.32110338e+00 -1.44718542e+00]","[ -1.78272476  -1.66988237  -1.52929185  -1.36280308  -1.17411581
  -0.96692978  -0.74494475  -0.5174101   -0.28802557  -0.0623408
   0.15594448   0.36498038   0.56661678   0.75715393   0.94214145
   1.12157935   1.29546762   1.46750602   1.63399479   1.79308406
   1.94292395   2.07611497   2.19265711   2.28515087   2.3498965
   2.386894     2.39614338   2.37764463   2.3350975    2.27220174
   2.19265711   2.10386309   2.00766958   1.90777632   1.80788306
   1.70983967   1.61364616   1.51930252   1.42865864   1.33986463
   1.25107062   1.16412648   1.07533247   0.98653846   0.89589457
   0.80525069   0.70905717   0.61101379   0.51112052   0.40567764
   0.29838487   0.18554249   0.07085022  -0.04754179  -0.16778368
  -0.29172532  -0.41566696  -0.54330835  -0.67094974  -0.79859114
  -0.92623253  -1.05572379  -1.18521506  -1.31285645  -1.44234771
  -1.57183898  -1.70133025  -1.83082151  -1.96031278  -2.08980404
  -2.21929531  -2.34878657  -2.47827784  -2.60591923  -2.7354105
  -2.86490176  -2.99439303  -3.12388429  -3.25337556  -3.38286683
  -3.51235809  -3.64184936  -3.77134062  -3.90083189  -4.03032315
  -4.15796455  -4.28745581  -4.41694708  -4.54643834  -4.67592961
  -4.80542087  -4.93306226  -5.06255353  -5.19019492  -5.31598644
  -5.43992808  -5.56016997  -5.67301236  -5.77845524  -5.87279888
  -5.95234351  -6.01153952  -6.04853703  -6.05963628  -6.04483728
  -6.0059899   -5.94864376  -5.88019838  -5.80990312  -5.75255699
  -5.71740936  -5.72110911  -5.77290562  -5.88019838  -6.04668715
  -6.2742218   -6.55910259  -6.89577988  -7.2750043   -7.68937635
  -8.1259469   -8.57731646  -9.03423564  -9.48375532  -9.92032587
 -10.33469792 -10.71947197 -11.06724851 -11.37617768 -11.63885996
 -11.85159561 -12.01438463 -12.12722702 -12.19197265 -12.20862153
 -12.18272328 -12.11797764 -12.01993426 -11.89414274 -11.74430285]",7.689920922920533,1.372746158271617,5.07606,0.06083499999999997
007,2,1,csm,58b.png,1,1,196,67,198,1,1,533,neu_feedback_onset,5,"[-0.80694305 -0.59540675 -0.41686235 -0.26742846 -0.14516436 -0.04424796
  0.03726144  0.10130454  0.15176274  0.19251744  0.21968724  0.23521284
  0.24103494  0.23521284  0.21968724  0.19445814  0.16340694  0.12847434
  0.09354174  0.06249054  0.03920214  0.02561724  0.02755794  0.04308354
  0.07607544  0.12265224  0.18281394  0.25267914  0.33224784  0.41569793
  0.50302943  0.59424233  0.68545523  0.77666813  0.86982173  0.96297533
  1.05418822  1.14346042  1.22885122  1.30841992  1.37828512  1.43650612
  1.47920152  1.50443062  1.51025272  1.49860852  1.46755732  1.41903982
  1.35111532  1.26960592  1.17063022  1.05806962  0.92804273  0.77860883
  0.61170863  0.42346073  0.20998374 -0.02678166 -0.28683546 -0.57017765
 -0.87098615 -1.18343884 -1.49977294 -1.81416633 -2.11497483 -2.39249493
 -2.64090452 -2.85438152 -3.02516312 -3.15519001 -3.24252151 -3.29297971
 -3.30656461 -3.29103901 -3.25222501 -3.19594471 -3.12413881 -3.04651082
 -2.96112002 -2.87572922 -2.79033842 -2.70494762 -2.62537892 -2.54969162
 -2.47788572 -2.41384262 -2.35562163 -2.30516343 -2.26246803 -2.22947613
 -2.21006913 -2.20230633 -2.21395053 -2.24306103 -2.29351923 -2.36726583
 -2.46041942 -2.57298002 -2.70300692 -2.84661872 -2.99799332 -3.15324931
 -3.30850531 -3.45987991 -3.60349171 -3.73740001 -3.8616048  -3.9741654
 -4.0731411  -4.1604726  -4.2322785  -4.2904995  -4.3331949  -4.358424
 -4.3642461  -4.3506612  -4.3176693  -4.2672111  -4.1973459  -4.1119551
 -4.0149201  -3.9101223  -3.7975617  -3.68306041 -3.56661841 -3.45405781
 -3.34537861 -3.24058081 -3.13772371 -3.03680732 -2.93395022 -2.82915242
 -2.71659182 -2.59238702 -2.45847872 -2.30904483 -2.14214463 -1.95777813
 -1.75594533 -1.53858694 -1.30764364 -1.06699684 -0.82440935 -0.58376255
 -0.35087855 -0.13352016  0.06443124  0.23521284  0.37882463  0.49138523
  0.57289463  0.62529353  0.65052263  0.65440403  0.64275983  0.61947143
  0.59036093  0.55736903  0.52825853  0.50302943  0.48750383  0.47974103
  0.48362243  0.49914803  0.52631783  0.56707253  0.62141213  0.69127733
  0.77278673  0.86594033  0.96685673  1.07747662  1.19003722  1.30259782
  1.41321772  1.51607482  1.61116912  1.69655992  1.77224721  1.83823101
  1.90033341  1.95855441  2.01677541  2.07887781  2.14680231  2.22443031
  2.30982111  2.4029747   2.5019504   2.6086889   2.7154274   2.8202252
  2.925023    3.0239987   3.12103369  3.21418729  3.30540019  3.40049449
  3.50141089  3.60814939  3.72847279  3.86044038  4.00599288  4.16318958
  4.33008978  4.49893067  4.66583087  4.82302757  4.96469867  5.08696277
  5.18205706  5.24610016  5.28103276  5.28297346  5.25386296  5.19758266
  5.11607327  5.01321617  4.89095207  4.75510307  4.60372847  4.44459108
  4.27380948  4.09720578  3.91477998  3.72847279  3.54022489  3.35197699
  3.16761049  2.9890661   2.8163438   2.6513843   2.498069    2.35251651
  2.21860821  2.09440341  1.97990211  1.87122291  1.77224721  1.67909362
  1.59370282  1.51801552  1.45203172  1.39575142  1.35305602  1.32394552
  1.30841992  1.30453852  1.31230132  1.32782692  1.34529322  1.36470022
  1.37828512  1.38216652  1.37246302  1.34723392  1.30453852  1.24437682
  1.16674882  1.07359522]","[-1.68244309 -1.53585017 -1.37382641 -1.20022953 -1.01891724 -0.83760494
 -0.6582215  -0.47883806 -0.30138347 -0.12585774  0.0535257   0.234838
  0.420008    0.61289343  0.80963656  1.01216625  1.21662479  1.42108334
  1.61975532  1.81264075  1.99395304  2.16176336  2.31414284  2.44916264
  2.5687516   2.67098087  2.75970816  2.83493348  2.89665681  2.94680702
  2.98538411  3.01045921  3.02010348  3.01238807  2.98731296  2.94294931
  2.87929713  2.79635639  2.69412712  2.57646701  2.44530493  2.30449857
  2.15211909  1.9958819   1.835787    1.67183439  1.50595293  1.34007146
  1.17419     1.00830854  0.84242708  0.67654561  0.5087353   0.34285384
  0.17697237  0.01109091 -0.1567194  -0.32260087 -0.48848233 -0.65436379
 -0.82024525 -0.98612672 -1.15007932 -1.31210308 -1.47219798 -1.62650631
 -1.77502809 -1.91004788 -2.02770799 -2.11836414 -2.17815862 -2.19358945
 -2.15694122 -2.05856966 -1.89461705 -1.66122569 -1.36032443 -1.0034864
 -0.60614244 -0.18565222  0.23290915  0.62446655  0.96587375  1.23205563
  1.40758136  1.47894897  1.44037188  1.29185011  1.04109906  0.69583416
  0.26955738 -0.21651389 -0.74694879 -1.30245881 -1.86182653 -2.40962112
 -2.92655405 -3.40298104 -3.82347126 -4.184167   -4.47349513 -4.69145566
