sub,run,cat_cond,trial_type,picture,old,response_old,target_pos,response_pos,dot_resp_loc,cat_corr,TN_corr,TN_rt,feedback_type,trial,SP_timeseries,FB_timeseries,SP_peak_response,FB_peak_response,preStim_bl,anticipation
038,1,2,csp,55b.png,1,1,236,231,237,1,1,532,neg_feedback_onset,1,"[ 5.09796816e-01  6.61609508e-01  7.88936283e-01  8.89328547e-01
  9.55440526e-01  9.84823628e-01  9.70132077e-01  9.11365873e-01
  8.06076425e-01  6.56712325e-01  4.65722163e-01  2.33105941e-01
 -3.13419752e-02 -3.22724401e-01 -6.31246970e-01 -9.49563906e-01
 -1.27032943e+00 -1.58374919e+00 -1.88247739e+00 -2.16161685e+00
 -2.41871899e+00 -2.64888663e+00 -2.85456834e+00 -3.03821272e+00
 -3.19981978e+00 -3.34183811e+00 -3.47161348e+00 -3.58914588e+00
 -3.69198674e+00 -3.78748182e+00 -3.86828535e+00 -3.93439733e+00
 -3.98336916e+00 -4.01275227e+00 -4.02254663e+00 -4.01030367e+00
 -3.97112621e+00 -3.90991141e+00 -3.82421070e+00 -3.71647266e+00
 -3.58914588e+00 -3.44223037e+00 -3.27817472e+00 -3.09697893e+00
 -2.90109158e+00 -2.69051269e+00 -2.46769083e+00 -2.23507461e+00
 -1.99021543e+00 -1.74045906e+00 -1.48580551e+00 -1.22625478e+00
 -9.69152640e-01 -7.14499092e-01 -4.64742726e-01 -2.22332137e-01
  1.51812693e-02  2.45348900e-01  4.65722163e-01  6.81198243e-01
  8.91777139e-01  1.09501026e+00  1.29579479e+00  1.49657932e+00
  1.69246666e+00  1.89325119e+00  2.09403572e+00  2.29971743e+00
  2.51274492e+00  2.73311818e+00  2.96328581e+00  3.20324781e+00
  3.45545277e+00  3.71500350e+00  3.98434860e+00  4.25614229e+00
  4.53038458e+00  4.80217827e+00  5.06417759e+00  5.31393396e+00
  5.54899877e+00  5.76202626e+00  5.95301642e+00  6.11952066e+00
  6.26153899e+00  6.37907140e+00  6.47456648e+00  6.54557564e+00
  6.59944466e+00  6.63372494e+00  6.65576227e+00  6.66310805e+00
  6.66555664e+00  6.65821086e+00  6.64841650e+00  6.63372494e+00
  6.62148199e+00  6.60923903e+00  6.59699607e+00  6.58965029e+00
  6.58475311e+00  6.58230452e+00  6.58230452e+00  6.58720170e+00
  6.59454748e+00  6.60679043e+00  6.62148199e+00  6.63862213e+00
  6.66310805e+00  6.69249115e+00  6.73166862e+00  6.77574327e+00
  6.83450947e+00  6.90062145e+00  6.98142498e+00  7.07202288e+00
  7.17486374e+00  7.28505037e+00  7.40013418e+00  7.51766659e+00
  7.63519900e+00  7.74293704e+00  7.83843212e+00  7.91433846e+00
  7.96820748e+00  7.99514199e+00  7.99269340e+00  7.96086171e+00
  7.89474973e+00  7.79925465e+00  7.67682506e+00  7.53235814e+00
  7.37319967e+00  7.20179825e+00  7.03039682e+00  6.86389258e+00
  6.70963129e+00  6.57495874e+00  6.46477211e+00  6.38396858e+00
  6.33499674e+00  6.32275378e+00  6.34234252e+00  6.39376295e+00
  6.47456648e+00  6.57985592e+00  6.70473411e+00  6.84430384e+00
  6.98632217e+00  7.13078908e+00  7.26301304e+00  7.38299404e+00
  7.48093771e+00  7.55439547e+00  7.59602153e+00  7.60336730e+00
  7.58132998e+00  7.52501237e+00  7.43931165e+00  7.32912502e+00
  7.19690106e+00  7.05488274e+00  6.90551864e+00  6.75615454e+00
  6.61168762e+00  6.47701507e+00  6.35458548e+00  6.24439885e+00
  6.14400658e+00  6.05340868e+00  5.96281079e+00  5.86976430e+00
  5.76447485e+00  5.64204526e+00  5.50002693e+00  5.32862551e+00
  5.13028957e+00  4.90012194e+00  4.64057121e+00  4.35653456e+00
  4.04801199e+00  3.72479787e+00  3.38934079e+00  3.04898653e+00
  2.71352945e+00  2.38541815e+00  2.07199839e+00  1.78061597e+00
  1.51127087e+00  1.27130887e+00  1.05828138e+00  8.72188404e-01
  7.15478528e-01  5.83254570e-01  4.73067939e-01  3.82470041e-01
  3.04115103e-01  2.35554533e-01  1.74339737e-01  1.18022125e-01
  5.92559219e-02  4.89718363e-04 -6.07250770e-02 -1.24388464e-01
 -1.90500443e-01 -2.59061014e-01 -3.27621585e-01 -3.93733564e-01
 -4.52499767e-01 -5.03920195e-01 -5.45546256e-01 -5.74929358e-01
 -5.89620909e-01 -5.89620909e-01 -5.77377950e-01 -5.50443440e-01
 -5.18611746e-01 -4.79434277e-01 -4.40256808e-01 -4.03527931e-01
 -3.76593421e-01 -3.61901870e-01 -3.59453278e-01 -3.74144829e-01
 -4.03527931e-01 -4.45153992e-01 -4.96574420e-01 -5.55340624e-01
 -6.11658235e-01 -6.67975847e-01 -7.14499092e-01 -7.48779377e-01
 -7.70816703e-01 -7.78162479e-01 -7.70816703e-01 -7.48779377e-01
 -7.16947683e-01 -6.75321623e-01 -6.28798378e-01 -5.77377950e-01
 -5.25957522e-01 -4.79434277e-01 -4.40256808e-01 -4.08425115e-01
 -3.86387788e-01 -3.74144829e-01 -3.74144829e-01 -3.83939197e-01
 -4.01079339e-01 -4.25565257e-01 -4.54948359e-01 -4.84331461e-01
 -5.13714563e-01 -5.38200481e-01 -5.62686399e-01 -5.82275134e-01
 -6.04312460e-01 -6.31246970e-01 -6.60630072e-01 -7.02256132e-01]","[-3.07245562 -2.85648864 -2.6066955  -2.32567821 -2.01864081 -1.68558329
 -1.32910767 -0.95962198 -0.57452422 -0.18162043  0.21388538  0.60158515
  0.98147888  1.34576054  1.6866241   2.00927357  2.30330091  2.57651216
  2.82890731  3.06308838  3.2868614   3.5054304   3.72660141  3.95818047
  4.20537159  4.47337882  4.76740616  5.09265764  5.44913327  5.83423103
  6.25055293  6.69549696  7.16646111  7.65563934  8.16563367  8.68603604
  9.21424445  9.74505488 10.2758653  10.80407371 11.31927206 11.82146035
 12.30803657 12.77119469 13.20833268 13.61945056 14.0019463  14.3506159
 14.66806135 14.95168064 15.2066778  15.43045082 15.63340775 15.81294657
 15.97687332 16.13039202 16.2787067  16.42181735 16.56753001 16.7184467
 16.87456742 17.03589215 17.20502292 17.37935772 17.5510905  17.72282329
 17.88935205 18.04287075 18.18337939 18.30046992 18.39674436 18.46699868
 18.50602886 18.51643691 18.49822283 18.45138661 18.37592827 18.27705182
 18.15735927 18.02205465 17.87113796 17.70981323 17.54068246 17.37155168
 17.1998189  17.03068813 16.86676138 16.70803866 16.56232599 16.42441936
 16.29952279 16.19023829 16.09656586 16.01850551 15.96126125 15.91962906
 15.89881296 15.89621095 15.91182302 15.94304716 15.98988338 16.05233166
 16.125188   16.20845238 16.29692078 16.39059321 16.48686765 16.5857441
 16.68201854 16.77308895 16.85895534 16.93961771 17.00727002 17.06711629
 17.11395251 17.14777866 17.16599275 17.17119677 17.15818671 17.12956458
 17.08793239 17.03068813 16.9578318  16.87456742 16.78089499 16.67681451
 16.564928   16.44523546 16.32033889 16.19023829 16.05493367 15.91962906
 15.78172243 15.64641781 15.51111319 15.3810126  15.25351402 15.13382147
 15.02453697 14.9204565 ]",7.107955964524814,17.34078289333314,4.0839799999999995,0.08955000000000002
038,1,2,csm,40a.png,1,1,72,40,72,1,1,405,neu_feedback_onset,2,"[-6.91806087e-01 -6.55698119e-01 -6.06049664e-01 -5.45117469e-01
 -4.72901535e-01 -3.91658608e-01 -3.03645438e-01 -2.11118772e-01
 -1.16335357e-01 -2.15519430e-02  7.09747233e-02  1.61244642e-01
  2.47001064e-01  3.28243991e-01  4.00459925e-01  4.65905616e-01
  5.22324315e-01  5.69716022e-01  6.10337485e-01  6.39675209e-01
  6.59985940e-01  6.69012932e-01  6.69012932e-01  6.59985940e-01
  6.41931957e-01  6.14850981e-01  5.78743014e-01  5.35864803e-01
  4.81702852e-01  4.16257161e-01  3.37270982e-01  2.44744316e-01
  1.31906918e-01 -3.49795934e-03 -1.68240560e-01 -3.66834381e-01
 -5.99279420e-01 -8.74602671e-01 -1.19280413e+00 -1.55388381e+00
 -1.95784169e+00 -2.39790754e+00 -2.87408136e+00 -3.37282266e+00
 -3.89187469e+00 -4.41769697e+00 -4.94351924e+00 -5.46031452e+00
 -5.95905582e+00 -6.43297289e+00 -6.87755224e+00 -7.28602362e+00
 -7.65613029e+00 -7.98787224e+00 -8.27673598e+00 -8.52497825e+00
 -8.72808557e+00 -8.89057142e+00 -9.00792231e+00 -9.08465174e+00
 -9.11624622e+00 -9.10947597e+00 -9.05982752e+00 -8.97407109e+00
 -8.85220670e+00 -8.69874784e+00 -8.51820801e+00 -8.31284394e+00
 -8.08942589e+00 -7.85021061e+00 -7.60196834e+00 -7.34695582e+00
 -7.08968655e+00 -6.83016053e+00 -6.57514801e+00 -6.32239224e+00
 -6.07640672e+00 -5.83719143e+00 -5.60700314e+00 -5.38584184e+00
 -5.17596428e+00 -4.97737046e+00 -4.78780363e+00 -4.61177729e+00
 -4.44929144e+00 -4.29808932e+00 -4.15817095e+00 -4.03179307e+00
 -3.91444217e+00 -3.80611827e+00 -3.70456461e+00 -3.60978120e+00
 -3.51951128e+00 -3.43375486e+00 -3.34799843e+00 -3.26224201e+00
 -3.17648559e+00 -3.08847242e+00 -2.99820250e+00 -2.90567583e+00
 -2.81314917e+00 -2.72062250e+00 -2.62809584e+00 -2.53782592e+00
 -2.45432624e+00 -2.37985356e+00 -2.31215112e+00 -2.26024592e+00
 -2.22413795e+00 -2.20382722e+00 -2.20608397e+00 -2.22865145e+00
 -2.27152966e+00 -2.33697535e+00 -2.42273177e+00 -2.52654218e+00
 -2.64614982e+00 -2.77929795e+00 -2.91921632e+00 -3.06364819e+00
 -3.20582331e+00 -3.34348494e+00 -3.47211957e+00 -3.58495697e+00
 -3.68199713e+00 -3.75646981e+00 -3.80611827e+00 -3.83094250e+00
 -3.82642900e+00 -3.79257778e+00 -3.72713209e+00 -3.63009193e+00
 -3.50371404e+00 -3.34799843e+00 -3.16520185e+00 -2.95983778e+00
 -2.73867649e+00 -2.50848819e+00 -2.27829990e+00 -2.05488185e+00
 -1.85403129e+00 -1.67800494e+00 -1.53808657e+00 -1.43653291e+00
 -1.37560072e+00 -1.35528999e+00 -1.37108722e+00 -1.41847893e+00
 -1.48843812e+00 -1.56968104e+00 -1.65769421e+00 -1.74345064e+00
 -1.81792332e+00 -1.87885551e+00 -1.92399047e+00 -1.95332820e+00
 -1.96912543e+00 -1.97138218e+00 -1.96461194e+00 -1.95332820e+00
 -1.93753096e+00 -1.92173372e+00 -1.90819324e+00 -1.89465275e+00
 -1.88562576e+00 -1.88111226e+00 -1.87659876e+00 -1.87434202e+00
 -1.87434202e+00 -1.87208527e+00 -1.87208527e+00 -1.86982852e+00
 -1.86757177e+00 -1.86305828e+00 -1.86305828e+00 -1.86305828e+00
 -1.86757177e+00 -1.87885551e+00 -1.89916624e+00 -1.92850397e+00
 -1.97138218e+00 -2.03005763e+00 -2.10453031e+00 -2.19705697e+00
 -2.30538088e+00 -2.42950201e+00 -2.56942039e+00 -2.72062250e+00
 -2.88085161e+00 -3.04559421e+00 -3.21485030e+00 -3.38184965e+00
 -3.54659225e+00 -3.70230786e+00 -3.85125323e+00 -3.98891485e+00
 -4.11303599e+00 -4.22135989e+00 -4.31162981e+00 -4.38158900e+00
 -4.42898071e+00 -4.45154819e+00 -4.44703469e+00 -4.41544022e+00
 -4.35676477e+00 -4.27326510e+00 -4.16945469e+00 -4.04533355e+00
 -3.91218542e+00 -3.77226705e+00 -3.63234868e+00 -3.50145729e+00
 -3.38184965e+00 -3.28255274e+00 -3.20356656e+00 -3.14714787e+00
 -3.11555339e+00 -3.10201291e+00 -3.10878315e+00 -3.12458039e+00
 -3.14714787e+00 -3.16971535e+00 -3.18325583e+00 -3.18325583e+00
 -3.16520185e+00 -3.12458039e+00 -3.05687795e+00 -2.96435128e+00
 -2.84700039e+00 -2.70482527e+00 -2.54008266e+00 -2.35728608e+00
 -2.16094901e+00 -1.95332820e+00 -1.73668039e+00 -1.51777584e+00
 -1.29887129e+00 -1.08222348e+00 -8.70089175e-01 -6.66981859e-01
 -4.75158283e-01 -2.96875194e-01 -1.34389341e-01  1.00425284e-02
  1.36420414e-01  2.42487568e-01  3.25987243e-01  3.86919437e-01
  4.29797649e-01  4.50108380e-01  4.52365128e-01  4.38824641e-01
  4.11743665e-01  3.75635698e-01  3.28243991e-01  2.78595535e-01
  2.24433584e-01  1.70271633e-01  1.20623178e-01  7.54882192e-02]","[ 5.96368012e-01  5.23445672e-01  4.50523332e-01  3.77600992e-01
  3.11515121e-01  2.45429251e-01  1.81622203e-01  1.20093979e-01
  5.85657543e-02 -2.96247006e-03 -6.22118713e-02 -1.23740096e-01
 -1.82989497e-01 -2.39960075e-01 -2.92373007e-01 -3.37949469e-01
 -3.76689462e-01 -4.04035340e-01 -4.19987102e-01 -4.22265925e-01
 -4.10871809e-01 -3.85804755e-01 -3.49343585e-01 -3.01488299e-01
 -2.42238898e-01 -1.76153028e-01 -1.05509511e-01 -3.25871707e-02
  3.80563462e-02  1.01863394e-01  1.58833972e-01  2.04410434e-01
  2.34035135e-01  2.45429251e-01  2.36313958e-01  2.04410434e-01
  1.47439856e-01  6.99598699e-02 -3.03083476e-02 -1.48807150e-01
 -2.87815361e-01 -4.38217687e-01 -5.97735306e-01 -7.66368217e-01
 -9.37279951e-01 -1.11047051e+00 -1.27910342e+00 -1.44545751e+00
 -1.60269630e+00 -1.74854098e+00 -1.88527037e+00 -2.00376917e+00
 -2.10631621e+00 -2.19063267e+00 -2.25443972e+00 -2.29773736e+00
 -2.32280441e+00 -2.33191970e+00 -2.32508323e+00 -2.30913147e+00
 -2.28406442e+00 -2.25671854e+00 -2.22937266e+00 -2.19974796e+00
 -2.17240208e+00 -2.14505621e+00 -2.11771033e+00 -2.09036445e+00
 -2.06073975e+00 -2.03111505e+00 -2.00149035e+00 -1.97870212e+00
 -1.96047153e+00 -1.95591389e+00 -1.96958683e+00 -2.00149035e+00
 -2.05846093e+00 -2.14049856e+00 -2.24760325e+00 -2.37521734e+00
 -2.52106202e+00 -2.68285846e+00 -2.85149138e+00 -3.02923958e+00
 -3.20698778e+00 -3.38473599e+00 -3.56248419e+00 -3.73567475e+00
 -3.91114413e+00 -4.08661351e+00 -4.26664054e+00 -4.45350403e+00
 -4.65404047e+00 -4.87280749e+00 -5.10980509e+00 -5.37414857e+00
 -5.66583793e+00 -5.98943082e+00 -6.34492723e+00 -6.73460598e+00
 -7.15618826e+00 -7.60967406e+00 -8.08822692e+00 -8.59412565e+00
 -9.11825497e+00 -9.65605723e+00 -1.02029748e+01 -1.07521711e+01
 -1.12990887e+01 -1.18346121e+01 -1.23541838e+01 -1.28555249e+01
 -1.33317989e+01 -1.37761694e+01 -1.41909152e+01 -1.45669211e+01
 -1.49064657e+01 -1.52049915e+01 -1.54624985e+01 -1.56767079e+01
 -1.58476197e+01 -1.59729549e+01 -1.60527137e+01 -1.60846173e+01
 -1.60709443e+01 -1.60116949e+01 -1.59068691e+01 -1.57564667e+01
 -1.55627668e+01 -1.53303268e+01 -1.50614257e+01 -1.47606210e+01
 -1.44324705e+01 -1.40838106e+01 -1.37214777e+01 -1.33500295e+01
 -1.29763025e+01 -1.26048543e+01 -1.22402426e+01 -1.18870251e+01]",0.015402304816663626,-2.023381462379348e-15,4.431155000000001,0.05784499999999948
038,1,2,csm,3a.png,1,1,320,297,319,1,1,442,neu_feedback_onset,3,"[ 3.43053949e+00  3.10066817e+00  2.72681402e+00  2.31630749e+00
  1.87647908e+00  1.41710273e+00  9.50395907e-01  4.88576068e-01
  4.38606672e-02 -3.73976330e-01 -7.52717468e-01 -1.08747576e+00
 -1.36847725e+00 -1.59572194e+00 -1.76187934e+00 -1.87427993e+00
 -1.92803674e+00 -1.93048023e+00 -1.88405390e+00 -1.79364472e+00
 -1.66413969e+00 -1.50042578e+00 -1.30738997e+00 -1.09236275e+00
 -8.62674572e-01 -6.20768942e-01 -3.76419821e-01 -1.36957682e-01
  9.02870003e-02  2.95540262e-01  4.71471629e-01  6.10750628e-01
  7.03603294e-01  7.50029627e-01  7.40255662e-01  6.76724891e-01
  5.56993822e-01  3.85949437e-01  1.70922210e-01 -8.56443670e-02
 -3.69089347e-01 -6.74525749e-01 -9.87292624e-01 -1.30005950e+00
 -1.60305241e+00 -1.88649739e+00 -2.14795095e+00 -2.38496960e+00
 -2.59266635e+00 -2.77104121e+00 -2.92498115e+00 -3.05692968e+00
 -3.16444329e+00 -3.25485247e+00 -3.32571371e+00 -3.37947052e+00
 -3.41612289e+00 -3.43567082e+00 -3.43811431e+00 -3.42100987e+00
 -3.38680099e+00 -3.33793117e+00 -3.27195691e+00 -3.19376519e+00
 -3.10335601e+00 -3.00805986e+00 -2.90298973e+00 -2.79547612e+00
 -2.68063203e+00 -2.56090096e+00 -2.43383942e+00 -2.29700391e+00
 -2.14795095e+00 -1.98668053e+00 -1.81074916e+00 -1.61771336e+00
 -1.41246009e+00 -1.19254589e+00 -9.62857712e-01 -7.25839064e-01
 -4.83933434e-01 -2.42027804e-01 -2.56566577e-03  2.32009491e-01
  4.59254173e-01  6.81611873e-01  8.94195609e-01  1.09700538e+00
  1.29248468e+00  1.48063350e+00  1.65900836e+00  1.82760925e+00
  1.98887967e+00  2.13793264e+00  2.27232465e+00  2.39205572e+00
  2.49468235e+00  2.57287407e+00  2.62907437e+00  2.65595277e+00
  2.65595277e+00  2.62174390e+00  2.55821312e+00  2.46536046e+00
  2.34318590e+00  2.19413293e+00  2.02308855e+00  1.83493973e+00
  1.63457345e+00  1.42932018e+00  1.22162343e+00  1.02125715e+00
  8.25777855e-01  6.42516014e-01  4.71471629e-01  3.12644700e-01
  1.68478719e-01  3.65301936e-02 -8.32008757e-02 -1.95601471e-01
 -2.98228102e-01 -3.88637277e-01 -4.74159470e-01 -5.47464206e-01
 -6.08551486e-01 -6.62308293e-01 -7.03847643e-01 -7.38056520e-01
 -7.64934924e-01 -7.86926345e-01 -8.08917766e-01 -8.35796169e-01
 -8.67561555e-01 -9.11544396e-01 -9.67744694e-01 -1.04104943e+00
 -1.13145861e+00 -1.23897222e+00 -1.36359027e+00 -1.50042578e+00
 -1.65436572e+00 -1.81563614e+00 -1.98423704e+00 -2.15528142e+00
 -2.32632581e+00 -2.49248321e+00 -2.64886665e+00 -2.79547612e+00
 -2.92498115e+00 -3.04226873e+00 -3.14000838e+00 -3.22308708e+00
 -3.29394833e+00 -3.35014863e+00 -3.39901845e+00 -3.44055780e+00
 -3.47721017e+00 -3.51141905e+00 -3.54562792e+00 -3.57494982e+00
 -3.59938473e+00 -3.61648917e+00 -3.62381964e+00 -3.61648917e+00
 -3.59205426e+00 -3.55051490e+00 -3.49187112e+00 -3.41612289e+00
 -3.32571371e+00 -3.22553057e+00 -3.11557347e+00 -3.00561636e+00
 -2.89321577e+00 -2.78081517e+00 -2.67330156e+00 -2.56823144e+00
 -2.46316132e+00 -2.35809119e+00 -2.25302107e+00 -2.14062048e+00
 -2.02577639e+00 -1.90604532e+00 -1.78631425e+00 -1.66658318e+00
 -1.55173909e+00 -1.44422548e+00 -1.35137281e+00 -1.27073760e+00
 -1.20965032e+00 -1.16322399e+00 -1.13390210e+00 -1.11435417e+00
 -1.09969322e+00 -1.08503227e+00 -1.06304085e+00 -1.02638848e+00
 -9.67744694e-01 -8.84665993e-01 -7.67378415e-01 -6.18325451e-01
 -4.35063610e-01 -2.17592892e-01  2.67562288e-02  2.97983753e-01
  5.88759207e-01  8.91752118e-01  1.20451899e+00  1.51972936e+00
  1.83493973e+00  2.14281962e+00  2.44581253e+00  2.73903147e+00
  3.02491995e+00  3.30347794e+00  3.57470547e+00  3.84348950e+00
  4.10738655e+00  4.36884011e+00  4.62540669e+00  4.87952977e+00
  5.12876588e+00  5.37555849e+00  5.61746412e+00  5.85692626e+00
  6.09150142e+00  6.33096355e+00  6.57042569e+00  6.81721831e+00
  7.07378488e+00  7.34256892e+00  7.62357040e+00  7.91923284e+00
  8.22466924e+00  8.53987961e+00  8.85997696e+00  9.17763082e+00
  9.48551071e+00  9.77628616e+00  1.00426267e+01  1.02747584e+01
  1.04653507e+01  1.06070732e+01  1.06925954e+01  1.07145868e+01
  1.06730474e+01  1.05630903e+01  1.03847155e+01  1.01379229e+01
  9.82515599e+00  9.45374532e+00  9.02857785e+00  8.55942754e+00
  8.05851184e+00  7.53560472e+00  7.00048015e+00  6.47024255e+00
  5.95222242e+00  5.45863719e+00  5.00170434e+00  4.58875432e+00]","[-2.60311855 -2.27594355 -1.94097867 -1.60601379 -1.27364553 -0.94906716
 -0.6348753  -0.34145645 -0.06621399  0.18825546  0.41675863  0.62448879
  0.8088493   0.97503343  1.12304117  1.2606624   1.38789712  1.50993859
  1.63457668  1.76181141  1.89683601  2.04224712  2.20064137  2.37461537
  2.56157252  2.76410942  2.97703283  3.19774613  3.42105605  3.64176934
  3.85209613  4.0416499   4.2052374   4.33506875  4.42595069  4.46749672
  4.46230347  4.40517767  4.29611934  4.14291835  3.9455747   3.70928164
  3.44442569  3.1562001   2.85239474  2.54339613  2.23699414  1.9435753
  1.66833284  1.42165327  1.20613323  1.03475585  0.90752113  0.82702569
  0.80105942  0.82183244  0.894538    1.01398284  1.17497371  1.36972073
  1.59562728  1.84490347  2.1071628   2.377212    2.64466458  2.90952053
  3.15879672  3.38989652  3.59762668  3.77939057  3.92739831  4.0416499
  4.11954871  4.15590148  4.1481116   4.10137232  4.01049037  3.88065902
  3.7144749   3.51713125  3.2912247   3.04973839  2.79786557  2.54858938
  2.3096997   2.08898641  1.90202926  1.74882827  1.63976994  1.57745089
  1.56187113  1.59562728  1.67092946  1.78777768  1.93578541  2.10975942
  2.30450645  2.51483323  2.73554653  2.9640497   3.1951495   3.42884593
  3.66773561  3.91181855  4.15849811  4.41037093  4.66224375  4.91930982
  5.17377926  5.42305545  5.66454176  5.89044831  6.10077509  6.29032886
  6.45651299  6.59673085  6.71098243  6.79926775  6.86678005  6.91351934
  6.94467886  6.96545188  6.97583839  6.98362827  6.99141815  7.00180466
  7.01738442  7.04075406  7.06931696  7.10307311  7.14202251  7.18356854
  7.2277112   7.27185386  7.31080327  7.34715604  7.3809122   7.40428184
  7.42505485  7.43803799]",8.302134518351744,7.149441446988943,4.092504999999999,-0.4074800000000014
038,1,2,csm,34a.png,1,1,308,234,308,1,1,462,neu_feedback_onset,4,"[ 1.95178992e-01  2.34733950e-01  2.74288907e-01  3.03955125e-01
  3.26204788e-01  3.33621343e-01  3.28676973e-01  3.06427310e-01
  2.66872352e-01  2.12484286e-01  1.40790926e-01  5.42644570e-02
 -4.21507514e-02 -1.45982514e-01 -2.52286462e-01 -3.53646040e-01
 -4.47589064e-01 -5.26698978e-01 -5.86031414e-01 -6.23114187e-01
 -6.33002926e-01 -6.15697632e-01 -5.71198305e-01 -5.04449315e-01
 -4.17922846e-01 -3.16563268e-01 -2.07787135e-01 -9.90110025e-02
  7.29294525e-03  1.01235969e-01  1.77873699e-01  2.34733950e-01
  2.71816722e-01  2.86649831e-01  2.81705461e-01  2.61927983e-01
  2.29789580e-01  1.90234623e-01  1.45735296e-01  1.06180338e-01
  7.15697508e-02  4.68479025e-02  3.20147936e-02  3.20147936e-02
  4.43757177e-02  6.90975660e-02  1.03708154e-01  1.45735296e-01
  1.92706808e-01  2.44622689e-01  2.96538570e-01  3.43510082e-01
  3.85537224e-01  4.22619997e-01  4.49814030e-01  4.67119324e-01
  4.77008063e-01  4.81952433e-01  4.81952433e-01  4.79480248e-01
  4.81952433e-01  4.86896802e-01  5.01729911e-01  5.26451760e-01
  5.63534532e-01  6.15450414e-01  6.79727219e-01  7.58837134e-01
  8.45363603e-01  9.39306626e-01  1.03819402e+00  1.13708141e+00
  1.23844099e+00  1.33238401e+00  1.42138267e+00  1.50049258e+00
  1.56971376e+00  1.62657401e+00  1.66860115e+00  1.69332300e+00
  1.70321174e+00  1.69579518e+00  1.66860115e+00  1.62410182e+00
  1.56476939e+00  1.49060384e+00  1.40407737e+00  1.31013435e+00
  1.21124696e+00  1.10988738e+00  1.00852780e+00  9.12112593e-01
  8.20641754e-01  7.34115285e-01  6.55005371e-01  5.83312011e-01
  5.19035205e-01  4.62174954e-01  4.17675627e-01  3.85537224e-01
  3.68231930e-01  3.73176300e-01  4.00370333e-01  4.54758400e-01
  5.38812684e-01  6.55005371e-01  8.03336461e-01  9.86278138e-01
  1.19888603e+00  1.43868796e+00  1.70568392e+00  1.99245736e+00
  2.29900828e+00  2.61792013e+00  2.94672071e+00  3.28541003e+00
  3.62657154e+00  3.97020523e+00  4.31383892e+00  4.65005606e+00
  4.97885664e+00  5.29529630e+00  5.59443066e+00  5.87873192e+00
  6.13831132e+00  6.37564107e+00  6.58577678e+00  6.77366283e+00
  6.93682702e+00  7.07526938e+00  7.19146206e+00  7.29282164e+00
  7.37687592e+00  7.45104147e+00  7.51531828e+00  7.57465071e+00
  7.63151096e+00  7.68342684e+00  7.73287054e+00  7.77984205e+00
  7.82186919e+00  7.85895197e+00  7.89109037e+00  7.91086785e+00
  7.92075659e+00  7.91828440e+00  7.89850692e+00  7.86142415e+00
  7.80456390e+00  7.72298180e+00  7.61915004e+00  7.48565206e+00
  7.32001567e+00  7.12471307e+00  6.89727207e+00  6.64016485e+00
  6.35339140e+00  6.04189612e+00  5.71556772e+00  5.37687840e+00
  5.03818908e+00  4.70444412e+00  4.38800446e+00  4.09134229e+00
  3.82187414e+00  3.57960003e+00  3.37193650e+00  3.19393919e+00
  3.04560810e+00  2.92447105e+00  2.82558365e+00  2.74894592e+00
  2.68466912e+00  2.63769760e+00  2.59814265e+00  2.57094861e+00
  2.55364332e+00  2.54622677e+00  2.54622677e+00  2.55611551e+00
  2.57589298e+00  2.60555920e+00  2.64264197e+00  2.69208567e+00
  2.74894592e+00  2.81322273e+00  2.88738827e+00  2.96897037e+00
  3.06291340e+00  3.16427297e+00  3.27552129e+00  3.39913053e+00
  3.53757288e+00  3.68837616e+00  3.85154036e+00  4.03200985e+00
  4.22484027e+00  4.43250379e+00  4.65500043e+00  4.88985799e+00
  5.13460428e+00  5.39171151e+00  5.65870747e+00  5.93311998e+00
  6.21247687e+00  6.49677813e+00  6.78355157e+00  7.07526938e+00
  7.36698719e+00  7.66364937e+00  7.96031154e+00  8.25697372e+00
  8.55610809e+00  8.85771464e+00  9.16179337e+00  9.46339992e+00
  9.76500647e+00  1.00616687e+01  1.03558586e+01  1.06426321e+01
  1.09219890e+01  1.11914571e+01  1.14485643e+01  1.16957828e+01
  1.19331126e+01  1.21605536e+01  1.23781058e+01  1.25882415e+01
  1.27934329e+01  1.29912077e+01  1.31840381e+01  1.33719241e+01
  1.35573380e+01  1.37353353e+01  1.39059161e+01  1.40690803e+01
  1.42198835e+01  1.43558537e+01  1.44720464e+01  1.45684616e+01
  1.46426271e+01  1.46895987e+01  1.47118483e+01  1.47093761e+01
  1.46846543e+01  1.46426271e+01  1.45808225e+01  1.45116013e+01
  1.44324914e+01  1.43509093e+01  1.42668550e+01  1.41877451e+01
  1.41086352e+01  1.40369419e+01  1.39726651e+01  1.39182770e+01
  1.38737777e+01  1.38391671e+01  1.38193896e+01  1.38169174e+01]","[-1.57471152 -1.45601467 -1.30938915 -1.14414452 -0.96493555 -0.77641703
 -0.58557112 -0.39472521 -0.21086146 -0.03630727  0.12660997  0.28254505
  0.42917057  0.57579608  0.7224216   0.87835668  1.05058348  1.239102
  1.4532218   1.69527028  1.96292004  2.25849846  2.57967817  2.91947699
  3.27789492  3.64562241  4.02033207  4.39038695  4.75578705  5.10489543
  5.43771208  5.74725484  6.02886894  6.28022697  6.49667416  6.68053791
  6.82716342  6.93655072  7.00637239  7.04361062  7.04128323  7.00637239
  6.93655072  6.83414559  6.70148441  6.53856717  6.34772125  6.13127406
  5.89155297  5.63321277  5.35858085  5.07231198  4.78138833  4.49046469
  4.20186843  3.92258173  3.65493197  3.40357394  3.16850763  2.95206044
  2.75423236  2.57036861  2.39814181  2.23522457  2.07463472  1.91404486
  1.74647284  1.56726387  1.37409057  1.16462555  0.93188663  0.67820121
  0.40356928  0.11031825 -0.2015519  -0.52738639 -0.86253043 -1.20000186
 -1.53747329 -1.87028995 -2.18914226 -2.49170286 -2.77331695 -3.03165715
 -3.26439607 -3.46920631 -3.6437605  -3.79038602 -3.90675548 -3.99752366
 -4.06036317 -4.09760139 -4.11156573 -4.09992878 -4.06269055 -4.00450583
 -3.92537459 -3.82762425 -3.71358218 -3.58324838 -3.44360503 -3.29465213
 -3.14337183 -2.99209153 -2.84546601 -2.70349527 -2.57083409 -2.44515507
 -2.331113   -2.2240531  -2.12397537 -2.0308798  -1.93778423 -1.84934344
 -1.75624788 -1.66082492 -1.5584198  -1.44670512 -1.32568088 -1.19301969
 -1.04639418 -0.88813171 -0.71590491 -0.53204117 -0.33654048 -0.13405762
  0.07540741  0.28952721  0.50364702  0.71543943  0.92490446  1.12971471
  1.32754279  1.51373392  1.69294289  1.86516969  2.02808693  2.18169462
  2.33064753  2.47494566]",13.769100148793006,5.105302723510795,4.045005,-0.2814899999999989
038,1,2,csp,9b.png,1,1,20,25,20,1,0,294,neg_feedback_onset,5,"[-4.52183695e-01 -4.94020274e-01 -5.19587073e-01 -5.28884091e-01
 -5.21911327e-01 -4.96344529e-01 -4.54507950e-01 -3.94077335e-01
 -3.17376939e-01 -2.22082509e-01 -1.17491060e-01  1.04591448e-03
  1.26555653e-01  2.59038154e-01  3.89196401e-01  5.21678902e-01
  6.44864386e-01  7.61077106e-01  8.63344300e-01  9.51665967e-01
  1.01906935e+00  1.06787869e+00  1.09344549e+00  1.09809400e+00
  1.07717571e+00  1.03301487e+00  9.67935748e-01  8.84262590e-01
  7.81995396e-01  6.65782675e-01  5.37948683e-01  4.00817673e-01
  2.59038154e-01  1.14934380e-01 -2.45208840e-02 -1.61651894e-01
 -2.89485887e-01 -4.08022861e-01 -5.12614310e-01 -6.03260232e-01
 -6.77636373e-01 -7.35742733e-01 -7.75255058e-01 -7.98497602e-01
 -8.05470365e-01 -7.98497602e-01 -7.82227821e-01 -7.54336768e-01
 -7.21797206e-01 -6.84609136e-01 -6.45096811e-01 -6.10232995e-01
 -5.82341942e-01 -5.61423652e-01 -5.52126635e-01 -5.59099398e-01
 -5.82341942e-01 -6.28827030e-01 -6.98554662e-01 -7.96173348e-01
 -9.21683086e-01 -1.07740813e+00 -1.26334848e+00 -1.47485563e+00
 -1.71425384e+00 -1.97457033e+00 -2.25580512e+00 -2.54866117e+00
 -2.85313850e+00 -3.16458859e+00 -3.48068719e+00 -3.79911004e+00
 -4.12218141e+00 -4.45222553e+00 -4.78691817e+00 -5.12858356e+00
 -5.48187023e+00 -5.84445392e+00 -6.21401037e+00 -6.59286384e+00
 -6.97636582e+00 -7.35754354e+00 -7.73174850e+00 -8.09665644e+00
 -8.44529461e+00 -8.77301448e+00 -9.07749180e+00 -9.35640233e+00
 -9.60742181e+00 -9.83055023e+00 -1.00257876e+01 -1.01954582e+01
 -1.03395619e+01 -1.04604232e+01 -1.05557176e+01 -1.06254452e+01
 -1.06719303e+01 -1.06905244e+01 -1.06789031e+01 -1.06347423e+01
 -1.05557176e+01 -1.04348564e+01 -1.02744828e+01 -1.00699484e+01
 -9.82357747e+00 -9.53304567e+00 -9.20765005e+00 -8.84739062e+00
 -8.45924013e+00 -8.05481986e+00 -7.63877833e+00 -7.22041253e+00
 -6.80669525e+00 -6.40227498e+00 -6.01644875e+00 -5.64689230e+00
 -5.29825414e+00 -4.97053426e+00 -4.66373268e+00 -4.37552514e+00
 -4.10358737e+00 -3.84559513e+00 -3.60387267e+00 -3.37377149e+00
 -3.15761583e+00 -2.95308144e+00 -2.76249258e+00 -2.58584924e+00
 -2.42315143e+00 -2.26975064e+00 -2.13029538e+00 -1.99781288e+00
 -1.87462739e+00 -1.75609042e+00 -1.64452621e+00 -1.53528625e+00
 -1.42837055e+00 -1.32610335e+00 -1.22383616e+00 -1.12156896e+00
 -1.02395028e+00 -9.24007340e-01 -8.28712909e-01 -7.31094224e-01
 -6.35799793e-01 -5.42829617e-01 -4.49859441e-01 -3.59213519e-01
 -2.73216106e-01 -1.89542947e-01 -1.10518297e-01 -3.84664105e-02
  2.89369674e-02  8.70433276e-02  1.38176925e-01  1.82337758e-01
  2.17201574e-01  2.45092627e-01  2.66010917e-01  2.77632189e-01
  2.84604952e-01  2.89253461e-01  2.89253461e-01  2.93901970e-01
  3.00874733e-01  3.14820260e-01  3.42711312e-01  3.84547892e-01
  4.44978506e-01  5.26327411e-01  6.30918859e-01  7.56428597e-01
  9.02856625e-01  1.07020294e+00  1.25614329e+00  1.45602917e+00
  1.66753633e+00  1.88834049e+00  2.11611743e+00  2.34389436e+00
  2.57399554e+00  2.80177248e+00  3.02490090e+00  3.24338081e+00
  3.45721222e+00  3.66639512e+00  3.87092950e+00  4.07081538e+00
  4.27070126e+00  4.46826289e+00  4.66814877e+00  4.87268315e+00
  5.08419031e+00  5.30267022e+00  5.53044715e+00  5.76519685e+00
  6.00691931e+00  6.25793878e+00  6.51128251e+00  6.76695050e+00
  7.02261848e+00  7.27596221e+00  7.52698169e+00  7.77335266e+00
  8.01972362e+00  8.26144608e+00  8.50316854e+00  8.74489100e+00
  8.98661346e+00  9.22601166e+00  9.46308561e+00  9.69318680e+00
  9.91166671e+00  1.01115526e+01  1.02905202e+01  1.04392725e+01
  1.05554852e+01  1.06414826e+01  1.06949404e+01  1.07205072e+01
  1.07251558e+01  1.07181830e+01  1.07065617e+01  1.07019132e+01
  1.07065617e+01  1.07251558e+01  1.07623438e+01  1.08134774e+01
  1.08762323e+01  1.09459599e+01  1.10156876e+01  1.10830909e+01
  1.11458458e+01  1.11993037e+01  1.12481130e+01  1.12945981e+01
  1.13434074e+01  1.14038380e+01  1.14758899e+01  1.15711844e+01
  1.16873971e+01  1.18268523e+01  1.19895502e+01  1.21754905e+01
  1.23800249e+01  1.26008291e+01  1.28332545e+01  1.30749770e+01
  1.33213479e+01  1.35700431e+01  1.38210626e+01  1.40651093e+01
  1.42998590e+01  1.45229875e+01  1.47251976e+01  1.49064894e+01
  1.50575660e+01  1.51784272e+01  1.52644246e+01  1.53155582e+01]","[-1.19936438 -1.07473277 -0.94365469 -0.80827898 -0.67290326 -0.53967637
 -0.40859829 -0.27966904 -0.15503743 -0.03470346  0.08348169  0.20166684
  0.31555435  0.43159068  0.547627    0.66366333  0.7839973   0.90433127
  1.02896288  1.15574331  1.28467257  1.41575064  1.54682872  1.67790679
  1.80683604  1.92931883  2.04750398  2.15924267  2.26023725  2.35263655
  2.43214292  2.50305401  2.56536982  2.61694152  2.66206676  2.69859671
  2.73297785  2.76091252  2.78884719  2.81248422  2.83612125  2.85546064
  2.87480003  2.89199059  2.9027347   2.91132998  2.90918116  2.90058588
  2.87694885  2.84041889  2.78669837  2.71578728  2.62768562  2.52454222
  2.41065471  2.29032074  2.16998677  2.05824809  1.95725351  1.87344949
  1.81328251  1.77460373  1.75956198  1.76815727  1.79394312  1.83262189
  1.8841936   1.94221176  2.00237874  2.05824809  2.10981979  2.15279621
  2.18502852  2.20436791  2.21081437  2.20436791  2.1828797   2.15064739
  2.10767097  2.05609927  1.99378346  1.92717001  1.85625892  1.77890137
  1.69724618  1.61344216  1.52319169  1.42649475  1.32335134  1.20946384
  1.08698105  0.95375415  0.81193197  0.66151451  0.50250176  0.3413402
  0.17802981  0.02116589 -0.12495393 -0.25818083 -0.37206834 -0.46446763
 -0.5332299  -0.5740575  -0.59124807 -0.58265278 -0.55042047 -0.50099759
 -0.43653296 -0.36347305 -0.28181786 -0.20016267 -0.12065629 -0.0497452
  0.01471942  0.0641423   0.10282108  0.12645811  0.13720221  0.13505339
  0.11786283  0.09207698  0.05554702  0.0125706  -0.03685228 -0.08627516
 -0.13784686 -0.18941856 -0.23669262 -0.27752022 -0.30975253 -0.33553838
 -0.34843131 -0.35058013 -0.3376872  -0.31190135 -0.27107376 -0.21950205
 -0.15503743 -0.08197752]",13.532744400469891,2.461152004366403,4.302455000000001,-0.3576900000000016
038,1,2,csm,6a.png,1,1,124,230,125,1,1,757,neu_feedback_onset,6,"[-1.35068653e+00 -1.30405486e+00 -1.22711259e+00 -1.11985973e+00
 -9.84627868e-01 -8.26080165e-01 -6.48879791e-01 -4.57689913e-01
 -2.59505285e-01 -6.13206557e-02  1.34532389e-01  3.23390683e-01
  5.00591057e-01  6.63801927e-01  8.13023295e-01  9.45923575e-01
  1.06716594e+00  1.17208721e+00  1.26768215e+00  1.35161917e+00
  1.42622985e+00  1.49617737e+00  1.55913013e+00  1.61741973e+00
  1.67104616e+00  1.72467259e+00  1.77596743e+00  1.82493069e+00
  1.87622554e+00  1.92752038e+00  1.98114681e+00  2.03710483e+00
  2.09539442e+00  2.15368402e+00  2.21430520e+00  2.27259480e+00
  2.33088439e+00  2.37984765e+00  2.42414775e+00  2.45678992e+00
  2.48010576e+00  2.48710051e+00  2.48243734e+00  2.46378467e+00
  2.43580567e+00  2.39616874e+00  2.34953706e+00  2.30290539e+00
  2.25394213e+00  2.21197362e+00  2.17699986e+00  2.14902085e+00
  2.13269976e+00  2.12803660e+00  2.13736293e+00  2.15368402e+00
  2.18166303e+00  2.21896837e+00  2.26093688e+00  2.30523697e+00
  2.35420023e+00  2.40316349e+00  2.44979517e+00  2.49409526e+00
  2.53373219e+00  2.57103753e+00  2.60134812e+00  2.63165871e+00
  2.65730613e+00  2.68528514e+00  2.71559573e+00  2.75056949e+00
  2.79253800e+00  2.84150126e+00  2.89979086e+00  2.96740679e+00
  3.04668064e+00  3.13294924e+00  3.22621260e+00  3.32647070e+00
  3.43139198e+00  3.54097642e+00  3.65289245e+00  3.76480847e+00
  3.87672450e+00  3.98864052e+00  4.10055655e+00  4.21014099e+00
  4.31739385e+00  4.42464671e+00  4.53189956e+00  4.63682084e+00
  4.74407370e+00  4.85132655e+00  4.95624783e+00  5.06350069e+00
  5.17075354e+00  5.27334323e+00  5.37360134e+00  5.46686470e+00
  5.55080172e+00  5.62541240e+00  5.68836516e+00  5.73732842e+00
  5.76997060e+00  5.78862327e+00  5.78862327e+00  5.77463377e+00
  5.74199159e+00  5.69302833e+00  5.62541240e+00  5.54380696e+00
  5.44354886e+00  5.33163283e+00  5.20805889e+00  5.07515861e+00
  4.93526357e+00  4.79303696e+00  4.65314193e+00  4.52024165e+00
  4.39666770e+00  4.28475167e+00  4.18682515e+00  4.10521972e+00
  4.03993537e+00  3.99097211e+00  3.95599835e+00  3.93501409e+00
  3.92335618e+00  3.92102459e+00  3.92335618e+00  3.93268251e+00
  3.94434043e+00  3.95599835e+00  3.96998785e+00  3.98397736e+00
  3.99563527e+00  4.00729319e+00  4.01661953e+00  4.02361428e+00
  4.02827745e+00  4.02827745e+00  4.02128270e+00  4.00729319e+00
  3.98397736e+00  3.95366677e+00  3.91402984e+00  3.86273499e+00
  3.80444540e+00  3.73682947e+00  3.66455037e+00  3.58760810e+00
  3.51066583e+00  3.43838673e+00  3.37077080e+00  3.31481279e+00
  3.27284428e+00  3.24952844e+00  3.24719685e+00  3.26584952e+00
  3.31014962e+00  3.37776555e+00  3.46869732e+00  3.58061335e+00
  3.70885046e+00  3.84874549e+00  3.99563527e+00  4.13786189e+00
  4.27076217e+00  4.38967295e+00  4.48759947e+00  4.55987857e+00
  4.60884183e+00  4.62982609e+00  4.63215767e+00  4.61583658e+00
  4.59018916e+00  4.56221015e+00  4.53656273e+00  4.52257323e+00
  4.52024165e+00  4.53423115e+00  4.56454174e+00  4.61117342e+00
  4.66713143e+00  4.73008419e+00  4.79303696e+00  4.85365814e+00
  4.90262140e+00  4.93992674e+00  4.96091100e+00  4.96790575e+00
  4.95624783e+00  4.93060041e+00  4.88863190e+00  4.83267388e+00
  4.76272637e+00  4.68112093e+00  4.58319441e+00  4.47127838e+00
  4.34537286e+00  4.20314624e+00  4.04693012e+00  3.87672450e+00
  3.69486096e+00  3.50600266e+00  3.31248120e+00  3.11429657e+00
  2.91611194e+00  2.71559573e+00  2.51507952e+00  2.31223172e+00
  2.10238917e+00  1.88788346e+00  1.65938824e+00  1.41923510e+00
  1.16276088e+00  8.92297146e-01  6.05512331e-01  3.04738012e-01
 -3.03105903e-03 -3.17794881e-01 -6.34890287e-01 -9.47322526e-01
 -1.24809684e+00 -1.53488166e+00 -1.80068222e+00 -2.04316694e+00
 -2.25300949e+00 -2.42787828e+00 -2.56311015e+00 -2.65637350e+00
 -2.70533676e+00 -2.70999993e+00 -2.66803142e+00 -2.58409440e+00
 -2.46052046e+00 -2.29964117e+00 -2.10611971e+00 -1.89161399e+00
 -1.65845561e+00 -1.41363930e+00 -1.16882299e+00 -9.26338271e-01
 -6.95511468e-01 -4.78674168e-01 -2.80489539e-01 -1.03289165e-01
  4.82637861e-02  1.76500899e-01  2.79090589e-01  3.56032857e-01
  4.07327702e-01  4.32975124e-01  4.37638292e-01  4.23648789e-01
  3.91006615e-01  3.46706521e-01  2.93080092e-01  2.39453663e-01]","[-2.0281314  -1.89461083 -1.73116324 -1.53778862 -1.32139322 -1.0842791
 -0.83335252 -0.57551969 -0.31078063 -0.05064573  0.20718709  0.4558116
  0.69062363  0.9116232   1.11650821  1.30297659  1.46872626  1.6160593
  1.74497571  1.85317342  1.94525657  2.02122517  2.08107921  2.12712079
  2.16395405  2.191579    2.2122977   2.23071434  2.24452681  2.2560372
  2.26524552  2.27215175  2.26984967  2.26294344  2.23992265  2.20308939
  2.14323534  2.06036051  1.94755865  1.80482976  1.6275697   1.41808053
  1.17866433  0.90932112  0.61695711  0.3038744  -0.02071871 -0.35221805
 -0.68601948 -1.01291466 -1.32829945 -1.6275697  -1.90842331 -2.16625613
 -2.40106816 -2.61285941 -2.79702571 -2.95817123 -3.09399388 -3.20679574
 -3.29657681 -3.36333709 -3.40937867 -3.43930569 -3.44851401 -3.44621193
 -3.43470154 -3.41398283 -3.39096204 -3.36794125 -3.34952462 -3.33571215
 -3.33110799 -3.33341007 -3.34492046 -3.36333709 -3.38635788 -3.40937867
 -3.43470154 -3.45311817 -3.46462856 -3.46693064 -3.45772232 -3.43239946
 -3.39326412 -3.33341007 -3.25744147 -3.16535832 -3.05485854 -2.9282442
 -2.7878174  -2.6358802  -2.47473469 -2.30668293 -2.13402703 -1.96137112
 -1.78871521 -1.62296554 -1.46642418 -1.32139322 -1.19477889 -1.09118534
 -1.01291466 -0.96687309 -0.95306061 -0.97838348 -1.04053961 -1.13952899
 -1.27304956 -1.44340339 -1.64368425 -1.87389212 -2.12712079 -2.39876609
 -2.68652593 -2.98579617 -3.29197265 -3.59584705 -3.89972145 -4.19438753
 -4.48214738 -4.75379267 -5.01392758 -5.26025001 -5.49275996 -5.7160616
 -5.92785285 -6.13273786 -6.33532079 -6.53329957 -6.73127834 -6.92695504
 -7.12493382 -7.32061051 -7.51398513 -7.70505767 -7.88922397 -8.06418196
 -8.22762955 -8.37726467]",5.010282284858936,1.4189438062570385,4.28893,0.23165999999999887
038,1,2,csp,43b.png,1,1,284,124,283,1,1,296,pos_feedback_onset,7,"[-2.12484199e+00 -1.87925119e+00 -1.63606814e+00 -1.39529284e+00
 -1.15451755e+00 -9.16150003e-01 -6.80190212e-01 -4.46638175e-01
 -2.15493890e-01  8.42713538e-03  2.29940408e-01  4.41822669e-01
  6.44073918e-01  8.36694155e-01  1.01486787e+00  1.18100283e+00
  1.33269127e+00  1.46993318e+00  1.59032083e+00  1.69866972e+00
  1.79257208e+00  1.87443568e+00  1.94907602e+00  2.01649311e+00
  2.08150244e+00  2.14410401e+00  2.20911334e+00  2.27893818e+00
  2.34876302e+00  2.42581111e+00  2.50767471e+00  2.58953831e+00
  2.67621742e+00  2.76289653e+00  2.84957563e+00  2.93625474e+00
  3.01811834e+00  3.09757419e+00  3.17462228e+00  3.24444712e+00
  3.30704870e+00  3.36242701e+00  3.40817432e+00  3.44188286e+00
  3.46114489e+00  3.46836815e+00  3.45873713e+00  3.43225185e+00
  3.38891230e+00  3.32871847e+00  3.24685487e+00  3.14813700e+00
  3.03015711e+00  2.89050743e+00  2.73159574e+00  2.55101427e+00
  2.34876302e+00  2.12484199e+00  1.87925119e+00  1.61439836e+00
  1.32787576e+00  1.02931439e+00  7.16306507e-01  3.93667610e-01
  6.86209595e-02 -2.58833444e-01 -5.83880094e-01 -9.04111238e-01
 -1.21471137e+00 -1.51568049e+00 -1.80461085e+00 -2.08150244e+00
 -2.34394751e+00 -2.59676157e+00 -2.83512912e+00 -3.05905014e+00
 -3.26852465e+00 -3.46596039e+00 -3.64894962e+00 -3.81749233e+00
 -3.97158852e+00 -4.11364594e+00 -4.24366460e+00 -4.36164450e+00
 -4.46999338e+00 -4.57352676e+00 -4.67224463e+00 -4.76855475e+00
 -4.86486486e+00 -4.96117498e+00 -5.05748510e+00 -5.14897971e+00
 -5.23806657e+00 -5.31511467e+00 -5.38012400e+00 -5.42827906e+00
 -5.45235659e+00 -5.45476434e+00 -5.42827906e+00 -5.37771625e+00
 -5.30307590e+00 -5.20917354e+00 -5.09841690e+00 -4.97802925e+00
 -4.85041835e+00 -4.71799193e+00 -4.59038103e+00 -4.46517787e+00
 -4.34960573e+00 -4.23884909e+00 -4.13772347e+00 -4.04622886e+00
 -3.96436526e+00 -3.88731716e+00 -3.81749233e+00 -3.75007524e+00
 -3.68506591e+00 -3.61764883e+00 -3.54300849e+00 -3.45873713e+00
 -3.36242701e+00 -3.25167038e+00 -3.12646722e+00 -2.98681755e+00
 -2.83031361e+00 -2.66417866e+00 -2.48841269e+00 -2.30783122e+00
 -2.12243424e+00 -1.93703726e+00 -1.75164028e+00 -1.57105881e+00
 -1.39288509e+00 -1.21711912e+00 -1.04857642e+00 -8.87256967e-01
 -7.33160778e-01 -5.86287847e-01 -4.53861434e-01 -3.33473786e-01
 -2.29940408e-01 -1.48076807e-01 -8.78829832e-02 -4.93589358e-02
 -3.97279239e-02 -5.17666887e-02 -9.02907362e-02 -1.48076807e-01
 -2.25124902e-01 -3.14211762e-01 -4.17745139e-01 -5.28501776e-01
 -6.44073918e-01 -7.64461566e-01 -8.87256967e-01 -1.01246012e+00
 -1.14007103e+00 -1.27008969e+00 -1.40251610e+00 -1.53975802e+00
 -1.67699994e+00 -1.81664961e+00 -1.96111479e+00 -2.10557997e+00
 -2.25486065e+00 -2.40654909e+00 -2.56305303e+00 -2.72678023e+00
 -2.89773069e+00 -3.07349666e+00 -3.25889364e+00 -3.44669837e+00
 -3.63691085e+00 -3.82712334e+00 -4.00770481e+00 -4.18106302e+00
 -4.33756697e+00 -4.47480888e+00 -4.59038103e+00 -4.68187564e+00
 -4.74929272e+00 -4.79263228e+00 -4.81430205e+00 -4.81189430e+00
 -4.79022452e+00 -4.74929272e+00 -4.68909890e+00 -4.60964305e+00
 -4.51092518e+00 -4.39535304e+00 -4.26292662e+00 -4.10883043e+00
 -3.94028773e+00 -3.75248300e+00 -3.55023175e+00 -3.32871847e+00
 -3.08794318e+00 -2.83031361e+00 -2.55101427e+00 -2.25245290e+00
 -1.92740625e+00 -1.57828207e+00 -1.20748811e+00 -8.17432131e-01
 -4.05706375e-01  1.56503943e-02  4.44230422e-01  8.75218203e-01
  1.30139048e+00  1.71793174e+00  2.12243424e+00  2.51249022e+00
  2.88569193e+00  3.24926263e+00  3.59838681e+00  3.94028773e+00
  4.27496539e+00  4.60964305e+00  4.94191296e+00  5.27177512e+00
  5.60404502e+00  5.93149943e+00  6.25413833e+00  6.57196172e+00
  6.87774634e+00  7.17389996e+00  7.45560705e+00  7.72286763e+00
  7.97568170e+00  8.21404924e+00  8.43556251e+00  8.64503702e+00
  8.84247276e+00  9.02786974e+00  9.20122795e+00  9.36736291e+00
  9.52386685e+00  9.67555529e+00  9.82483597e+00  9.97170890e+00
  1.01209896e+01  1.02774935e+01  1.04412207e+01  1.06145789e+01
  1.08023837e+01  1.10022272e+01  1.12141094e+01  1.14356227e+01
  1.16595437e+01  1.18810570e+01  1.20881238e+01  1.22711130e+01
  1.24155782e+01  1.25142960e+01  1.25552278e+01  1.25263348e+01
  1.24228014e+01  1.22374044e+01  1.19725516e+01  1.16282429e+01]","[-2.36097836 -2.19943065 -2.00267382 -1.77485013 -1.52010182 -1.24464226
 -0.95261371 -0.65022953 -0.34370311 -0.04131893  0.25485187  0.53859592
  0.80369986  1.0522348   1.27798736  1.48509981  1.67357214  1.84547547
  2.00495206  2.15407302  2.29698061  2.43574595  2.57036904  2.70292101
  2.83133073  2.9555982   3.07158117  3.17513739  3.26626687  3.34082735
  3.39467659  3.4298857   3.44024133  3.4298857   3.39881884  3.3449696
  3.27248024  3.18135077  3.07365229  2.95352707  2.81890398  2.67185414
  2.51444868  2.3466876   2.16857089  1.98009856  1.78127061  1.57830041
  1.36911684  1.15993327  0.95282082  0.74985062  0.55930717  0.38326159
  0.22171388  0.08087741 -0.04131893 -0.14280403 -0.22357789 -0.28778275
 -0.33748973 -0.37269885 -0.39962347 -0.42033471 -0.43483259 -0.45140158
 -0.46589945 -0.4866107  -0.50732194 -0.53424656 -0.56531343 -0.60052254
 -0.63987391 -0.67922528 -0.71857664 -0.75585688 -0.791066   -0.82006174
 -0.84284411 -0.85734198 -0.86562648 -0.86562648 -0.85734198 -0.84284411
 -0.82006174 -0.79520825 -0.7662125  -0.73721676 -0.70614989 -0.67715415
 -0.65022953 -0.62744716 -0.61087817 -0.60052254 -0.5963803  -0.60259367
 -0.61916267 -0.64815841 -0.68750977 -0.73928789 -0.80142162 -0.87391098
 -0.95468483 -1.04167206 -1.13073041 -1.21978877 -1.30677599 -1.38754985
 -1.46003921 -1.52424407 -1.5780933  -1.62158692 -1.65679603 -1.68372065
 -1.70857414 -1.73342764 -1.76035226 -1.79349025 -1.83905499 -1.8991176
 -1.97367808 -2.06687868 -2.17664828 -2.30712912 -2.45625008 -2.61986892
 -2.7959145  -2.98438683 -3.17907253 -3.37582936 -3.57465731 -3.77141413
 -3.95988646 -4.14007429 -4.3099065  -4.46938308 -4.6143618  -4.74898489
 -4.87532348 -4.99130645]",11.140209937537334,2.3988799358779707,4.15325,0.6761099999999995
038,1,2,csp,15b.png,1,1,152,122,153,1,1,369,pos_feedback_onset,8,"[-2.40554414e+00 -2.21250959e+00 -1.99564362e+00 -1.76209564e+00
 -1.50709938e+00 -1.23542113e+00 -9.49444013e-01 -6.53934330e-01
 -3.51275220e-01 -4.86161091e-02  2.49276716e-01  5.37636971e-01
  8.09315228e-01  1.06431149e+00  1.29785946e+00  1.50519287e+00
  1.69107799e+00  1.85313169e+00  1.99612024e+00  2.11766052e+00
  2.22490193e+00  2.32022764e+00  2.40363763e+00  2.48228133e+00
  2.55377561e+00  2.62050361e+00  2.68484846e+00  2.74442702e+00
  2.79685616e+00  2.84451901e+00  2.88264929e+00  2.90886386e+00
  2.91839643e+00  2.91363015e+00  2.88503243e+00  2.83498644e+00
  2.75872588e+00  2.65625074e+00  2.52279476e+00  2.36074106e+00
  2.17247280e+00  1.95798996e+00  1.71967570e+00  1.46229630e+00
  1.18823490e+00  9.02257789e-01  6.06748107e-01  3.04088996e-01
 -9.53257041e-04 -3.10761795e-01 -6.22953476e-01 -9.39911442e-01
 -1.25686941e+00 -1.58097680e+00 -1.90746734e+00 -2.24110730e+00
 -2.58189670e+00 -2.92745237e+00 -3.28015748e+00 -3.63524573e+00
 -3.99271712e+00 -4.34542222e+00 -4.69574418e+00 -5.03415043e+00
 -5.36302411e+00 -5.67283265e+00 -5.96595919e+00 -6.23525431e+00
 -6.48310114e+00 -6.70711654e+00 -6.90968366e+00 -7.09080250e+00
 -7.25047305e+00 -7.39346161e+00 -7.52453445e+00 -7.64130844e+00
 -7.74854986e+00 -7.85102499e+00 -7.94873384e+00 -8.04405954e+00
 -8.13938524e+00 -8.23471095e+00 -8.33480294e+00 -8.43489493e+00
 -8.53975320e+00 -8.64461148e+00 -8.75185289e+00 -8.85671117e+00
 -8.95918630e+00 -9.05689515e+00 -9.14745457e+00 -9.22848141e+00
 -9.30235883e+00 -9.37146997e+00 -9.43581482e+00 -9.49777653e+00
 -9.56927081e+00 -9.64791451e+00 -9.74562336e+00 -9.86716363e+00
 -1.00173016e+01 -1.01984205e+01 -1.04152864e+01 -1.06655164e+01
 -1.09514935e+01 -1.12660683e+01 -1.16092409e+01 -1.19667123e+01
 -1.23360994e+01 -1.27078696e+01 -1.30724904e+01 -1.34204293e+01
 -1.37445366e+01 -1.40400463e+01 -1.42998089e+01 -1.45238243e+01
 -1.47097094e+01 -1.48598474e+01 -1.49718551e+01 -1.50504988e+01
 -1.50981616e+01 -1.51172268e+01 -1.51100774e+01 -1.50838628e+01
 -1.50361999e+01 -1.49718551e+01 -1.48932114e+01 -1.48050351e+01
 -1.47097094e+01 -1.46096174e+01 -1.45095254e+01 -1.44070503e+01
 -1.43045752e+01 -1.42021000e+01 -1.40972418e+01 -1.39876172e+01
 -1.38684601e+01 -1.37373872e+01 -1.35920155e+01 -1.34275787e+01
 -1.32416936e+01 -1.30367433e+01 -1.28055785e+01 -1.25577316e+01
 -1.22884365e+01 -1.20048425e+01 -1.17117160e+01 -1.14090569e+01
 -1.11040146e+01 -1.08013555e+01 -1.05010796e+01 -1.02055699e+01
 -9.91959277e+00 -9.64314823e+00 -9.37385311e+00 -9.11409057e+00
 -8.85909431e+00 -8.60648119e+00 -8.35625122e+00 -8.10125496e+00
 -7.84149242e+00 -7.57458045e+00 -7.29575276e+00 -7.00739251e+00
 -6.70473340e+00 -6.38777543e+00 -6.05890175e+00 -5.71811236e+00
 -5.36302411e+00 -5.00078644e+00 -4.62663305e+00 -4.24771337e+00
 -3.86402742e+00 -3.47795831e+00 -3.09427236e+00 -2.71535268e+00
 -2.34358244e+00 -1.98849419e+00 -1.65247108e+00 -1.34027940e+00
 -1.06145172e+00 -8.20754312e-01 -6.20570334e-01 -4.63282922e-01
 -3.53658362e-01 -2.86930369e-01 -2.65482086e-01 -2.79780942e-01
 -3.25060651e-01 -3.96554929e-01 -4.84731205e-01 -5.80056909e-01
 -6.77765756e-01 -7.70708318e-01 -8.56501451e-01 -9.30378872e-01
 -9.89957437e-01 -1.04000343e+00 -1.07813371e+00 -1.11149771e+00
 -1.13771228e+00 -1.16154370e+00 -1.18299199e+00 -1.20444027e+00
 -1.22827170e+00 -1.24971998e+00 -1.27116826e+00 -1.29023340e+00
 -1.30691540e+00 -1.31644797e+00 -1.31644797e+00 -1.31168169e+00
 -1.29261655e+00 -1.26163569e+00 -1.21635598e+00 -1.15201113e+00
 -1.07098429e+00 -9.68509154e-01 -8.46968881e-01 -7.03980325e-01
 -5.44309770e-01 -3.67957218e-01 -1.77305810e-01  2.28781690e-02
  2.27828433e-01  4.35161839e-01  6.40112103e-01  8.37912939e-01
  1.02856435e+00  1.20968319e+00  1.38126945e+00  1.54332315e+00
  1.69346113e+00  1.83406655e+00  1.96752253e+00  2.09382909e+00
  2.21298622e+00  2.32499392e+00  2.43461848e+00  2.53947676e+00
  2.64195189e+00  2.73966074e+00  2.83498644e+00  2.92316272e+00
  3.00657271e+00  3.08521641e+00  3.15432755e+00  3.21390611e+00
  3.26633525e+00  3.31161496e+00  3.35212838e+00  3.38787552e+00
  3.42362266e+00  3.45936980e+00  3.50226637e+00  3.55469551e+00
  3.62142350e+00  3.70006720e+00  3.79777605e+00  3.91455004e+00]","[-2.47830323e+00 -2.24007357e+00 -2.00184390e+00 -1.76123193e+00
 -1.51823767e+00 -1.27524341e+00 -1.02986685e+00 -7.82107999e-01
 -5.29584551e-01 -2.72296510e-01 -7.86157903e-03  2.66102539e-01
  5.51978140e-01  8.52147521e-01  1.16422839e+00  1.49298533e+00
  1.83841835e+00  2.19814514e+00  2.57216572e+00  2.96048008e+00
  3.35832363e+00  3.76569636e+00  4.18021598e+00  4.59473560e+00
  5.00925522e+00  5.42139255e+00  5.82400069e+00  6.21707964e+00
  6.59824711e+00  6.96035620e+00  7.30340692e+00  7.62501697e+00
  7.92042176e+00  8.18485669e+00  8.41832177e+00  8.61605239e+00
  8.77566627e+00  8.89478110e+00  8.96863230e+00  8.99483756e+00
  8.97101460e+00  8.89478110e+00  8.77090168e+00  8.59461172e+00
  8.36829354e+00  8.09909401e+00  7.78939544e+00  7.44872702e+00
  7.08185333e+00  6.69830357e+00  6.31237150e+00  5.93120404e+00
  5.56909494e+00  5.23080881e+00  4.93063943e+00  4.67096909e+00
  4.45894469e+00  4.29933081e+00  4.19212746e+00  4.13495234e+00
  4.12542316e+00  4.16353990e+00  4.23977340e+00  4.34935904e+00
  4.48753225e+00  4.64952842e+00  4.82581838e+00  5.01401982e+00
  5.20698585e+00  5.40709877e+00  5.60959399e+00  5.81208920e+00
  6.01934901e+00  6.22899112e+00  6.44339782e+00  6.66256912e+00
  6.88650500e+00  7.11758778e+00  7.35105286e+00  7.58451793e+00
  7.81321841e+00  8.03238971e+00  8.23250263e+00  8.40879258e+00
  8.55649497e+00  8.66846292e+00  8.74469641e+00  8.78281316e+00
  8.78043086e+00  8.73993182e+00  8.66369833e+00  8.55411268e+00
  8.41832177e+00  8.25632559e+00  8.07288875e+00  7.87039353e+00
  7.65122224e+00  7.41775716e+00  7.17238061e+00  6.91509256e+00
  6.64827534e+00  6.37192892e+00  6.08605332e+00  5.79303083e+00
  5.49047915e+00  5.18316288e+00  4.87108202e+00  4.55661885e+00
  4.24215569e+00  3.92769253e+00  3.62275856e+00  3.32735377e+00
  3.04862506e+00  2.78895472e+00  2.55787194e+00  2.35775902e+00
  2.19099825e+00  2.05997194e+00  1.96944466e+00  1.91465184e+00
  1.89797576e+00  1.91465184e+00  1.96229777e+00  2.03376667e+00
  2.12905854e+00  2.23626189e+00  2.35537672e+00  2.47925615e+00
  2.60075328e+00  2.71748582e+00  2.81992458e+00  2.91045185e+00
  2.97953845e+00  3.02718439e+00  3.04862506e+00  3.04147817e+00
  3.00336142e+00  2.93427482e+00  2.83660065e+00  2.71033893e+00]",3.258618408255939,6.622606089626783,4.19614,-0.05797000000000008
038,1,2,csm,59a.png,1,1,16,243,17,1,1,426,neu_feedback_onset,9,"[ 0.25909061  0.17771342  0.10351657  0.03410662 -0.02572955 -0.07599193
 -0.11668053 -0.14300844 -0.15976257 -0.16215602 -0.15497568 -0.1358281
 -0.10710674 -0.07120504 -0.03051645  0.01735249  0.06761487  0.1202707
  0.17531997  0.2279758   0.28063163  0.33089401  0.38354984  0.43141878
  0.47928771  0.52715665  0.57263213  0.61810762  0.66358311  0.70666515
  0.74974719  0.79282923  0.83351783  0.87420642  0.91010812  0.94600983
  0.97712463  1.00584599  1.02978046  1.04892804  1.06328872  1.06807561
  1.06807561  1.05850182  1.0369608   1.00823944  0.9651574   0.91489502
  0.85027196  0.77846855  0.69469792  0.60614039  0.51040252  0.40987775
  0.3045661   0.19446755  0.08197555 -0.03769679 -0.16454946 -0.30336937
 -0.45415652 -0.61930434 -0.80359974 -1.00943616 -1.23202671 -1.47137139
 -1.72507674 -1.99314278 -2.26360226 -2.53645519 -2.80691467 -3.06780036
 -3.31432538 -3.54409626 -3.75711302 -3.94619532 -4.11134314 -4.2525565
 -4.36983539 -4.46078637 -4.52540943 -4.56370458 -4.57567181 -4.56370458
 -4.52540943 -4.46557326 -4.38419607 -4.28606475 -4.16878586 -4.03475285
 -3.8887526  -3.73078511 -3.56085039 -3.37894844 -3.18986615 -2.99360351
 -2.78776709 -2.57953723 -2.36412702 -2.14632337 -1.92373282 -1.70114227
 -1.47855173 -1.25835463 -1.03815752 -0.82514076 -0.62169779 -0.42782861
 -0.25310699 -0.0999264   0.02453283  0.11787725  0.17531997  0.19686099
  0.18489376  0.13702483  0.06282798 -0.03290989 -0.14300844 -0.25550044
 -0.36559899 -0.46133686 -0.5403206  -0.59297643 -0.61930434 -0.6169109
 -0.58818954 -0.53074682 -0.44936963 -0.34884486 -0.23156597 -0.0999264
  0.03889351  0.18489376  0.33089401  0.47689426  0.61810762  0.75214064
  0.87420642  0.98430497  1.08004284  1.15902659  1.21646931  1.25237101
  1.26433824  1.24758411  1.20450207  1.13269867  1.03217391  0.90053434
  0.7449603   0.56545179  0.36679571  0.15138551 -0.07120504 -0.29858248
 -0.52117303 -0.73658324 -0.93284587 -1.11235437 -1.26314152 -1.3852073
 -1.47615828 -1.53599445 -1.55992891 -1.55274857 -1.51924032 -1.45940415
 -1.38281386 -1.29186288 -1.19612501 -1.09799369 -1.00943616 -0.93045242
 -0.86822281 -0.82514076 -0.80359974 -0.80359974 -0.82274732 -0.86104247
 -0.91369829 -0.97832136 -1.05012476 -1.12671505 -1.2056988  -1.27989565
 -1.3493056  -1.40914177 -1.45940415 -1.49291241 -1.51205998 -1.51445343
 -1.49530585 -1.45940415 -1.39956798 -1.32297769 -1.22723982 -1.11714127
 -0.99268204 -0.86343591 -0.72940289 -0.59536988 -0.46612375 -0.34645142
 -0.23395942 -0.13104121 -0.03769679  0.0484673   0.13223793  0.21600857
  0.30695954  0.40509086  0.51279596  0.6372552   0.77846855  0.93882948
  1.1135511   1.30742028  1.5180436   1.74302759  1.98237226  2.23129073
  2.48978297  2.75545556  3.02830849  3.30116142  3.5764078   3.85165417
  4.1245071   4.39496658  4.65824572  4.91195108  5.15608265  5.38585353
  5.59887029  5.79034603  5.9626742   6.1110679   6.23313368  6.331265
  6.4030684   6.45333078  6.48444559  6.49641282  6.49880627  6.49401937
  6.49162593  6.49880627  6.52752763  6.5825769   6.68310167  6.83149537
  7.03972523  7.31257816  7.65005415  8.04497286  8.48776051  8.96405641
  9.454713    9.93818924]","[ -1.11004569  -0.91298194  -0.71351497  -0.51645122  -0.32659712
  -0.1487591    0.01706284   0.16125582   0.28622308   0.38475496
   0.45685145   0.50251256   0.51693186   0.49770613   0.4496418
   0.36793244   0.25738448   0.11559471  -0.05022722  -0.23527489
  -0.43714507  -0.65103134  -0.86491761  -1.07880387  -1.28067405
  -1.47052815  -1.64115652  -1.79015594  -1.9151232   -2.01846151
  -2.10257409  -2.16986415  -2.22513812  -2.26839602  -2.3092507
  -2.34770216  -2.39096006  -2.43902439  -2.49189515  -2.55437878
  -2.62647527  -2.70578142  -2.79229721  -2.88602265  -2.98455453
  -3.09029605  -3.19844079  -3.31139197  -3.42914957  -3.5493104
  -3.67668087  -3.80885778  -3.95064755  -4.09724375  -4.25585604
  -4.42167797  -4.59711278  -4.78456366  -4.97922419  -5.18349759
  -5.39738386  -5.61607656  -5.83957569  -6.07028447  -6.30099325
  -6.53650846  -6.77202368  -7.00513567  -7.23344124  -7.45934359
  -7.67563307  -7.88230968  -8.07697022  -8.25721145  -8.4254366
  -8.57683924  -8.71141936  -8.83158019  -8.93732171  -9.0238375
  -9.09833721  -9.15601441  -9.19686909  -9.22330447  -9.23291734
  -9.2281109   -9.21128839  -9.18004657  -9.13919189  -9.09112757
  -9.04066002  -8.99019247  -8.93972493  -8.89646703  -8.85801557
  -8.82677375  -8.80033837  -8.78111264  -8.76669334  -8.75227404
  -8.74025796  -8.72583866  -8.70901615  -8.69219363  -8.6729679
  -8.65374217  -8.63451644  -8.61769392  -8.60567784  -8.59606497
  -8.59125854  -8.59125854  -8.59846819  -8.61288749  -8.63691965
  -8.67056468  -8.71862901  -8.78351586  -8.87003165  -8.97817639
  -9.11275651  -9.27377202  -9.4612229   -9.67030273  -9.90341473
 -10.14854281 -10.40568697 -10.66763757 -10.92958816 -11.18673232
 -11.43666683 -11.67458526 -11.90289083 -12.11677709 -12.31624406
 -12.50129173 -12.66711366 -12.81611309 -12.94588677 -13.05403152]",7.222311026694631,-0.5443886097152573,4.178075,0.10591999999999979
038,1,2,csp,49b.png,1,0,76,52,NaN,0,1,259,neg_feedback_onset,10,"[ 0.63404838  0.46636162  0.2959259   0.12823914 -0.02845177 -0.17139786
 -0.28960328 -0.38031907 -0.44354523 -0.47103486 -0.46278797 -0.42155352
 -0.35008048 -0.24836883 -0.11916756  0.02927646  0.19421426  0.37014791
  0.54608156  0.72201521  0.88695301  1.03814599  1.17284519  1.28280372
  1.37351951  1.43674567  1.48072908  1.50272079  1.51371664  1.51371664
  1.5164656   1.52746146  1.55220213  1.60168347  1.6814034   1.7941109
  1.94255491  2.12123753  2.3329077   2.56656958  2.81397628  3.07237883
  3.32528345  3.56719222  3.78985825  3.99053257  4.16096829  4.29841646
  4.40562603  4.47984804  4.52658041  4.54857212  4.54307419  4.51833352
  4.47435011  4.41387292  4.33690195  4.24618616  4.14172555  4.02626909
  3.89981678  3.76511758  3.62217149  3.4792254   3.33078138  3.18508632
  3.03939127  2.89919414  2.76174598  2.6325447   2.50884135  2.38788697
  2.27517947  2.16522094  2.0635093   1.96454662  1.87383083  1.79136193
  1.71988889  1.65941169  1.61267932  1.58518969  1.5769428   1.58793865
  1.61817724  1.66765858  1.73088474  1.80510675  1.88482668  1.96729558
  2.04151759  2.10199479  2.14322923  2.16247198  2.15422509  2.11848856
  2.05526241  1.96454662  1.85183913  1.71439096  1.56044902  1.39276225
  1.21133068  1.01890325  0.81822893  0.60655875  0.38664169  0.15572877
 -0.07793311 -0.31984188 -0.56175065 -0.80091046 -1.03457234 -1.25174044
 -1.44966579 -1.62010152 -1.76029865 -1.86750822 -1.93348334 -1.96372193
 -1.95547504 -1.91149163 -1.83726962 -1.73555798 -1.61185463 -1.4716575
 -1.32046452 -1.15827569 -0.98783996 -0.81190631 -0.62772577 -0.44079626
 -0.24561987 -0.04494555  0.1612267   0.37564583  0.59281394  0.81547996
  1.04089495  1.27180787  1.50272079  1.73638267  1.97004455  2.20920435
  2.44836416  2.69027293  2.93493066  3.18233736  3.43249302  3.68264868
  3.93280434  4.18021104  4.41937084  4.6475348   4.8647029   5.06262826
  5.24131087  5.40075074  5.53544994  5.6509064   5.74712012  5.82958902
  5.90106206  5.96703718  6.0330123   6.10448535  6.18970321  6.29141485
  6.41236924  6.56081325  6.73399794  6.93742123  7.16283622  7.41299188
  7.68239028  7.96278453  8.25142568  8.53731786  8.81496316  9.07611467
  9.31527448  9.52144672  9.69738038  9.83482854  9.93654018 10.0025153
 10.0327539  10.02725597  9.99426841  9.93379122  9.84857336  9.74411275
  9.61766044  9.47746331  9.31802344  9.14758772  8.96615614  8.77097974
  8.57030542  8.36138421  8.14696508  7.92979698  7.71262887  7.49271181
  7.27279475  7.05562665  6.84670544  6.64328215  6.45360368  6.280419
  6.12922602  6.0027737   5.91205792  5.85707865  5.84333383  5.87357243
  5.94779444  6.06599986  6.22818869  6.42611405  6.65977593  6.92092745
  7.2013217   7.49820974  7.80609363  8.11397752  8.42461037  8.72699633
  9.0211354   9.30702759  9.57917495  9.84032647 10.09323109 10.33788882
 10.57429967 10.80796155 11.04437239 11.28078323 11.52544097 11.77834559
 12.04224607 12.31989136 12.61128147 12.92191432 13.24904096 13.59266137
 13.95552452 14.33488146 14.73073217 15.1403277  15.55817013 15.9870084
 16.41859564 16.85293184 17.28177011 17.70785942 18.12295288 18.52979945
 18.92015224 19.29676021]","[-0.46937109 -0.39313912 -0.32779744 -0.27334604 -0.22760686 -0.19275796
 -0.16879935 -0.1513749  -0.14048462 -0.12959434 -0.11434794 -0.09038933
 -0.05118432  0.00544514  0.08821127  0.19711408  0.33433161  0.49986387
  0.69371086  0.91151647  1.15110264  1.40811326  1.67819221  1.95480534
  2.23795263  2.52327797  2.80642527  3.08521644  3.35747345  3.62101824
  3.87367275  4.11325892  4.33759869  4.54451402  4.73182684  4.89735911
  5.04328886  5.16526001  5.26327253  5.33950449  5.39177784  5.42444868
  5.43533896  5.42662674  5.39613395  5.34603866  5.27416281  5.1805064
  5.06506943  4.92567384  4.76667574  4.58589709  4.38769398  4.17424449
  3.94990471  3.72120882  3.49251293  3.27252927  3.06561394  2.88047917
  2.71930302  2.58861966  2.48842908  2.42308739  2.39259461  2.39259461
  2.42090934  2.47536074  2.54941465  2.63871495  2.73890553  2.84563027
  2.95017697  3.05036755  3.1418459   3.21807787  3.27688538  3.31609039
  3.33351484  3.32698067  3.29648788  3.24421454  3.17016063  3.07868228
  2.97413558  2.85869861  2.73672747  2.61475633  2.49496325  2.38170433
  2.27715764  2.18350123  2.10509121  2.03757147  1.98529812  1.94391506
  1.91342227  1.89164171  1.87421726  1.85897087  1.84154642  1.81976586
  1.78709502  1.7435339   1.68254833  1.60196025  1.49959161  1.37544242
  1.22951266  1.0639804   0.87884563  0.67846447  0.46937109  0.25156548
  0.03593793 -0.17751157 -0.3844269  -0.57827389 -0.75687449 -0.91805064
 -1.05962429 -1.18377348 -1.29049823 -1.37979853 -1.45167438 -1.51048189
 -1.55404302 -1.58889191 -1.61285053 -1.62809692 -1.6389872  -1.64552137
 -1.64987748 -1.64987748 -1.65205554 -1.65205554 -1.6542336  -1.65858971
 -1.66294582 -1.66947999]",15.302516538450417,4.126109447318279,3.6377350000000006,
038,1,2,csp,40b.png,1,1,28,25,NaN,0,1,467,neg_feedback_onset,11,"[ 8.20888411e-01  6.34838522e-01  4.46519733e-01  2.60469844e-01
  7.89577576e-02 -8.66720213e-02 -2.36419493e-01 -3.61209052e-01
 -4.56502897e-01 -5.17763227e-01 -5.40452237e-01 -5.20032128e-01
 -4.56502897e-01 -3.52133448e-01 -2.13730482e-01 -4.81007029e-02
  1.31142482e-01  3.12654569e-01  4.80553249e-01  6.23494017e-01
  7.27863467e-01  7.82317093e-01  7.84585994e-01  7.34670170e-01
  6.34838522e-01  4.91897754e-01  3.17192371e-01  1.26604680e-01
 -7.30586148e-02 -2.65915207e-01 -4.40620590e-01 -5.92636962e-01
 -7.15157621e-01 -8.08182565e-01 -8.73980696e-01 -9.10283113e-01
 -9.26165421e-01 -9.23896520e-01 -9.12552015e-01 -8.96669707e-01
 -8.80787399e-01 -8.69442894e-01 -8.67173993e-01 -8.76249597e-01
 -8.98938608e-01 -9.30703223e-01 -9.73812344e-01 -1.02372817e+00
 -1.07591289e+00 -1.12809762e+00 -1.17120674e+00 -1.20750916e+00
 -1.22566036e+00 -1.22792926e+00 -1.21204696e+00 -1.17347564e+00
 -1.11448421e+00 -1.03507267e+00 -9.37509926e-01 -8.26333774e-01
 -7.01544214e-01 -5.65410149e-01 -4.24738282e-01 -2.79528613e-01
 -1.29781142e-01  1.76974284e-02  1.65175999e-01  3.08116767e-01
  4.48788634e-01  5.84922699e-01  7.16518961e-01  8.41308521e-01
  9.59291377e-01  1.07046753e+00  1.16803028e+00  1.25651742e+00
  1.33139115e+00  1.39265148e+00  1.43802950e+00  1.46979412e+00
  1.48567643e+00  1.48567643e+00  1.47433192e+00  1.45391181e+00
  1.42214720e+00  1.38584478e+00  1.34500456e+00  1.30416434e+00
  1.26332412e+00  1.22475280e+00  1.18845039e+00  1.15214797e+00
  1.11811445e+00  1.08181204e+00  1.04324072e+00  9.97862695e-01
  9.45677970e-01  8.88955443e-01  8.25426213e-01  7.55090280e-01
  6.84754346e-01  6.18956215e-01  5.59964787e-01  5.16855666e-01
  4.96435556e-01  5.03242260e-01  5.41813578e-01  6.12149512e-01
  7.14250060e-01  8.41308521e-01  9.86518190e-01  1.13853456e+00
  1.28374423e+00  1.40853379e+00  1.50155874e+00  1.55374346e+00
  1.55828126e+00  1.51744104e+00  1.43122280e+00  1.31097104e+00
  1.16349247e+00  1.00466940e+00  8.48115224e-01  7.02905555e-01
  5.82653797e-01  4.91897754e-01  4.35175227e-01  4.12486216e-01
  4.19292920e-01  4.51057535e-01  4.98704457e-01  5.57695886e-01
  6.21225116e-01  6.82485445e-01  7.34670170e-01  7.73241488e-01
  7.98199400e-01  8.02737202e-01  7.91392697e-01  7.59628082e-01
  7.09712258e-01  6.43914127e-01  5.57695886e-01  4.57864238e-01
  3.46688085e-01  2.19629625e-01  8.57644608e-02 -5.71763072e-02
 -2.06923779e-01 -3.61209052e-01 -5.20032128e-01 -6.81124104e-01
 -8.42216081e-01 -1.00330806e+00 -1.16213113e+00 -1.31868531e+00
 -1.46843278e+00 -1.61364245e+00 -1.74750761e+00 -1.87229717e+00
 -1.98120442e+00 -2.07649827e+00 -2.15137200e+00 -2.20582563e+00
 -2.23532134e+00 -2.23985915e+00 -2.22170794e+00 -2.17632992e+00
 -2.10599398e+00 -2.01523794e+00 -1.90406179e+00 -1.77927223e+00
 -1.64540706e+00 -1.50700410e+00 -1.36860113e+00 -1.23473597e+00
 -1.10994641e+00 -9.91963552e-01 -8.85325202e-01 -7.87762455e-01
 -6.99275313e-01 -6.17594874e-01 -5.40452237e-01 -4.65578502e-01
 -3.90704766e-01 -3.15831030e-01 -2.40957295e-01 -1.66083559e-01
 -8.89409224e-02 -9.52938454e-03  7.21510544e-02  1.60638196e-01
  2.53663141e-01  3.58032590e-01  4.73746546e-01  6.00805006e-01
  7.43745774e-01  9.00299949e-01  1.07046753e+00  1.24744181e+00
  1.43122280e+00  1.61500379e+00  1.79197807e+00  1.96214565e+00
  2.12096873e+00  2.26617840e+00  2.39777466e+00  2.51802642e+00
  2.62693367e+00  2.72903422e+00  2.82886587e+00  2.93096642e+00
  3.03533587e+00  3.14878092e+00  3.27357048e+00  3.40970454e+00
  3.55718311e+00  3.71600619e+00  3.88844267e+00  4.06768586e+00
  4.25600465e+00  4.44886124e+00  4.64625563e+00  4.84365003e+00
  5.04558222e+00  5.24751442e+00  5.45171552e+00  5.66045442e+00
  5.87600002e+00  6.10062123e+00  6.33204914e+00  6.57255265e+00
  6.81986287e+00  7.07397979e+00  7.32809671e+00  7.57994473e+00
  7.82271715e+00  8.05187615e+00  8.26061505e+00  8.44666494e+00
  8.60775692e+00  8.74389098e+00  8.85960494e+00  8.95716769e+00
  9.04338593e+00  9.12733527e+00  9.21582241e+00  9.31338516e+00
  9.42683021e+00  9.55842647e+00  9.70817394e+00  9.87153482e+00
  1.00462402e+01  1.02232145e+01  1.03933821e+01  1.05476673e+01
  1.06792636e+01  1.07813642e+01  1.08539690e+01  1.08970781e+01]","[-1.97855918 -1.85185398 -1.70441522 -1.5385466  -1.35194441 -1.15382356
 -0.94188033 -0.72072217 -0.49265283 -0.25767229 -0.02038802  0.22380744
  0.47261037  0.72832449  0.99555726  1.27661241  1.57379368  1.89401226
  2.23726814  2.61047253  3.01362542  3.4467268   3.90977669  4.39816761
  4.90498838  5.42563154  5.94627469  6.46000666  6.95300504  7.41605493
  7.84224512  8.22005697  8.54488301  8.81902697  9.0378814   9.20605374
  9.32815147  9.40878205  9.45255294  9.46637532  9.45485667  9.41799698
  9.36270744  9.29129178  9.20144628  9.0977784   8.98028813  8.84897547
  8.7084479   8.5587054   8.40435543  8.25000547  8.09565551  7.94591301
  7.80768916  7.6832877   7.57270862  7.48286312  7.4137512   7.36306912
  7.33542435  7.32851316  7.34233555  7.37228405  7.41835866  7.47595193
  7.54506385  7.61878324  7.69711008  7.7731332   7.84685259  7.91366078
  7.97125405  8.01502493  8.04497343  8.06109955  8.05649209  8.03345478
  7.99198762  7.92978689  7.85146005  7.75239962  7.63721308  7.50129297
  7.34924674  7.17877066  6.98986474  6.78022524  6.55215589  6.3056567
  6.04072766  5.76197623  5.47170615  5.17682862  4.88425481  4.59859219
  4.32905569  4.07794903  3.85448715  3.66097376  3.49740888  3.36379249
  3.25782088  3.1771903   3.11498957  3.06891495  3.02975153  2.99289184
  2.95603215  2.90995753  2.85697172  2.79016353  2.70953295  2.61507999
  2.50910838  2.38701064  2.25569799  2.11517041  1.96312418  1.80186303
  1.62908322  1.44478476  1.24436018  1.02780949  0.79052522  0.5348111
  0.25605968 -0.04112159 -0.35442898 -0.68155875 -1.01559971 -1.35194441
 -1.68137791 -1.99929275 -2.29877776 -2.57292172 -2.82172464 -3.0359716
 -3.21796634 -3.36310137]",9.681055172975615,7.6347365741450135,4.40742,
038,1,2,csm,12a.png,1,1,276,234,NaN,0,1,377,neu_feedback_onset,12,"[-2.00607401e-01 -1.40358237e-01 -9.12663258e-02 -5.55631177e-02
 -2.43228106e-02 -2.00830546e-03  1.58432986e-02  2.70005512e-02
  3.59263532e-02  3.81578037e-02  3.81578037e-02  3.59263532e-02
  3.36949027e-02  2.92320017e-02  2.70005512e-02  2.70005512e-02
  3.14634522e-02  4.03892542e-02  5.60094078e-02  7.83239129e-02
  1.07332770e-01  1.45267428e-01  1.89896438e-01  2.38988350e-01
  2.94774612e-01  3.48329425e-01  4.04115687e-01  4.53207599e-01
  4.97836609e-01  5.33539817e-01  5.60317223e-01  5.75937377e-01
  5.80400278e-01  5.73705926e-01  5.55854322e-01  5.24614015e-01
  4.82216455e-01  4.24198742e-01  3.50560875e-01  2.61302855e-01
  1.51961780e-01  2.25376501e-02 -1.26969534e-01 -2.94328322e-01
 -4.75075814e-01 -6.69212008e-01 -8.65579653e-01 -1.06194730e+00
 -1.25162059e+00 -1.42567373e+00 -1.57964382e+00 -1.71129940e+00
 -1.81617757e+00 -1.88981544e+00 -1.93890735e+00 -1.95899040e+00
 -1.95452750e+00 -1.92551864e+00 -1.87642673e+00 -1.81171467e+00
 -1.72915100e+00 -1.63543008e+00 -1.53055190e+00 -1.41451648e+00
 -1.29178670e+00 -1.16013112e+00 -1.02401264e+00 -8.83431257e-01
 -7.38386974e-01 -5.88879790e-01 -4.34909704e-01 -2.78708169e-01
 -1.20275182e-01  3.81578037e-02  1.94359339e-01  3.50560875e-01
  5.00068059e-01  6.42880892e-01  7.76767922e-01  8.95034799e-01
  9.99912973e-01  1.08693954e+00  1.15388306e+00  1.19851207e+00
  1.21859512e+00  1.21413222e+00  1.18289192e+00  1.12933710e+00
  1.04900488e+00  9.48589612e-01  8.25859834e-01  6.87509902e-01
  5.31308366e-01  3.61718128e-01  1.83202087e-01 -4.23975597e-03
 -1.93913049e-01 -3.85817793e-01 -5.75491086e-01 -7.62932929e-01
 -9.43680421e-01 -1.11773356e+00 -1.27839800e+00 -1.42567373e+00
 -1.55956076e+00 -1.67559619e+00 -1.77378001e+00 -1.85188078e+00
 -1.90989849e+00 -1.95006460e+00 -1.97237911e+00 -1.97461056e+00
 -1.96345330e+00 -1.93890735e+00 -1.90320414e+00 -1.86080658e+00
 -1.81394612e+00 -1.76485421e+00 -1.71799375e+00 -1.67559619e+00
 -1.63766153e+00 -1.60642122e+00 -1.58633817e+00 -1.57071801e+00
 -1.56625511e+00 -1.57071801e+00 -1.57964382e+00 -1.59526397e+00
 -1.61534702e+00 -1.63766153e+00 -1.66220748e+00 -1.68675344e+00
 -1.71129940e+00 -1.73584535e+00 -1.75815986e+00 -1.77824291e+00
 -1.80055742e+00 -1.82287192e+00 -1.84741788e+00 -1.87196383e+00
 -1.89874124e+00 -1.92551864e+00 -1.95229605e+00 -1.97907346e+00
 -2.00138796e+00 -2.01923957e+00 -2.03485972e+00 -2.05047987e+00
 -2.06386858e+00 -2.08172018e+00 -2.11072904e+00 -2.15089515e+00
 -2.21337576e+00 -2.29593943e+00 -2.40304905e+00 -2.53470463e+00
 -2.68421182e+00 -2.85157061e+00 -3.02339230e+00 -3.19744544e+00
 -3.36034132e+00 -3.50538561e+00 -3.63034683e+00 -3.72629921e+00
 -3.79324272e+00 -3.83564028e+00 -3.85349189e+00 -3.85572334e+00
 -3.84902898e+00 -3.84233463e+00 -3.84233463e+00 -3.85572334e+00
 -3.89142654e+00 -3.95167571e+00 -4.04316518e+00 -4.16143206e+00
 -4.31317069e+00 -4.49168673e+00 -4.69698018e+00 -4.92458813e+00
 -5.17227914e+00 -5.43559030e+00 -5.71005871e+00 -5.99345292e+00
 -6.27907859e+00 -6.56693571e+00 -6.85032992e+00 -7.12702978e+00
 -7.39480384e+00 -7.65365210e+00 -7.90134311e+00 -8.13787686e+00
 -8.36102192e+00 -8.57747261e+00 -8.78722896e+00 -8.99252241e+00
 -9.19558441e+00 -9.40087785e+00 -9.60617130e+00 -9.81369620e+00
 -1.00212211e+01 -1.02265145e+01 -1.04251136e+01 -1.06103240e+01
 -1.07821457e+01 -1.09316529e+01 -1.10566141e+01 -1.11570294e+01
 -1.12284358e+01 -1.12730648e+01 -1.12953793e+01 -1.12976108e+01
 -1.12819906e+01 -1.12529818e+01 -1.12172786e+01 -1.11726496e+01
 -1.11235576e+01 -1.10677714e+01 -1.10075222e+01 -1.09361158e+01
 -1.08557836e+01 -1.07598312e+01 -1.06460272e+01 -1.05121402e+01
 -1.03581701e+01 -1.01841170e+01 -9.98774934e+00 -9.77129864e+00
 -9.54145923e+00 -9.30046258e+00 -9.05277157e+00 -8.80731202e+00
 -8.56631536e+00 -8.33870741e+00 -8.12895106e+00 -7.94150922e+00
 -7.78307623e+00 -7.65588355e+00 -7.55993118e+00 -7.49298767e+00
 -7.45728446e+00 -7.44166431e+00 -7.44612721e+00 -7.45728446e+00
 -7.47067316e+00 -7.47513606e+00 -7.46174736e+00 -7.42158125e+00
 -7.34794338e+00 -7.23413941e+00 -7.07793787e+00 -6.87710733e+00
 -6.63611067e+00 -6.35717936e+00 -6.04923919e+00 -5.71675306e+00
 -5.36864678e+00 -5.01607760e+00 -4.66573987e+00 -4.32209649e+00]","[ -0.26668905  -0.11282998   0.03403549   0.16924497   0.28813607
   0.38837758   0.46530711   0.51426227   0.53058065   0.51193107
   0.45598232   0.3650656    0.23684971   0.07832825  -0.10583639
  -0.30865061  -0.51845843  -0.72360385  -0.91709328  -1.08493953
  -1.22014901  -1.31106573  -1.35535849  -1.3483649   -1.29008495
  -1.18518104  -1.03831557  -0.86114452  -0.6606615   -0.45551608
  -0.25969545  -0.08252441   0.05967867   0.15525778   0.19488815
   0.17856976   0.09697783  -0.04289404  -0.23871467  -0.48349046
  -0.76789661  -1.08027713  -1.41130724  -1.75166214  -2.09434824
  -2.42770955  -2.74941487  -3.0524706   -3.33221436  -3.58864613
  -3.81710353  -4.01758656  -4.18543281  -4.32064229  -4.423215
  -4.49081974  -4.52345651  -4.52112532  -4.48615735  -4.41622141
  -4.3136487   -4.18310161  -4.02691135  -3.84740911  -3.64692608
  -3.43012467  -3.20399847  -2.96854748  -2.73309648  -2.49997669
  -2.27618168  -2.06870507  -1.88220923  -1.72135657  -1.59080949
  -1.49756157  -1.44161282  -1.42529443  -1.44627521  -1.50455516
  -1.59780308  -1.71669417  -1.85656605  -2.01042512  -2.17360897
  -2.33679283  -2.49298309  -2.64217976  -2.77738924  -2.89628034
  -2.99885305  -3.08510737  -3.15737451  -3.21565446  -3.26460962
  -3.30423998  -3.34153915  -3.38116952  -3.42313108  -3.47674863
  -3.54435337  -3.63293889  -3.74716759  -3.88703947  -4.06187932
  -4.26935594  -4.51413172  -4.79620667  -5.1085872   -5.4559357
  -5.82892737  -6.22523102  -6.63785306  -7.06213109  -7.49107151
  -7.92001194  -8.33729637  -8.74525601  -9.13223487  -9.49823295
  -9.83858785 -10.15329958 -10.44236812 -10.70579349 -10.94590688
 -11.16737069 -11.36785371 -11.55668075 -11.73385179 -11.90169804
 -12.0625507  -12.21640977 -12.36094404 -12.49382233 -12.61504462
 -12.72227973 -12.80620285 -12.8691452  -12.90411317 -12.91343796]",0.0990206163712753,-0.34320229336590996,4.481389999999999,
038,1,2,csp,61b.png,1,1,172,146,NaN,0,1,363,neg_feedback_onset,13,"[-2.28335272e-01 -1.33559299e-01 -5.37479533e-02  6.11055617e-03
  5.10044383e-02  8.09336930e-02  1.00886529e-01  1.13357052e-01
  1.20839366e-01  1.23333471e-01  1.25827575e-01  1.25827575e-01
  1.20839366e-01  1.05874739e-01  7.84395884e-02  3.35457063e-02
 -3.13010122e-02 -1.21088776e-01 -2.35817586e-01 -3.82969755e-01
 -5.60051179e-01 -7.62073648e-01 -9.94025373e-01 -1.24842404e+00
 -1.52028143e+00 -1.80710346e+00 -2.10390190e+00 -2.40319445e+00
 -2.69999289e+00 -2.98681492e+00 -3.26116642e+00 -3.51307098e+00
 -3.74252860e+00 -3.93956286e+00 -4.10167965e+00 -4.22887899e+00
 -4.31617265e+00 -4.36356063e+00 -4.37353705e+00 -4.35109011e+00
 -4.29621981e+00 -4.21640846e+00 -4.11664428e+00 -4.00440958e+00
 -3.88219845e+00 -3.75749323e+00 -3.63528210e+00 -3.51805919e+00
 -3.40831859e+00 -3.30606030e+00 -3.20879022e+00 -3.11900246e+00
 -3.03170880e+00 -2.94940335e+00 -2.86460379e+00 -2.77980424e+00
 -2.69500468e+00 -2.61020513e+00 -2.52540557e+00 -2.44060602e+00
 -2.35830057e+00 -2.27848922e+00 -2.20117198e+00 -2.12634884e+00
 -2.05401981e+00 -1.97919667e+00 -1.89938533e+00 -1.81707988e+00
 -1.72479801e+00 -1.62503383e+00 -1.51529323e+00 -1.39308210e+00
 -1.26338867e+00 -1.12621291e+00 -9.84048954e-01 -8.34402681e-01
 -6.84756407e-01 -5.37604238e-01 -3.97934383e-01 -2.68240945e-01
 -1.56006240e-01 -6.62184761e-02 -1.37175751e-03  2.85574972e-02
  2.35692881e-02 -2.38186986e-02 -1.11112358e-01 -2.35817586e-01
 -3.92946173e-01 -5.77509911e-01 -7.82026485e-01 -9.91531268e-01
 -1.20103605e+00 -1.40056442e+00 -1.57764584e+00 -1.72978622e+00
 -1.84950324e+00 -1.93180869e+00 -1.97919667e+00 -1.98667899e+00
 -1.95674973e+00 -1.89439712e+00 -1.79962115e+00 -1.67741002e+00
 -1.53025785e+00 -1.36315285e+00 -1.18108321e+00 -9.91531268e-01
 -7.92002903e-01 -5.94968643e-01 -3.97934383e-01 -2.08382436e-01
 -2.88069077e-02  1.38298098e-01  2.92932581e-01  4.27614227e-01
  5.47331246e-01  6.47095428e-01  7.31894983e-01  8.01729911e-01
  8.56600211e-01  9.01494093e-01  9.41399766e-01  9.78811335e-01
  1.01622290e+00  1.06111679e+00  1.11349298e+00  1.17833970e+00
  1.25565694e+00  1.35043291e+00  1.46017351e+00  1.58487874e+00
  1.72205449e+00  1.87170077e+00  2.03132346e+00  2.20092257e+00
  2.37550989e+00  2.55508542e+00  2.73715505e+00  2.92171879e+00
  3.10129432e+00  3.28086984e+00  3.45545716e+00  3.62505627e+00
  3.78218486e+00  3.92933703e+00  4.06152457e+00  4.17874749e+00
  4.27352346e+00  4.34585249e+00  4.39573458e+00  4.41818152e+00
  4.41319331e+00  4.38326406e+00  4.32839376e+00  4.25107652e+00
  4.15630054e+00  4.05154815e+00  3.94180755e+00  3.83456106e+00
  3.73729098e+00  3.65747963e+00  3.60260933e+00  3.57517418e+00
  3.57766829e+00  3.61258575e+00  3.67743247e+00  3.77220844e+00
  3.88943136e+00  4.02411300e+00  4.16877107e+00  4.32091145e+00
  4.46556951e+00  4.60274526e+00  4.72246228e+00  4.82222646e+00
  4.89206139e+00  4.93446117e+00  4.94443759e+00  4.92697885e+00
  4.87959087e+00  4.80975594e+00  4.71996818e+00  4.61521578e+00
  4.50048697e+00  4.38326406e+00  4.26354704e+00  4.14881823e+00
  4.03408942e+00  3.92434882e+00  3.81710232e+00  3.71234993e+00
  3.60759754e+00  3.50284515e+00  3.40308097e+00  3.30581089e+00
  3.21602313e+00  3.13870588e+00  3.07884737e+00  3.03894170e+00
  3.02397707e+00  3.03644760e+00  3.07635327e+00  3.14868230e+00
  3.24595238e+00  3.37315171e+00  3.52030388e+00  3.68990299e+00
  3.87197262e+00  4.06900688e+00  4.27102935e+00  4.47554593e+00
  4.68505071e+00  4.89455549e+00  5.09907207e+00  5.30358864e+00
  5.50311701e+00  5.70015127e+00  5.89219732e+00  6.07925516e+00
  6.26132479e+00  6.43591211e+00  6.60800533e+00  6.77261623e+00
  6.93223892e+00  7.08687340e+00  7.23651968e+00  7.37868364e+00
  7.51585939e+00  7.64555282e+00  7.77025805e+00  7.88249276e+00
  7.98724515e+00  8.07952702e+00  8.16183247e+00  8.22917329e+00
  8.28154949e+00  8.32394926e+00  8.35387852e+00  8.37133725e+00
  8.38131367e+00  8.38380777e+00  8.38380777e+00  8.38380777e+00
  8.38131367e+00  8.38380777e+00  8.38630188e+00  8.39378419e+00
  8.40625472e+00  8.41872524e+00  8.42870166e+00  8.44117218e+00
  8.44865449e+00  8.45114860e+00  8.44865449e+00  8.44117218e+00
  8.43119576e+00  8.42121934e+00  8.41124292e+00  8.40874882e+00]","[-0.92431352 -0.78252046 -0.63186533 -0.47899469 -0.33055508 -0.19097753
 -0.06247757  0.04829826  0.13691893  0.20559994  0.25212579  0.27871199
  0.28978957  0.28978957  0.28757405  0.28314302  0.28978957  0.3075137
  0.34074645  0.39170333  0.45595331  0.53571191  0.61990154  0.70852221
  0.79271184  0.87025492  0.93672042  0.99210833  1.03863418  1.08072899
  1.12282381  1.17378069  1.23803067  1.3222203   1.43078062  1.56371161
  1.71879777  1.89160807  2.07106491  2.24830624  2.40560792  2.53189236
  2.61608199  2.64266819  2.60943544  2.51195271  2.35465103  2.14417696
  1.8960391   1.62353056  1.34659098  1.08072899  0.84588423  0.65313429
  0.51134123  0.4271516   0.4005654   0.4271516   0.49804813  0.60882396
  0.74618599  0.90127215  1.06300486  1.22030654  1.36874615  1.50167715
  1.60802194  1.68999606  1.74095294  1.75646155  1.74095294  1.68999606
  1.60580643  1.48616853  1.33772892  1.15827207  0.95444455  0.72624634
  0.47810848  0.21446201 -0.06026205 -0.33941714 -0.61857223 -0.89108077
 -1.15029621 -1.39178752 -1.60890815 -1.79722706 -1.95231322 -2.07195112
 -2.15835626 -2.20488211 -2.21817521 -2.19823556 -2.1494942  -2.07416663
 -1.9766839  -1.86147704 -1.72854605 -1.58675298 -1.43831337 -1.28322721
 -1.12814105 -0.9752704  -0.82683079 -0.68946876 -0.56761535 -0.46348607
 -0.38151196 -0.32612404 -0.30396888 -0.31504646 -0.36821886 -0.46127055
 -0.59641707 -0.77808943 -1.0018566  -1.26771859 -1.57345988 -1.91464944
 -2.28685623 -2.6834337  -3.10216633 -3.53419207 -3.97064884 -4.40932112
 -4.84134686 -5.26007949 -5.65887248 -6.0355103  -6.38113089 -6.69351873
 -6.9704583  -7.20973409 -7.40913059 -7.5708633  -7.69493223 -7.78133737
 -7.83450977 -7.85666494]",8.371706748543504,1.3761681311231257,4.009455,
038,1,2,csm,65a.png,1,1,220,302,219,1,1,434,neu_feedback_onset,14,"[-9.73550567e-01 -9.40217948e-01 -8.83076315e-01 -8.04506570e-01
 -7.09270516e-01 -5.99749053e-01 -4.80703985e-01 -3.49754410e-01
 -2.14043032e-01 -7.59507534e-02  6.69033283e-02  2.07376509e-01
  3.43087886e-01  4.74037461e-01  5.95463431e-01  7.07365795e-01
  8.02601849e-01  8.85933397e-01  9.50217733e-01  9.97835761e-01
  1.02640658e+00  1.04307289e+00  1.04307289e+00  1.03593018e+00
  1.02164477e+00  1.00021666e+00  9.78788550e-01  9.54979536e-01
  9.31170523e-01  9.02599706e-01  8.66886186e-01  8.24029961e-01
  7.66888329e-01  6.97842189e-01  6.12129740e-01  5.09750982e-01
  3.95467716e-01  2.71660845e-01  1.38330369e-01  2.61899150e-03
 -1.35473287e-01 -2.68803764e-01 -3.97372437e-01 -5.23560209e-01
 -6.44986179e-01 -7.66412148e-01 -8.87838118e-01 -1.01402589e+00
 -1.14497546e+00 -1.28544865e+00 -1.43068363e+00 -1.58306132e+00
 -1.73781990e+00 -1.89495939e+00 -2.04971798e+00 -2.19733387e+00
 -2.33542615e+00 -2.46161392e+00 -2.57351628e+00 -2.67113324e+00
 -2.74970298e+00 -2.81636822e+00 -2.86398625e+00 -2.89969977e+00
 -2.92350878e+00 -2.93779419e+00 -2.94017509e+00 -2.93779419e+00
 -2.92827058e+00 -2.91398518e+00 -2.89969977e+00 -2.88065256e+00
 -2.86398625e+00 -2.84731994e+00 -2.83303453e+00 -2.82351092e+00
 -2.81874912e+00 -2.82113002e+00 -2.83065363e+00 -2.84970084e+00
 -2.87827166e+00 -2.91874698e+00 -2.96874591e+00 -3.03541115e+00
 -3.11398089e+00 -3.20921695e+00 -3.31397661e+00 -3.43302167e+00
 -3.56397125e+00 -3.69968263e+00 -3.84015581e+00 -3.97824809e+00
 -4.11157856e+00 -4.23776633e+00 -4.34966870e+00 -4.44252385e+00
 -4.51395089e+00 -4.56394982e+00 -4.58775883e+00 -4.58775883e+00
 -4.56633072e+00 -4.52347450e+00 -4.46395196e+00 -4.39014402e+00
 -4.30681247e+00 -4.21871912e+00 -4.13062577e+00 -4.04253242e+00
 -3.95920087e+00 -3.88063113e+00 -3.80682319e+00 -3.73539615e+00
 -3.66635001e+00 -3.59492297e+00 -3.51635322e+00 -3.43064077e+00
 -3.33302382e+00 -3.21635965e+00 -3.08302917e+00 -2.92827058e+00
 -2.75446479e+00 -2.55684997e+00 -2.34018795e+00 -2.10447871e+00
 -1.85210317e+00 -1.58782312e+00 -1.31401946e+00 -1.03545400e+00
 -7.59269444e-01 -4.85465788e-01 -2.23566638e-01  2.64280051e-02
  2.57375437e-01  4.71656560e-01  6.62128669e-01  8.28791764e-01
  9.74026747e-01  1.09783362e+00  1.20259328e+00  1.29068663e+00
  1.36449457e+00  1.42639801e+00  1.48115874e+00  1.52877676e+00
  1.57163299e+00  1.61210831e+00  1.65258364e+00  1.68829716e+00
  1.72162977e+00  1.75020059e+00  1.77162870e+00  1.78353321e+00
  1.78353321e+00  1.76686690e+00  1.73115338e+00  1.67639265e+00
  1.59782290e+00  1.49544415e+00  1.36925637e+00  1.22164049e+00
  1.05259649e+00  8.69267087e-01  6.71652274e-01  4.64513856e-01
  2.57375437e-01  5.49988215e-02 -1.40235090e-01 -3.18802692e-01
 -4.75942182e-01 -6.09272658e-01 -7.16413220e-01 -7.92602063e-01
 -8.42600992e-01 -8.64029104e-01 -8.61648203e-01 -8.42600992e-01
 -8.11649274e-01 -7.78316655e-01 -7.49745839e-01 -7.33079529e-01
 -7.40222233e-01 -7.73554852e-01 -8.42600992e-01 -9.42598849e-01
 -1.08069113e+00 -1.25211603e+00 -1.45211174e+00 -1.67353557e+00
 -1.90924480e+00 -2.14971584e+00 -2.38542507e+00 -2.61161070e+00
 -2.81874912e+00 -3.00207853e+00 -3.15921802e+00 -3.28778669e+00
 -3.38778455e+00 -3.46159249e+00 -3.51159142e+00 -3.54254314e+00
 -3.55682854e+00 -3.55682854e+00 -3.54730494e+00 -3.52587683e+00
 -3.49968691e+00 -3.46397339e+00 -3.41873627e+00 -3.36397553e+00
 -3.29731030e+00 -3.21635965e+00 -3.12112359e+00 -3.00684033e+00
 -2.87589075e+00 -2.72589397e+00 -2.55684997e+00 -2.36875876e+00
 -2.16638215e+00 -1.94733922e+00 -1.71639179e+00 -1.47592075e+00
 -1.23068791e+00 -9.83074172e-01 -7.35460431e-01 -4.90227590e-01
 -2.52137454e-01 -2.35709235e-02  1.95472002e-01  4.02610420e-01
  6.00225233e-01  7.83554638e-01  9.54979536e-01  1.11688083e+00
  1.26211581e+00  1.39544629e+00  1.51449136e+00  1.61448921e+00
  1.69543986e+00  1.75020059e+00  1.77877141e+00  1.78115231e+00
  1.75020059e+00  1.68591625e+00  1.59306110e+00  1.47163513e+00
  1.32163835e+00  1.15259435e+00  9.66884043e-01  7.71650131e-01
  5.69273516e-01  3.66896900e-01  1.69282087e-01 -2.11900221e-02
 -2.02138526e-01 -3.71182522e-01 -5.28322012e-01 -6.73556995e-01
 -8.04506570e-01 -9.23551638e-01 -1.03307310e+00 -1.13069006e+00]","[-2.58656255 -2.23404106 -1.87130156 -1.50345305 -1.14071355 -0.78819206
 -0.4561066  -0.14956618  0.1288747   0.37155254  0.58102183  0.75217356
  0.89011675  0.9948514   1.0714865   1.12513108  1.16344863  1.19154817
  1.2145387   1.24519274  1.2860648   1.34481838  1.4316715   1.54662416
  1.69989437  1.89148214  2.12138745  2.39471933  2.70636876  3.05378124
  3.42929326  3.8252413   4.23140737  4.64012793  5.03863048  5.4141425
  5.75900047  6.0655409   6.32354575  6.52535153  6.67351274  6.76036586
  6.7910199   6.76292036  6.68628525  6.56111458  6.39762636  6.20092958
  5.98124228  5.74878246  5.50610462  5.26598129  5.03352147  4.81894318
  4.62480091  4.45875818  4.325924    4.22374385  4.15988127  4.12922722
  4.13433623  4.17265378  4.23907088  4.331033    4.44343116  4.56860183
  4.70143601  4.83171569  4.95688637  5.06928452  5.15869215  5.22000023
  5.24809977  5.23532725  5.17912817  5.07694803  4.93134133  4.73975357
  4.50729375  4.23907088  3.94530297  3.63365354  3.3117861   2.99247316
  2.68337823  2.39216483  2.13160547  1.89914565  1.70500338  1.54662416
  1.42400799  1.33204586  1.27329228  1.23752923  1.22220221  1.22475672
  1.24008374  1.26562877  1.29628281  1.33204586  1.37036342  1.40868097
  1.44699852  1.48531608  1.51597012  1.54406966  1.55939668  1.56195118
  1.55173317  1.52363363  1.47765256  1.41123547  1.32949136  1.23242023
  1.12257657  1.00506941  0.88500775  0.77005509  0.66532044  0.57335832
  0.50183222  0.45074215  0.42775162  0.43030612  0.45840566  0.51205023
  0.59123984  0.69086548  0.81092714  0.94631583  1.09703154  1.25796526
  1.42656249  1.60282324  1.78163848  1.96300823  2.14437798  2.32063873
  2.49434497  2.65783319]",0.9978952831963049,4.687897145470065,4.20009,-0.09634999999999971
038,2,2,csp,22b.png,1,1,188,230,NaN,0,1,435,neg_feedback_onset,1,"[-1.81833117e+00 -1.51149081e+00 -1.21673077e+00 -9.36467132e-01
 -6.75532018e-01 -4.33925431e-01 -2.16479502e-01 -2.31942324e-02
  1.45930379e-01  2.86062199e-01  4.04449427e-01  4.98675996e-01
  5.71157972e-01  6.24311421e-01  6.65384541e-01  6.94377332e-01
  7.13705858e-01  7.30618320e-01  7.42698649e-01  7.54778978e-01
  7.64443242e-01  7.71691439e-01  7.78939637e-01  7.81355703e-01
  7.78939637e-01  7.71691439e-01  7.57195044e-01  7.33034385e-01
  7.01625529e-01  6.60552409e-01  6.12231092e-01  5.59077643e-01
  4.98675996e-01  4.35858283e-01  3.73040571e-01  3.12638924e-01
  2.54653343e-01  2.03915960e-01  1.62842840e-01  1.29017918e-01
  1.02441193e-01  8.55287319e-02  7.58644684e-02  7.10323366e-02
  6.62002049e-02  6.37841390e-02  5.65359414e-02  4.20395462e-02
  2.27110192e-02 -6.28177127e-03 -4.25227593e-02 -8.60119450e-02
 -1.36749328e-01 -1.89902778e-01 -2.45472293e-01 -2.98625742e-01
 -3.49363125e-01 -3.92852311e-01 -4.29093299e-01 -4.55670023e-01
 -4.72582484e-01 -4.79830682e-01 -4.74998550e-01 -4.62918221e-01
 -4.41173628e-01 -4.09764772e-01 -3.66275586e-01 -3.13122137e-01
 -2.50304424e-01 -1.72990316e-01 -8.11798133e-02  2.51270851e-02
  1.48346445e-01  2.88478265e-01  4.47938613e-01  6.24311421e-01
  8.20012757e-01  1.03021049e+00  1.25490461e+00  1.48926300e+00
  1.73570172e+00  1.98455651e+00  2.23582736e+00  2.48709821e+00
  2.73353693e+00  2.97514351e+00  3.20950190e+00  3.43902816e+00
  3.66372229e+00  3.88358428e+00  4.10103021e+00  4.31847614e+00
  4.53592207e+00  4.75336800e+00  4.97081392e+00  5.18584379e+00
  5.39604152e+00  5.59657499e+00  5.78502812e+00  5.95656880e+00
  6.11119702e+00  6.24649670e+00  6.36246787e+00  6.45911050e+00
  6.54125674e+00  6.61615478e+00  6.69105282e+00  6.77078300e+00
  6.86500957e+00  6.98098073e+00  7.12352862e+00  7.29748536e+00
  7.50285096e+00  7.73720935e+00  7.99331233e+00  8.26874384e+00
  8.54900748e+00  8.82202292e+00  9.08054197e+00  9.31248430e+00
  9.51060170e+00  9.66764598e+00  9.78120107e+00  9.85609912e+00
  9.89234010e+00  9.89475617e+00  9.87301158e+00  9.83193846e+00
  9.77878501e+00  9.71596730e+00  9.65073352e+00  9.58308367e+00
  9.51301776e+00  9.43811972e+00  9.35597348e+00  9.26416298e+00
  9.16027215e+00  9.04430098e+00  8.91141736e+00  8.76645341e+00
  8.60699306e+00  8.43303632e+00  8.24699925e+00  8.05371398e+00
  7.85318051e+00  7.64539884e+00  7.43278505e+00  7.22017125e+00
  7.00514139e+00  6.79011153e+00  6.57749773e+00  6.36730000e+00
  6.16193440e+00  5.96381700e+00  5.77294779e+00  5.59657499e+00
  5.43469857e+00  5.29215069e+00  5.17134739e+00  5.07470476e+00
  5.00463885e+00  4.96114966e+00  4.94906933e+00  4.96598179e+00
  5.00947098e+00  5.07953689e+00  5.17134739e+00  5.28007036e+00
  5.40570578e+00  5.54100547e+00  5.68113729e+00  5.82610124e+00
  5.96623306e+00  6.10394882e+00  6.23200031e+00  6.35038754e+00
  6.45669444e+00  6.54367281e+00  6.61373872e+00  6.65964397e+00
  6.68138856e+00  6.67414036e+00  6.63306724e+00  6.55575314e+00
  6.44219804e+00  6.28998589e+00  6.09428455e+00  5.86234223e+00
  5.58691072e+00  5.27040609e+00  4.91282834e+00  4.51659354e+00
  4.08170168e+00  3.60815277e+00  3.09836287e+00  2.55474805e+00
  1.98214044e+00  1.38778824e+00  7.78939637e-01  1.62842840e-01
 -4.46005760e-01 -1.03794190e+00 -1.60088525e+00 -2.12033941e+00
 -2.58664012e+00 -2.99012312e+00 -3.32354021e+00 -3.58205926e+00
 -3.76568027e+00 -3.87440323e+00 -3.90822815e+00 -3.87440323e+00
 -3.77292847e+00 -3.61588418e+00 -3.40568645e+00 -3.15199954e+00
 -2.85482343e+00 -2.52382241e+00 -2.16382859e+00 -1.77725806e+00
 -1.36894292e+00 -9.43715329e-01 -5.06407407e-01 -6.18512863e-02
  3.85120900e-01  8.29677020e-01  1.26698494e+00  1.69462860e+00
  2.10535980e+00  2.49676247e+00  2.86642055e+00  3.20708584e+00
  3.52117440e+00  3.80143804e+00  4.04787676e+00  4.26049056e+00
  4.43927943e+00  4.58424338e+00  4.69779848e+00  4.77994472e+00
  4.83793030e+00  4.87658736e+00  4.89833195e+00  4.90799621e+00
  4.91041228e+00  4.90558015e+00  4.89591588e+00  4.87900342e+00
  4.85242670e+00  4.81376964e+00  4.75820013e+00  4.68088602e+00
  4.58182732e+00  4.45860796e+00  4.31122794e+00  4.13968726e+00
  3.94881806e+00  3.74103640e+00  3.52117440e+00  3.29406421e+00]","[-1.15677417 -1.03754229 -0.92056007 -0.80807717 -0.69559427 -0.58761068
 -0.47737744 -0.36939385 -0.25691095 -0.14217839 -0.02294651  0.10078468
  0.23126485  0.37074365  0.51922108  0.6789468   0.85217047  1.03664243
  1.23461234  1.45057951  1.68004463  1.92750702  2.18846735  2.46067598
  2.74638255  3.0388381   3.33579296  3.63499748  3.93195234  4.22215823
  4.49886617  4.75982651  4.9960406   5.20300914  5.37623281  5.50446332
  5.58545101  5.61469657  5.58770067  5.50446332  5.36723418  5.18051256
  4.95104744  4.68783745  4.39988122  4.10292636  3.80372183  3.51801526
  3.25255561  3.01859117  2.82062127  2.6631452   2.55291196  2.48992153
  2.47192427  2.50116982  2.57315888  2.68564178  2.83411921  3.01409186
  3.22555971  3.45727449  3.71148585  3.9769455   4.25140379  4.52586207
  4.79357138  5.04553308  5.27049888  5.45947016  5.60344828  5.69118494
  5.72268015  5.69118494  5.5966993   5.44372255  5.24125333  4.99829026
  4.72383198  4.43137643  4.13217191  3.83296739  3.54501116  3.26605356
  3.00059391  2.74413289  2.49217119  2.2447088   1.99049744  1.72728745
  1.45282917  1.16487294  0.86566842  0.55521561  0.23801382 -0.08143762
 -0.39863941 -0.70684256 -1.00154776 -1.28050536 -1.53471672 -1.76418184
 -1.96890073 -2.1421244  -2.28835217 -2.40533439 -2.49532071 -2.55831114
 -2.59880498 -2.61680225 -2.61680225 -2.60105464 -2.56955943 -2.52231661
 -2.4638255  -2.39183644 -2.30859909 -2.21411345 -2.11287884 -2.00489526
 -1.89241235 -1.78217911 -1.67644518 -1.57746023 -1.49647254 -1.43348211
 -1.39523792 -1.38623929 -1.41323519 -1.48072493 -1.58870852 -1.74168526
 -1.94190483 -2.18711756 -2.47507379 -2.80352386 -3.16796847 -3.55940897
 -3.96884674 -4.38728313]",8.682374316253359,3.739437855445948,4.13896,
038,2,2,csm,10a.png,1,1,292,51,291,1,1,327,neu_feedback_onset,2,"[-5.35050584e-01 -4.62903703e-01 -3.93084140e-01 -3.25591895e-01
 -2.60426970e-01 -2.02244001e-01 -1.46388350e-01 -9.75146563e-02
 -5.32955997e-02 -1.14038620e-02  3.04878758e-02  7.00522949e-02
  1.09616714e-01  1.56163089e-01  2.05036783e-01  2.58565115e-01
  3.16748084e-01  3.79585691e-01  4.47077935e-01  5.14570179e-01
  5.84389742e-01  6.51881986e-01  7.19374231e-01  7.82211837e-01
  8.42722125e-01  8.96250457e-01  9.47451470e-01  9.89343207e-01
  1.02425299e+00  1.04985350e+00  1.06149009e+00  1.05683545e+00
  1.03123495e+00  9.84688570e-01  9.12541688e-01  8.14794300e-01
  6.89119087e-01  5.37843367e-01  3.63294459e-01  1.67799683e-01
 -3.93316871e-02 -2.55772332e-01 -4.74540296e-01 -6.90980942e-01
 -8.95784993e-01 -1.08662513e+00 -1.26117404e+00 -1.41710440e+00
 -1.55441620e+00 -1.67543678e+00 -1.77783881e+00 -1.86860424e+00
 -1.94540576e+00 -2.01057068e+00 -2.06642633e+00 -2.11297271e+00
 -2.15253713e+00 -2.18279227e+00 -2.20606546e+00 -2.22235669e+00
 -2.22933865e+00 -2.22933865e+00 -2.22235669e+00 -2.21072010e+00
 -2.19442886e+00 -2.17581031e+00 -2.15951908e+00 -2.14788249e+00
 -2.14090053e+00 -2.14322785e+00 -2.15719176e+00 -2.18511959e+00
 -2.23166596e+00 -2.29915821e+00 -2.38526900e+00 -2.49232567e+00
 -2.61800088e+00 -2.76462196e+00 -2.92520696e+00 -3.09742855e+00
 -3.28128673e+00 -3.47212687e+00 -3.66529432e+00 -3.85846178e+00
 -4.05162924e+00 -4.24246938e+00 -4.43098220e+00 -4.61251306e+00
 -4.79404393e+00 -4.96859283e+00 -5.13848710e+00 -5.30139942e+00
 -5.45965709e+00 -5.60860549e+00 -5.74824462e+00 -5.87624715e+00
 -5.99261309e+00 -6.09501512e+00 -6.18112591e+00 -6.25094547e+00
 -6.30447380e+00 -6.34171091e+00 -6.36498409e+00 -6.37429337e+00
 -6.36731141e+00 -6.35102018e+00 -6.32076504e+00 -6.28120062e+00
 -6.22767229e+00 -6.16250736e+00 -6.08337852e+00 -5.99261309e+00
 -5.88322911e+00 -5.76220853e+00 -5.62256941e+00 -5.46896637e+00
 -5.30139942e+00 -5.11986855e+00 -4.92670110e+00 -4.72422436e+00
 -4.51709299e+00 -4.30530698e+00 -4.09352098e+00 -3.88406229e+00
 -3.68158556e+00 -3.48376346e+00 -3.29757796e+00 -3.12302905e+00
 -2.95778942e+00 -2.80418638e+00 -2.66221994e+00 -2.52723545e+00
 -2.39923292e+00 -2.27588502e+00 -2.15253713e+00 -2.03151655e+00
 -1.90816866e+00 -1.78249344e+00 -1.65216359e+00 -1.52183374e+00
 -1.38917657e+00 -1.25419208e+00 -1.12386223e+00 -9.95859700e-01
 -8.72511805e-01 -7.58473186e-01 -6.49089204e-01 -5.49014497e-01
 -4.58249065e-01 -3.74465589e-01 -2.99991389e-01 -2.34826463e-01
 -1.78970813e-01 -1.34751757e-01 -1.04496613e-01 -9.05327000e-02
 -9.75146563e-02 -1.25442481e-01 -1.81298132e-01 -2.62754289e-01
 -3.69810952e-01 -5.04795440e-01 -6.60725798e-01 -8.35274705e-01
 -1.02611484e+00 -1.22160962e+00 -1.42175903e+00 -1.61958113e+00
 -1.80809395e+00 -1.98729749e+00 -2.15020981e+00 -2.29915821e+00
 -2.43414270e+00 -2.55050864e+00 -2.65291066e+00 -2.73902146e+00
 -2.81116834e+00 -2.87167863e+00 -2.91589768e+00 -2.94615283e+00
 -2.95778942e+00 -2.95313478e+00 -2.92753428e+00 -2.88098790e+00
 -2.80884102e+00 -2.70876631e+00 -2.58309110e+00 -2.42948806e+00
 -2.24562988e+00 -2.03617119e+00 -1.80111199e+00 -1.54277961e+00
 -1.26350136e+00 -9.65604556e-01 -6.56071160e-01 -3.34901170e-01
 -4.42190566e-03  3.33039315e-01  6.72827855e-01  1.01494371e+00
  1.35938689e+00  1.70150275e+00  2.04361861e+00  2.38107983e+00
  2.71621373e+00  3.04436568e+00  3.36786299e+00  3.68437834e+00
  3.99158442e+00  4.29180854e+00  4.58272338e+00  4.86665627e+00
  5.14593452e+00  5.41823082e+00  5.68819980e+00  5.95816877e+00
  6.23046507e+00  6.50276136e+00  6.77738498e+00  7.05666323e+00
  7.33594148e+00  7.61754705e+00  7.89915262e+00  8.17377624e+00
  8.44607253e+00  8.70673223e+00  8.95808266e+00  9.19546918e+00
  9.42121910e+00  9.63533242e+00  9.83780916e+00  1.00309766e+01
  1.02218168e+01  1.04173115e+01  1.06221156e+01  1.08455382e+01
  1.10922340e+01  1.13715122e+01  1.16880276e+01  1.20371254e+01
  1.24188057e+01  1.28237591e+01  1.32333672e+01  1.36313387e+01
  1.39967278e+01  1.42992792e+01  1.45180472e+01  1.46297585e+01
  1.46134673e+01  1.44575369e+01  1.41573128e+01  1.37104676e+01
  1.31286379e+01  1.24234603e+01  1.16205353e+01  1.07361542e+01
  9.80057205e+00  8.83473477e+00  7.86191552e+00  6.90538751e+00]","[ 0.55194548  0.49677492  0.42721204  0.34805428  0.25930164  0.16815028
  0.07460019 -0.01415245 -0.10050637 -0.17486669 -0.23723341 -0.28520781
 -0.31399245 -0.32358733 -0.30919501 -0.27321421 -0.21324621 -0.13168973
 -0.03334221  0.08419507  0.21132724  0.34805428  0.48478132  0.61671092
  0.74144437  0.85658293  0.95493045  1.03648693  1.10365109  1.15402421
  1.19240373  1.22118837  1.24277685  1.26196661  1.2835551   1.3075423
  1.33872566  1.37470646  1.41788342  1.4634591   1.50903478  1.55221174
  1.59059126  1.61697718  1.62897078  1.62657206  1.60498358  1.56420534
  1.50903478  1.43707318  1.35311798  1.26436533  1.17561269  1.08925877
  1.01729717  0.95972789  0.92854453  0.92134837  0.94533557  1.00290485
  1.09405621  1.21639093  1.37230774  1.55461046  1.75850166  1.98398135
  2.22145463  2.46612408  2.71079352  2.95306424  3.18574009  3.40162489
  3.59831994  3.77102778  3.91495098  4.03008954  4.11404475  4.16201915
  4.17641147  4.15962043  4.10924731  4.03248826  3.93174202  3.81180602
  3.6774777   3.53595322  3.39682745  3.26010041  3.13536697  3.02742457
  2.93867192  2.8763052   2.83552696  2.82353336  2.83552696  2.86910904
  2.92667832  2.99863993  3.08499385  3.18334137  3.28648633  3.39203001
  3.50237113  3.61031354  3.71825594  3.82619834  3.93653946  4.0492793
  4.16441787  4.28675259  4.41388475  4.54581435  4.6825414   4.82406588
  4.96559036  5.10471612  5.24144317  5.37097405  5.49330877  5.60604861
  5.70679485  5.79794622  5.87470526  5.94186942  5.99703998  6.04021694
  6.07619774  6.10258366  6.12417214  6.1433619   6.16015294  6.1793427
  6.19853246  6.22491838  6.25610174  6.29208254  6.33525951  6.38803135
  6.44560063  6.50796735]",11.642962219788185,6.114234587281384,4.29679,-0.1039099999999995
038,2,2,csp,57b.png,1,1,212,234,212,1,1,269,pos_feedback_onset,3,"[  1.75863815   1.6243649    1.46278185   1.27388897   1.06451374
   0.83693197   0.59797111   0.35445861   0.11094611  -0.12573893
  -0.34421743  -0.54448939  -0.71972736  -0.86310387  -0.97689476
  -1.0588242   -1.11116801  -1.12937455  -1.1225471   -1.08840983
  -1.02923857  -0.94958495  -0.85172479  -0.7379339   -0.61503974
  -0.48304231  -0.3533207   -0.23042655  -0.12346311  -0.03698204
   0.01763759   0.03584413   0.01536177  -0.05063694  -0.16215201
  -0.31235598  -0.49897304  -0.7128999   -0.94958495  -1.19537326
  -1.44116158  -1.67784662  -1.89177349  -2.08066636  -2.23314615
  -2.34921285  -2.42431484  -2.46072792  -2.4584521   -2.42659065
  -2.37197103  -2.30142068  -2.22631869  -2.15576834  -2.0988729
  -2.06473564  -2.06473564  -2.10114872  -2.17852652  -2.30142068
  -2.46755537  -2.67920642  -2.92954637  -3.21857522  -3.53946552
  -3.88538982  -4.25179647  -4.63413385  -5.02329868  -5.41473933
  -5.80390417  -6.18624154  -6.55947565  -6.92133067  -7.2718066
  -7.60862763  -7.93406956  -8.24813241  -8.5553678   -8.85577574
  -9.14935623  -9.43838508  -9.72513811 -10.00506369 -10.27816182
 -10.5444325  -10.79704826 -11.03373331 -11.24993599 -11.44110468
 -11.60723938 -11.74151262 -11.84392442 -11.91447477 -11.95088785
 -11.95771531 -11.93723295 -11.89171659 -11.8279937  -11.74378844
 -11.6482041  -11.54124066 -11.42289814 -11.29772816 -11.16573074
 -11.02690586 -10.88125352 -10.72877373 -10.57174231 -10.41015925
 -10.25085201 -10.09382059  -9.94361662  -9.80706755  -9.68417339
  -9.5817616   -9.50210798  -9.44748835  -9.4156269   -9.40652363
  -9.42017854  -9.4543158   -9.50665961  -9.57038251  -9.64776031
  -9.73424138  -9.82754991  -9.92541007 -10.02782187 -10.13478531
 -10.24402456 -10.35781544 -10.47615796 -10.59905212 -10.72649791
 -10.85849534 -10.99732022 -11.14297256 -11.29317653 -11.45248377
 -11.61634265 -11.78475316 -11.95543949 -12.12385    -12.28770888
 -12.44701612 -12.59494427 -12.73149333 -12.85211167 -12.95907511
 -13.05010782 -13.1252098  -13.18665688 -13.23444905 -13.26858632
 -13.2913445  -13.30044777 -13.29589613 -13.27768959 -13.24355232
 -13.1889327  -13.1115549  -13.01369473 -12.88852476 -12.74059661
 -12.56991028 -12.37646577 -12.16709054 -11.94178458 -11.70509954
 -11.46158704 -11.21352291 -10.96773459 -10.72649791 -10.48753705
 -10.25312783 -10.02327024  -9.79796428  -9.57493414  -9.34962819
  -9.12204642  -8.88536137  -8.64184887  -8.38923311  -8.12296243
  -7.84303685  -7.54945636  -7.24449679  -6.93043394  -6.61181946
  -6.29092916  -5.9745905   -5.66963092  -5.37605043  -5.1029523
  -4.85261235  -4.6273064   -4.42703444  -4.25179647  -4.1015925
  -3.96959508  -3.85125255  -3.74428912  -3.64415314  -3.54174134
  -3.43932954  -3.32781448  -3.20492032  -3.07064707  -2.91816728
  -2.74975677  -2.5608639   -2.35376449  -2.12845853  -1.88267022
  -1.62095118  -1.34785305  -1.06565165  -0.7766228   -0.48986977
  -0.20766837   0.06542976   0.32487298   0.56610966   0.7891398
   0.98941176   1.16464972   1.31712951   1.44685112   1.55381455
   1.63801981   1.69946689   1.74498324   1.77229306   1.78367215
   1.78139633   1.77001724   1.74953488   1.72222507   1.69036362
   1.65622635   1.61526163   1.5720211    1.52195311   1.46050603
   1.38540404   1.29209552   1.17147718   1.02354902   0.83920779
   0.61845347   0.36128606   0.06770558  -0.25773636  -0.61048811
