sub,run,cat_cond,trial_type,picture,old,response_old,target_pos,response_pos,dot_resp_loc,cat_corr,TN_corr,TN_rt,feedback_type,trial,SP_timeseries,FB_timeseries,SP_peak_response,FB_peak_response,preStim_bl,anticipation
017,1,1,csp,27a.png,1,1,192,248,192,1,1,315,pos_feedback_onset,1,"[-1.75436979 -1.55389672 -1.36724938 -1.18981919 -1.01930187 -0.84878455
 -0.67826722 -0.50544561 -0.32801542 -0.14597666  0.04067069  0.2319266
  0.4277911   0.62365559  0.82182437  1.02229744  1.22968338  1.44167789
  1.66058527  1.89101408  2.13066005  2.38182746  2.63990774  2.90720516
  3.17680688  3.44640859  3.71140173  3.9717863   4.22295371  4.46259967
  4.69533278  4.92115302  5.14236468  5.36357635  5.5870923   5.81752112
  6.0548628   6.30603021  6.56411048  6.8337122   7.10792249  7.38674136
  7.66556022  7.93977052  8.20706794  8.46053964  8.69788132  8.91909299
  9.12187034  9.3062134   9.47212215  9.62420516  9.76476674  9.89380688
 10.01593415 10.13575714 10.25558012 10.37540311 10.49983467 10.63117909
 10.76943638 10.91230225 11.06208098 11.21646829 11.37315988 11.5252429
 11.67502163 11.8178875  11.95153621 12.07596777 12.19348647 12.30639659
 12.421611   12.54373827 12.68199556 12.84099144 13.02994307 13.25345902
 13.5115393  13.8041839  14.12908853 14.47703604 14.84111357 15.20979968
 15.57157292 15.91721614 16.23290362 16.5094182  16.74445559 16.93340722
 17.07166451 17.16614033 17.21913896 17.23757326 17.23296469 17.2099218
 17.17996606 17.15001031 17.12696743 17.11544599 17.12005457 17.13848887
 17.17305319 17.22144324 17.27905045 17.34587481 17.41730774 17.49565354
 17.57860791 17.66617086 17.76064668 17.86203535 17.96803261 18.08094273
 18.19846143 18.31828441 18.43580311 18.54871323 18.65471048 18.75149059
 18.83674925 18.91279076 18.97731083 19.03491803 19.08561237 19.13400242
 19.18008819 19.22617395 19.274564   19.32295405 19.37364839 19.42664702
 19.48194993 19.53494856 19.59025148 19.64094582 19.68933587 19.73311734
 19.77229024 19.80685457 19.83450602 19.85524462 19.87137463 19.88520036
 19.89441752 19.90363467 19.91515611 19.93128613 19.95432901 19.98889333
 20.03728338 20.10180345 20.18706211 20.28845079 20.40596949 20.53500963
 20.66404976 20.78848132 20.89447858 20.97052009 21.01430156 21.01430156
 20.97743295 20.90600002 20.80921992 20.70322266 20.59722541 20.51196674
 20.45435954 20.43822952 20.46357669 20.53270534 20.63870259 20.7746556
 20.9290429  21.08803879 21.24473038 21.38759625 21.50972352 21.6111122
 21.68715371 21.73784805 21.77010808 21.78393381 21.78162952 21.77010808
 21.7470652  21.71710945 21.68254513 21.64106795 21.59728647 21.553505
 21.50972352 21.47285491 21.44750774 21.43829059 21.44981203 21.48668064
 21.553505   21.6502851  21.77010808 21.91297395 22.06736126 22.22405285
 22.37613587 22.51439316 22.62960757 22.72408338 22.79090774 22.83238493
 22.85081923 22.84851494 22.82777635 22.78860345 22.73330054 22.65265045
 22.54895748 22.41300448 22.24479144 22.03510122 21.78854239 21.50511494
 21.18942747 20.84839282 20.49583673 20.13636777 19.78842026 19.45660276
 19.15474102 18.8851393  18.65471048 18.46115028 18.30676297 18.1846357
 18.09015988 18.01642266 17.95651117 17.90351254 17.85512249 17.80673244
 17.75834239 17.71456091 17.67999659 17.66617086 17.68460517 17.74451666
 17.85742678 18.03485697 18.27680722 18.58558184 18.94965937 19.3529098
 19.77459453 20.18706211 20.55805251 20.85530568 21.05117018 21.11799453
 21.04425731 20.81843707]","[ -2.39290625  -2.19297453  -1.9675196   -1.72079535  -1.45918256
  -1.18906203  -0.91468764  -0.64456712  -0.3808274   -0.12346848
   0.12750965   0.37423391   0.61883123   0.86768242   1.12291441
   1.38878107   1.66953625   1.96517998   2.26933143   2.58199062
   2.89464981   3.19880126   3.48168338   3.73691537   3.9496087
   4.11125562   4.21334842   4.25588709   4.23249082   4.14528656
   4.00278203   3.81135804   3.57952231   3.31365566   3.02651967
   2.72236821   2.40970902   2.09279597   1.77375598   1.454716
   1.13780294   0.82088989   0.5082307    0.19344458  -0.11708768
  -0.42761993  -0.73389832  -1.04017671  -1.34007429  -1.63571802
  -1.922854    -2.20148226  -2.46522198  -2.71832704  -2.9522897
  -3.17136382  -3.37554941  -3.56484647  -3.74138193  -3.91153659
  -4.07743739  -4.24333818  -4.41349284  -4.5900283   -4.77294456
  -4.96649548  -5.16642721  -5.3706128   -5.58117919  -5.79174558
  -6.00443891  -6.2150053   -6.42557169  -6.63401115  -6.84032368
  -7.0466362   -7.25294873  -7.46138819  -7.67408151  -7.88890177
  -8.10372203  -8.32066922  -8.53548948  -8.74605587  -8.94811453
  -9.14166545  -9.32670865  -9.49899024  -9.6627641   -9.81803023
  -9.96691555 -10.11367395 -10.25830541 -10.4050638  -10.54756833
 -10.68794592 -10.81981579 -10.94105098 -11.04314378 -11.12396724
 -11.17714057 -11.20053684 -11.19415604 -11.15799817 -11.09206324
 -11.00485898 -10.89425845 -10.77302325 -10.64115339 -10.50502967
 -10.37103287 -10.24128994 -10.11792781 -10.00945422  -9.91161529
  -9.82866489  -9.76485689  -9.71806436  -9.69254116  -9.68616036
  -9.69892196  -9.73082596  -9.78187236  -9.84993422  -9.92863075
 -10.01796195 -10.11367395 -10.21151288 -10.30935181 -10.4050638
 -10.49864887 -10.590107   -10.67943819 -10.77089632 -10.86873525
 -10.97720885 -11.09844404 -11.2366947  -11.40046856 -11.59189256]",21.704839120361033,1.9906500014356638,4.339735,0.11370000000000058
017,1,1,csp,8a.png,1,0,124,NaN,123,1,1,507,neg_feedback_onset,2,"[  5.57461035   5.26650829   4.90748026   4.49752627   4.02900743
   3.49683113   2.89845109   2.23386729   1.50562605   0.71881994
  -0.10872693  -0.96173678  -1.81983923  -2.65247869  -3.44183109
  -4.15988715  -4.79391537  -5.32863796  -5.76405493  -6.09761998
  -6.34206459  -6.51012026  -6.60942589  -6.66035185  -6.67308334
  -6.65780555  -6.62215738  -6.57632401  -6.52285175  -6.4642869
  -6.40317574  -6.33951829  -6.27840714  -6.21729598  -6.15618483
  -6.09507368  -6.03396252  -5.97794397  -5.91937911  -5.86336055
  -5.80988829  -5.75896233  -5.71567527  -5.68002709  -5.65965671
  -5.65456411  -5.6749345   -5.72586046  -5.81498089  -5.94738839
  -6.12562925  -6.35988868  -6.64762036  -6.99646319  -7.40387088
  -7.87493602  -8.40201972  -8.98512198  -9.6166039  -10.28373399
 -10.97123447 -11.66128125 -12.33350394 -12.97007845 -13.55063441
 -14.06244032 -14.49531099 -14.84924642 -15.12424661 -15.32795046
 -15.46799685 -15.55711729 -15.60804325 -15.62586733 -15.62332103
 -15.60549695 -15.58003397 -15.54693209 -15.51128392 -15.47308945
 -15.43234868 -15.39415421 -15.35341344 -15.31267267 -15.2719319
 -15.23119113 -15.19045036 -15.14970959 -15.10642253 -15.06313546
 -15.0173021  -14.96892243 -14.91799647 -14.85688532 -14.78813527
 -14.70665373 -14.6124407  -14.49785729 -14.36544979 -14.21267191
 -14.04206994 -13.85364388 -13.66012523 -13.46151398 -13.27308792
 -13.10248595 -12.95734696 -12.85294874 -12.78929129 -12.7765598
 -12.81475427 -12.9013284  -13.0388285  -13.21961566 -13.4385973
 -13.6906808  -13.96568099 -14.25850527 -14.56406104 -14.87216311
 -15.17771887 -15.47563575 -15.76082113 -16.02563613 -16.27008074
 -16.49160867 -16.69021992 -16.86336819 -17.01869237 -17.15109987
 -17.27077588 -17.3751741  -17.46938713 -17.55596127 -17.6374428
 -17.71383175 -17.78767439 -17.85642444 -17.92008189 -17.97864674
 -18.032119   -18.07795237 -18.11360054 -18.13651722 -18.14160982
 -18.12633203 -18.08813756 -18.02193381 -17.92517449 -17.79531328
 -17.62980391 -17.42864636 -17.19184064 -16.92193305 -16.62146988
 -16.30063632 -15.95943238 -15.61058954 -15.25410782 -14.90271868
 -14.55896844 -14.2254034  -13.90966244 -13.61174556 -13.33165278
 -13.06938408 -12.82239316 -12.59068004 -12.36660581 -12.14762418
 -11.92864254 -11.70456831 -11.47285519 -11.22841058 -10.96614187
 -10.68859539 -10.39322481 -10.08003015  -9.7490114   -9.40016856
  -9.04114054  -8.66938102  -8.29252891  -7.91567679  -7.54646357
  -7.18998184  -6.8538705   -6.54576843  -6.27076824  -6.03141623
  -5.83025868  -5.6672956   -5.542527    -5.45086027  -5.38974911
  -5.35664724  -5.34136945  -5.34646205  -5.36173983  -5.38720282
  -5.42030469  -5.45849916  -5.49923993  -5.542527    -5.58836036
  -5.63164743  -5.67748079  -5.72586046  -5.77169382  -5.81752719
  -5.86336055  -5.91174022  -5.95757358  -6.00340695  -6.04924031
  -6.09761998  -6.14345334  -6.18928671  -6.23512007  -6.28349973
  -6.3293331   -6.37516646  -6.42099983  -6.46937949  -6.51521286
  -6.56104622  -6.60687959  -6.65525925  -6.70109262  -6.74692598
  -6.79275935  -6.84113901  -6.88697238  -6.93280574  -6.9811854
  -7.02701877  -7.07285213  -7.1186855   -7.16706516  -7.21289853
  -7.25873189  -7.30456526  -7.35294492  -7.39877829  -7.44461165
  -7.49299131  -7.53882468  -7.58720434  -7.63558401  -7.68396367
  -7.73488963  -7.78836189  -7.84692675  -7.9080379   -7.97678795
  -8.05317689  -8.13975102  -8.23651035  -8.34600117  -8.46822347]","[-7.54195573e+00 -6.71291632e+00 -5.86084804e+00 -4.99438671e+00
 -4.12504678e+00 -3.25858545e+00 -2.40363856e+00 -1.56596333e+00
 -7.51316964e-01  4.31791358e-02  8.06010536e-01  1.54293445e+00
  2.24531506e+00  2.91603097e+00  3.55220358e+00  4.15383287e+00
  4.72091885e+00  5.25346153e+00  5.75433950e+00  6.22643139e+00
  6.67549440e+00  7.10728576e+00  7.52756268e+00  7.93920378e+00
  8.34508765e+00  8.75097153e+00  9.15685541e+00  9.56561789e+00
  9.97150177e+00  1.03716284e+01  1.07659979e+01  1.11488529e+01
  1.15173148e+01  1.18656265e+01  1.21937880e+01  1.24989205e+01
  1.27839028e+01  1.30516135e+01  1.33020524e+01  1.35438556e+01
  1.37799016e+01  1.40159475e+01  1.42606293e+01  1.45139469e+01
  1.47845361e+01  1.50723970e+01  1.53775296e+01  1.56999338e+01
  1.60338524e+01  1.63792855e+01  1.67275972e+01  1.70730303e+01
  1.74155848e+01  1.77437462e+01  1.80546360e+01  1.83482541e+01
  1.86188434e+01  1.88664038e+01  1.90851780e+01  1.92809235e+01
  1.94478828e+01  1.95860560e+01  1.96954432e+01  1.97702870e+01
  1.98077089e+01  1.98077089e+01  1.97702870e+01  1.96925646e+01
  1.95802988e+01  1.94392470e+01  1.92780448e+01  1.91110855e+01
  1.89470048e+01  1.88001957e+01  1.86850514e+01  1.86073289e+01
  1.85756642e+01  1.85871787e+01  1.86418722e+01  1.87368663e+01
  1.88664038e+01  1.90247273e+01  1.92003224e+01  1.93931892e+01
  1.95946918e+01  1.97990731e+01  2.00034543e+01  2.02049570e+01
  2.03978238e+01  2.05791761e+01  2.07403782e+01  2.08814301e+01
  2.09936958e+01  2.10714183e+01  2.11088402e+01  2.10973258e+01
  2.10339964e+01  2.09130948e+01  2.07288638e+01  2.04755462e+01
  2.01531420e+01  1.97587726e+01  1.92895593e+01  1.87455022e+01
  1.81352371e+01  1.74558853e+01  1.67189614e+01  1.59244653e+01
  1.50867901e+01  1.42145715e+01  1.33135669e+01  1.23981692e+01
  1.14798929e+01  1.05673738e+01  9.66924782e+00  8.79702928e+00
  7.95647543e+00  7.15334350e+00  6.39339071e+00  5.67949567e+00
  5.01165837e+00  4.38987881e+00  3.81127839e+00  3.27009989e+00
  2.76634330e+00  2.29425142e+00  1.85094562e+00  1.43354731e+00
  1.03629926e+00  6.67837301e-01  3.19525605e-01 -1.27835922e-14
 -2.90739515e-01 -5.52692939e-01 -7.82981663e-01 -9.81605688e-01
 -1.15144362e+00 -1.29249547e+00 -1.41051844e+00 -1.50839115e+00]",-2.247091401841317e-14,18.52960649414202,3.927270000000001,
017,1,1,csp,45a.png,1,1,284,179,3,0,1,681,neg_feedback_onset,3,"[-1.49105784 -1.45637872 -1.39569025 -1.30321259 -1.18183565 -1.02577959
 -0.83793434 -0.61829988 -0.37843594 -0.11834251  0.14753077  0.41340406
  0.66193778  0.88735209  1.07808727  1.22547355  1.32373107  1.37285983
  1.37285983  1.32373107  1.2312534   1.10987647  0.96249019  0.80065428
  0.63592844  0.47698245  0.32959618  0.20243939  0.09840201  0.02326391
 -0.02586485 -0.04898426 -0.04320441 -0.01430514  0.03771355  0.11285165
  0.20243939  0.31225661  0.43652348  0.57235005  0.71973632  0.87579238
  1.03473837  1.20235413  1.36707997  1.53469574  1.70231151  1.86703735
  2.03465311  2.19937895  2.36988465  2.54328027  2.72534567  2.91319093
  3.10970596  3.31489078  3.52585545  3.74548991  3.97090421  4.19631852
  4.42462276  4.65003706  4.87256144  5.0921959   5.30316057  5.50834539
  5.7019705   5.8840359   6.04876174  6.19614802  6.31752495  6.41289254
  6.47358101  6.4938105   6.47358101  6.41289254  6.30596524  6.15857897
  5.97651356  5.76265896  5.52857488  5.28004115  5.02572758  4.77430392
  4.53155006  4.30324582  4.09228115  3.90154597  3.72815035  3.56920436
  3.43048786  3.30044115  3.18195414  3.06924699  2.96520961  2.86117224
  2.76291472  2.6646572   2.56639969  2.47103209  2.3756645   2.28029691
  2.18203939  2.0866718   1.99130421  1.89593662  1.80056903  1.70520144
  1.60983384  1.51157633  1.41620873  1.32084114  1.22547355  1.13010596
  1.03473837  0.93937078  0.84111326  0.74574567  0.65037807  0.55501048
  0.45964289  0.3642753   0.26890771  0.17354012  0.0752826  -0.02008499
 -0.11545258 -0.21082018 -0.30618777 -0.40155536 -0.49692295 -0.58940061
 -0.68187828 -0.77146602 -0.85816383 -0.93619186 -1.00844003 -1.0691285
 -1.11825726 -1.15293638 -1.16738602 -1.16738602 -1.15004646 -1.12114719
 -1.08646806 -1.04889901 -1.01999974 -1.0055501  -1.01132996 -1.04022923
 -1.09513784 -1.17316587 -1.27142339 -1.38702047 -1.50839741 -1.63555419
 -1.76271098 -1.88408792 -1.999685   -2.1066123  -2.20486982 -2.29734748
 -2.38404529 -2.46496325 -2.54299128 -2.62101931 -2.69615741 -2.76840558
 -2.84354369 -2.91579186 -2.98804004 -3.06028821 -3.13253639 -3.20478456
 -3.27992267 -3.35217084 -3.42441902 -3.49666719 -3.56891537 -3.64116354
 -3.71341172 -3.78565989 -3.860798   -3.93304617 -4.00529435 -4.07754252
 -4.1497907  -4.22203887 -4.29428705 -4.36653522 -4.44167333 -4.5139215
 -4.58616968 -4.65841785 -4.73066603 -4.8029142  -4.87227245 -4.9416307
 -5.01098895 -5.07456734 -5.13236588 -5.17860471 -5.21617377 -5.2306234
 -5.22195362 -5.18149464 -5.10057668 -4.97052997 -4.78846457 -4.54282077
 -4.23359858 -3.86368792 -3.43019887 -2.9418012  -2.40716471 -1.83206923
 -1.23096441 -0.6096301   0.01748406  0.64748815  1.26882246  1.8728172
  2.45947239  3.02011823  3.54608494  4.03448261  4.4824213   4.88412115
  5.2424721   5.55747415  5.82912729  6.07188115  6.28862568  6.48803064
  6.68454568  6.88106072  7.08913546  7.30876992  7.54285401  7.79427766
  8.06015094  8.33758393  8.62657664  8.92134919  9.22479153  9.52823386
  9.83745606 10.14667825 10.45590044 10.76801255 11.08012467 11.39223679
 11.70723883 12.02224088 12.33724292 12.65802482 12.97880672 13.30247855
 13.63193023 13.96427183]","[ 9.57475595e-02  6.24440605e-03 -7.90958100e-02 -1.58191620e-01
 -2.26880087e-01 -2.83079741e-01 -3.26790583e-01 -3.53849676e-01
 -3.64257020e-01 -3.55931145e-01 -3.26790583e-01 -2.72672398e-01
 -1.97739525e-01 -9.36660908e-02  3.33034989e-02  1.87332182e-01
  3.64257020e-01  5.61996545e-01  7.80550757e-01  1.00951231e+00
  1.24679974e+00  1.48616864e+00  1.71929313e+00  1.94201028e+00
  2.14807568e+00  2.33332640e+00  2.49568095e+00  2.63513935e+00
  2.74962013e+00  2.84120475e+00  2.91405616e+00  2.97233728e+00
  3.01812959e+00  3.05351456e+00  3.08473659e+00  3.11387715e+00
  3.13885478e+00  3.16591387e+00  3.19089149e+00  3.21795059e+00
  3.24709115e+00  3.27415024e+00  3.30537227e+00  3.33451283e+00
  3.36365339e+00  3.39487542e+00  3.42609745e+00  3.45523802e+00
  3.48646005e+00  3.51768208e+00  3.54890411e+00  3.58012614e+00
  3.61134817e+00  3.64048873e+00  3.67171076e+00  3.70293279e+00
  3.73415482e+00  3.76537685e+00  3.79451741e+00  3.82573944e+00
  3.85696147e+00  3.88818350e+00  3.91732406e+00  3.94854609e+00
  3.97768666e+00  4.00474575e+00  4.02972337e+00  4.05261953e+00
  4.06927128e+00  4.07759715e+00  4.07551568e+00  4.06094540e+00
  4.02556044e+00  3.96936078e+00  3.88818350e+00  3.77578419e+00
  3.63424432e+00  3.45940095e+00  3.25333555e+00  3.02021106e+00
  2.76419041e+00  2.48943655e+00  2.20427534e+00  1.91703266e+00
  1.63395292e+00  1.36128052e+00  1.10525987e+00  8.74216847e-01
  6.68151448e-01  4.93308078e-01  3.53849676e-01  2.51857711e-01
  1.89413650e-01  1.66517495e-01  1.85250713e-01  2.45613305e-01
  3.47605270e-01  4.87063672e-01  6.61907042e-01  8.70053910e-01
  1.10942281e+00  1.37168786e+00  1.65268614e+00  1.94825469e+00
  2.25423059e+00  2.56436942e+00  2.87242678e+00  3.17632121e+00
  3.47188977e+00  3.75705098e+00  4.02556044e+00  4.27949961e+00
  4.51470558e+00  4.73117832e+00  4.92683638e+00  5.10167975e+00
  5.25570843e+00  5.38892242e+00  5.50132173e+00  5.59706929e+00
  5.67616510e+00  5.74069063e+00  5.79689029e+00  5.84476407e+00
  5.88847491e+00  5.93218575e+00  5.98005953e+00  6.03001478e+00
  6.08621443e+00  6.14865849e+00  6.21526549e+00  6.28603543e+00
  6.35680536e+00  6.42549383e+00  6.49210083e+00  6.55246342e+00
  6.60658160e+00  6.65029245e+00  6.68984035e+00  6.72106238e+00]",10.798838442001786,6.177006114562066,3.460295000000001,0.6649349999999989
017,1,1,csp,43a.png,1,1,212,280,209,1,0,NaN,neg_feedback_onset,4,"[nan nan nan nan nan nan nan nan nan nan nan nan nan nan nan nan nan nan
 nan nan nan nan nan nan nan nan nan nan nan nan nan nan nan nan nan nan
 nan nan nan nan nan nan nan nan nan nan nan nan nan nan nan nan nan nan
 nan nan nan nan nan nan nan nan nan nan nan nan nan nan nan nan nan nan
 nan nan nan nan nan nan nan nan nan nan nan nan nan nan nan nan nan nan
 nan nan nan nan nan nan nan nan nan nan nan nan nan nan nan nan nan nan
 nan nan nan nan nan nan nan nan nan nan nan nan nan nan nan nan nan nan
 nan nan nan nan nan nan nan nan nan nan nan nan nan nan nan nan nan nan
 nan nan nan nan nan nan nan nan nan nan nan nan nan nan nan nan nan nan
 nan nan nan nan nan nan nan nan nan nan nan nan nan nan nan nan nan nan
 nan nan nan nan nan nan nan nan nan nan nan nan nan nan nan nan nan nan
 nan nan nan nan nan nan nan nan nan nan nan nan nan nan nan nan nan nan
 nan nan nan nan nan nan nan nan nan nan nan nan nan nan nan nan nan nan
 nan nan nan nan nan nan nan nan nan nan nan nan nan nan nan nan nan nan
 nan nan nan nan nan nan nan nan]","[nan nan nan nan nan nan nan nan nan nan nan nan nan nan nan nan nan nan
 nan nan nan nan nan nan nan nan nan nan nan nan nan nan nan nan nan nan
 nan nan nan nan nan nan nan nan nan nan nan nan nan nan nan nan nan nan
 nan nan nan nan nan nan nan nan nan nan nan nan nan nan nan nan nan nan
 nan nan nan nan nan nan nan nan nan nan nan nan nan nan nan nan nan nan
 nan nan nan nan nan nan nan nan nan nan nan nan nan nan nan nan nan nan
 nan nan nan nan nan nan nan nan nan nan nan nan nan nan nan nan nan nan
 nan nan nan nan nan nan nan nan nan nan nan nan nan nan]",,,4.560735,
017,1,1,csm,22b.png,1,1,144,95,NaN,0,0,NaN,neu_feedback_onset,5,"[nan nan nan nan nan nan nan nan nan nan nan nan nan nan nan nan nan nan
 nan nan nan nan nan nan nan nan nan nan nan nan nan nan nan nan nan nan
 nan nan nan nan nan nan nan nan nan nan nan nan nan nan nan nan nan nan
 nan nan nan nan nan nan nan nan nan nan nan nan nan nan nan nan nan nan
 nan nan nan nan nan nan nan nan nan nan nan nan nan nan nan nan nan nan
 nan nan nan nan nan nan nan nan nan nan nan nan nan nan nan nan nan nan
 nan nan nan nan nan nan nan nan nan nan nan nan nan nan nan nan nan nan
 nan nan nan nan nan nan nan nan nan nan nan nan nan nan nan nan nan nan
 nan nan nan nan nan nan nan nan nan nan nan nan nan nan nan nan nan nan
 nan nan nan nan nan nan nan nan nan nan nan nan nan nan nan nan nan nan
 nan nan nan nan nan nan nan nan nan nan nan nan nan nan nan nan nan nan
 nan nan nan nan nan nan nan nan nan nan nan nan nan nan nan nan nan nan
 nan nan nan nan nan nan nan nan nan nan nan nan nan nan nan nan nan nan
 nan nan nan nan nan nan nan nan nan nan nan nan nan nan nan nan nan nan
 nan nan nan nan nan nan nan nan]","[nan nan nan nan nan nan nan nan nan nan nan nan nan nan nan nan nan nan
 nan nan nan nan nan nan nan nan nan nan nan nan nan nan nan nan nan nan
 nan nan nan nan nan nan nan nan nan nan nan nan nan nan nan nan nan nan
 nan nan nan nan nan nan nan nan nan nan nan nan nan nan nan nan nan nan
 nan nan nan nan nan nan nan nan nan nan nan nan nan nan nan nan nan nan
 nan nan nan nan nan nan nan nan nan nan nan nan nan nan nan nan nan nan
 nan nan nan nan nan nan nan nan nan nan nan nan nan nan nan nan nan nan
 nan nan nan nan nan nan nan nan nan nan nan nan nan nan]",,,3.9801,
017,1,1,csp,2a.png,1,1,256,254,253,1,0,363,neg_feedback_onset,6,"[-2.61425149 -2.34685124 -2.07471825 -1.80021889 -1.52571953 -1.25122016
 -0.98145355 -0.7140533  -0.44901943 -0.18398557  0.0810483   0.34844855
  0.62294791  0.90927914  1.2027095   1.5103381   1.82743219  2.1516254
  2.48055137  2.80711095  3.12657142  3.43420002  3.725264    3.99739699
  4.24586624  4.4754045   4.68601177  4.8824208   5.06699796  5.244476
  5.42195403  5.59943207  5.78400923  5.97568551  6.17446091  6.38270181
  6.59804183  6.82048097  7.04765285  7.28192386  7.51619487  7.75519863
  7.99420238  8.23083977  8.46747715  8.69701541  8.91945455  9.13479457
  9.33830272  9.52761262  9.70509066  9.8731032  10.0269175  10.17126631
 10.30851599 10.43630017 10.56171799 10.68003668 10.79362262 10.90720857
 11.01842814 11.13201408 11.25269915 11.38284971 11.52956488 11.69757742
 11.89162008 12.11405922 12.36726122 12.6488597  12.95885468 13.29014701
 13.63800396 13.99059366 14.34554974 14.69577306 15.03179815 15.35362499
 15.65652084 15.94285207 16.21261869 16.46345431 16.70245807 16.92253084
 17.12367261 17.3058834  17.46206407 17.58984826 17.68450321 17.74366256
 17.76495992 17.75076168 17.7034342  17.62771024 17.52595616 17.4052711
 17.26802142 17.12367261 16.96985831 16.81604401 16.65986334 16.50368267
 16.34986837 16.20078682 16.05643802 15.91682196 15.78903777 15.67545183
 15.5784305  15.50034017 15.45064632 15.42934895 15.44118082 15.48614192
 15.56659863 15.6778182  15.81980063 15.98308043 16.16765759 16.36170024
 16.56284201 16.76398379 16.95802644 17.14496998 17.31771527 17.47389594
 17.61824474 17.74602893 17.85961487 17.96373532 18.0560239  18.14121336
 18.21457095 18.28082941 18.33525601 18.37311799 18.39678173 18.39678173
 18.37785074 18.33052326 18.25953205 18.16251072 18.03945928 17.88801136
 17.70816695 17.49755968 17.25618955 16.97932381 16.66459609 16.31200639
 15.92155471 15.49797379 15.04599639 14.57982075 14.1136451  13.65930133
 13.23572041 12.85000148 12.51870914 12.24184341 12.01940427 11.84902535
 11.71650842 11.61002159 11.51773301 11.42544443 11.32369036 11.20537167
 11.06575561 10.91194131 10.74392877 10.57354986 10.40790369 10.25645576
 10.1263052  10.02218475  9.94882717  9.90623244  9.88966782  9.89676694
  9.92516343  9.96775816 10.02455113 10.08844322 10.15943444 10.23279203
 10.30851599 10.38660632 10.46706303 10.54515337 10.62561008 10.70606679
 10.7865235  10.86698021 10.94507055 11.02552726 11.10598397 11.18644068
 11.26689739 11.3473541  11.42544443 11.50590114 11.58635785 11.66681457
 11.74727128 11.82772799 11.90581832 11.98627503 12.06673174 12.14718845
 12.22764516 12.30810187 12.38619221 12.46664892 12.54710563 12.62756234
 12.70801905 12.78847576 12.8665661  12.94702281 13.02747952 13.10793623
 13.18839294 13.26884965 13.34693998 13.42739669 13.5078534  13.58831011
 13.66876682 13.74922353 13.82968024 13.90777058 13.98822729 14.068684
 14.15150708 14.23196379 14.31478688 14.39760996 14.48516579 14.575088
 14.66737658 14.76439791 14.86615198 14.9726388  15.07912562 15.18324607
 15.27790103 15.35835774 15.41041796 15.4246162  15.39148697 15.29446564
 15.1264531  14.87798385 14.54195877 14.12074422 13.61197385 13.02511314
 12.37199397 11.66208182]","[nan nan nan nan nan nan nan nan nan nan nan nan nan nan nan nan nan nan
 nan nan nan nan nan nan nan nan nan nan nan nan nan nan nan nan nan nan
 nan nan nan nan nan nan nan nan nan nan nan nan nan nan nan nan nan nan
 nan nan nan nan nan nan nan nan nan nan nan nan nan nan nan nan nan nan
 nan nan nan nan nan nan nan nan nan nan nan nan nan nan nan nan nan nan
 nan nan nan nan nan nan nan nan nan nan nan nan nan nan nan nan nan nan
 nan nan nan nan nan nan nan nan nan nan nan nan nan nan nan nan nan nan
 nan nan nan nan nan nan nan nan nan nan nan nan nan nan]",17.105747330434518,,4.225875,-0.25424499999999917
017,1,1,csm,15b.png,1,1,208,73,25,0,1,677,neu_feedback_onset,7,"[nan nan nan nan nan nan nan nan nan nan nan nan nan nan nan nan nan nan
 nan nan nan nan nan nan nan nan nan nan nan nan nan nan nan nan nan nan
 nan nan nan nan nan nan nan nan nan nan nan nan nan nan nan nan nan nan
 nan nan nan nan nan nan nan nan nan nan nan nan nan nan nan nan nan nan
 nan nan nan nan nan nan nan nan nan nan nan nan nan nan nan nan nan nan
 nan nan nan nan nan nan nan nan nan nan nan nan nan nan nan nan nan nan
 nan nan nan nan nan nan nan nan nan nan nan nan nan nan nan nan nan nan
 nan nan nan nan nan nan nan nan nan nan nan nan nan nan nan nan nan nan
 nan nan nan nan nan nan nan nan nan nan nan nan nan nan nan nan nan nan
 nan nan nan nan nan nan nan nan nan nan nan nan nan nan nan nan nan nan
 nan nan nan nan nan nan nan nan nan nan nan nan nan nan nan nan nan nan
 nan nan nan nan nan nan nan nan nan nan nan nan nan nan nan nan nan nan
 nan nan nan nan nan nan nan nan nan nan nan nan nan nan nan nan nan nan
 nan nan nan nan nan nan nan nan nan nan nan nan nan nan nan nan nan nan
 nan nan nan nan nan nan nan nan]","[ -1.26109072  -1.17183568  -1.06597504  -0.94350882  -0.81066411
  -0.6695166   -0.522142    -0.37061599  -0.21701429  -0.06341259
   0.08811341   0.23756371   0.38493832   0.52608582   0.66515763
   0.79592665   0.92461997   1.04501049   1.15917391   1.26918594
   1.37297087   1.47260441   1.56808655   1.65941729   1.74867233
   1.83792737   1.92718242   2.01851316   2.1119196    2.20532604
   2.30080817   2.39629031   2.48554535   2.5685733    2.63914705
   2.69311522   2.722175     2.7263264    2.69726662   2.63707136
   2.54366492   2.4170473    2.2592942    2.07455702   1.86698715
   1.640736     1.39995496   1.14879542   0.89140879   0.62571936
   0.35795423   0.08811341  -0.18380312  -0.45571964  -0.72971186
  -1.00162839  -1.27562061  -1.54961283  -1.82152935  -2.09552158
  -2.3695138   -2.64143032  -2.91542254  -3.18941477  -3.46133129
  -3.73532351  -4.00724004  -4.27915656  -4.55107308  -4.82091391
  -5.08867904  -5.35436846  -5.61590649  -5.86914173  -6.11822557
  -6.35693091  -6.58525777  -6.80528182  -7.01700309  -7.22249725
  -7.42384002  -7.62518279  -7.82860126  -8.04032252  -8.26034658
  -8.49074913  -8.72945448  -8.97646262  -9.22969785  -9.48708448
  -9.74447112  -9.99978205 -10.25094159 -10.50002543 -10.74703357
 -10.98781461 -11.22651996 -11.4631496  -11.69977925 -11.9322575
 -12.16681145 -12.3992897  -12.63176795 -12.8621705  -13.09464875
 -13.3250513  -13.55545385 -13.781705   -14.00795615 -14.22798021
 -14.44385287 -14.65142274 -14.85068981 -15.03542699 -15.20770998
 -15.36338737 -15.49830779 -15.61662261 -15.71210475 -15.7889056
 -15.84910086 -15.89061483 -15.91759891 -15.93212881 -15.9383559
 -15.9362802  -15.92797741 -15.91759891 -15.90306902 -15.88646344
 -15.86985785 -15.85117656 -15.83457097 -15.81588968 -15.79720839
 -15.7785271  -15.75984582 -15.74116453 -15.72248324 -15.70380195]",,1.523251457399951,4.3110100000000005,
017,1,1,csp,29a.png,1,0,332,256,NaN,0,0,NaN,neg_feedback_onset,8,"[nan nan nan nan nan nan nan nan nan nan nan nan nan nan nan nan nan nan
 nan nan nan nan nan nan nan nan nan nan nan nan nan nan nan nan nan nan
 nan nan nan nan nan nan nan nan nan nan nan nan nan nan nan nan nan nan
 nan nan nan nan nan nan nan nan nan nan nan nan nan nan nan nan nan nan
 nan nan nan nan nan nan nan nan nan nan nan nan nan nan nan nan nan nan
 nan nan nan nan nan nan nan nan nan nan nan nan nan nan nan nan nan nan
 nan nan nan nan nan nan nan nan nan nan nan nan nan nan nan nan nan nan
 nan nan nan nan nan nan nan nan nan nan nan nan nan nan nan nan nan nan
 nan nan nan nan nan nan nan nan nan nan nan nan nan nan nan nan nan nan
 nan nan nan nan nan nan nan nan nan nan nan nan nan nan nan nan nan nan
 nan nan nan nan nan nan nan nan nan nan nan nan nan nan nan nan nan nan
 nan nan nan nan nan nan nan nan nan nan nan nan nan nan nan nan nan nan
 nan nan nan nan nan nan nan nan nan nan nan nan nan nan nan nan nan nan
 nan nan nan nan nan nan nan nan nan nan nan nan nan nan nan nan nan nan
 nan nan nan nan nan nan nan nan]","[nan nan nan nan nan nan nan nan nan nan nan nan nan nan nan nan nan nan
 nan nan nan nan nan nan nan nan nan nan nan nan nan nan nan nan nan nan
 nan nan nan nan nan nan nan nan nan nan nan nan nan nan nan nan nan nan
 nan nan nan nan nan nan nan nan nan nan nan nan nan nan nan nan nan nan
 nan nan nan nan nan nan nan nan nan nan nan nan nan nan nan nan nan nan
 nan nan nan nan nan nan nan nan nan nan nan nan nan nan nan nan nan nan
 nan nan nan nan nan nan nan nan nan nan nan nan nan nan nan nan nan nan
 nan nan nan nan nan nan nan nan nan nan nan nan nan nan]",,,4.10385,
017,1,1,csm,60b.png,1,1,140,111,142,1,1,458,neu_feedback_onset,9,"[nan nan nan nan nan nan nan nan nan nan nan nan nan nan nan nan nan nan
 nan nan nan nan nan nan nan nan nan nan nan nan nan nan nan nan nan nan
 nan nan nan nan nan nan nan nan nan nan nan nan nan nan nan nan nan nan
 nan nan nan nan nan nan nan nan nan nan nan nan nan nan nan nan nan nan
 nan nan nan nan nan nan nan nan nan nan nan nan nan nan nan nan nan nan
 nan nan nan nan nan nan nan nan nan nan nan nan nan nan nan nan nan nan
 nan nan nan nan nan nan nan nan nan nan nan nan nan nan nan nan nan nan
 nan nan nan nan nan nan nan nan nan nan nan nan nan nan nan nan nan nan
 nan nan nan nan nan nan nan nan nan nan nan nan nan nan nan nan nan nan
 nan nan nan nan nan nan nan nan nan nan nan nan nan nan nan nan nan nan
 nan nan nan nan nan nan nan nan nan nan nan nan nan nan nan nan nan nan
 nan nan nan nan nan nan nan nan nan nan nan nan nan nan nan nan nan nan
 nan nan nan nan nan nan nan nan nan nan nan nan nan nan nan nan nan nan
 nan nan nan nan nan nan nan nan nan nan nan nan nan nan nan nan nan nan
 nan nan nan nan nan nan nan nan]","[nan nan nan nan nan nan nan nan nan nan nan nan nan nan nan nan nan nan
 nan nan nan nan nan nan nan nan nan nan nan nan nan nan nan nan nan nan
 nan nan nan nan nan nan nan nan nan nan nan nan nan nan nan nan nan nan
 nan nan nan nan nan nan nan nan nan nan nan nan nan nan nan nan nan nan
 nan nan nan nan nan nan nan nan nan nan nan nan nan nan nan nan nan nan
 nan nan nan nan nan nan nan nan nan nan nan nan nan nan nan nan nan nan
 nan nan nan nan nan nan nan nan nan nan nan nan nan nan nan nan nan nan
 nan nan nan nan nan nan nan nan nan nan nan nan nan nan]",,,4.193074999999999,
017,1,1,csm,24b.png,1,1,16,270,NaN,0,1,544,neu_feedback_onset,10,"[nan nan nan nan nan nan nan nan nan nan nan nan nan nan nan nan nan nan
 nan nan nan nan nan nan nan nan nan nan nan nan nan nan nan nan nan nan
 nan nan nan nan nan nan nan nan nan nan nan nan nan nan nan nan nan nan
 nan nan nan nan nan nan nan nan nan nan nan nan nan nan nan nan nan nan
 nan nan nan nan nan nan nan nan nan nan nan nan nan nan nan nan nan nan
 nan nan nan nan nan nan nan nan nan nan nan nan nan nan nan nan nan nan
 nan nan nan nan nan nan nan nan nan nan nan nan nan nan nan nan nan nan
 nan nan nan nan nan nan nan nan nan nan nan nan nan nan nan nan nan nan
 nan nan nan nan nan nan nan nan nan nan nan nan nan nan nan nan nan nan
 nan nan nan nan nan nan nan nan nan nan nan nan nan nan nan nan nan nan
 nan nan nan nan nan nan nan nan nan nan nan nan nan nan nan nan nan nan
 nan nan nan nan nan nan nan nan nan nan nan nan nan nan nan nan nan nan
 nan nan nan nan nan nan nan nan nan nan nan nan nan nan nan nan nan nan
 nan nan nan nan nan nan nan nan nan nan nan nan nan nan nan nan nan nan
 nan nan nan nan nan nan nan nan]","[nan nan nan nan nan nan nan nan nan nan nan nan nan nan nan nan nan nan
 nan nan nan nan nan nan nan nan nan nan nan nan nan nan nan nan nan nan
 nan nan nan nan nan nan nan nan nan nan nan nan nan nan nan nan nan nan
 nan nan nan nan nan nan nan nan nan nan nan nan nan nan nan nan nan nan
 nan nan nan nan nan nan nan nan nan nan nan nan nan nan nan nan nan nan
 nan nan nan nan nan nan nan nan nan nan nan nan nan nan nan nan nan nan
 nan nan nan nan nan nan nan nan nan nan nan nan nan nan nan nan nan nan
 nan nan nan nan nan nan nan nan nan nan nan nan nan nan]",,,4.255965,
017,1,1,csm,33b.png,1,1,264,271,262,1,1,463,neu_feedback_onset,11,"[nan nan nan nan nan nan nan nan nan nan nan nan nan nan nan nan nan nan
 nan nan nan nan nan nan nan nan nan nan nan nan nan nan nan nan nan nan
 nan nan nan nan nan nan nan nan nan nan nan nan nan nan nan nan nan nan
 nan nan nan nan nan nan nan nan nan nan nan nan nan nan nan nan nan nan
 nan nan nan nan nan nan nan nan nan nan nan nan nan nan nan nan nan nan
 nan nan nan nan nan nan nan nan nan nan nan nan nan nan nan nan nan nan
 nan nan nan nan nan nan nan nan nan nan nan nan nan nan nan nan nan nan
 nan nan nan nan nan nan nan nan nan nan nan nan nan nan nan nan nan nan
 nan nan nan nan nan nan nan nan nan nan nan nan nan nan nan nan nan nan
 nan nan nan nan nan nan nan nan nan nan nan nan nan nan nan nan nan nan
 nan nan nan nan nan nan nan nan nan nan nan nan nan nan nan nan nan nan
 nan nan nan nan nan nan nan nan nan nan nan nan nan nan nan nan nan nan
 nan nan nan nan nan nan nan nan nan nan nan nan nan nan nan nan nan nan
 nan nan nan nan nan nan nan nan nan nan nan nan nan nan nan nan nan nan
 nan nan nan nan nan nan nan nan]","[nan nan nan nan nan nan nan nan nan nan nan nan nan nan nan nan nan nan
 nan nan nan nan nan nan nan nan nan nan nan nan nan nan nan nan nan nan
 nan nan nan nan nan nan nan nan nan nan nan nan nan nan nan nan nan nan
 nan nan nan nan nan nan nan nan nan nan nan nan nan nan nan nan nan nan
 nan nan nan nan nan nan nan nan nan nan nan nan nan nan nan nan nan nan
 nan nan nan nan nan nan nan nan nan nan nan nan nan nan nan nan nan nan
 nan nan nan nan nan nan nan nan nan nan nan nan nan nan nan nan nan nan
 nan nan nan nan nan nan nan nan nan nan nan nan nan nan]",,,4.015949999999999,-0.48111500000000085
017,1,1,csp,63a.png,1,1,312,190,303,1,1,478,pos_feedback_onset,12,"[nan nan nan nan nan nan nan nan nan nan nan nan nan nan nan nan nan nan
 nan nan nan nan nan nan nan nan nan nan nan nan nan nan nan nan nan nan
 nan nan nan nan nan nan nan nan nan nan nan nan nan nan nan nan nan nan
 nan nan nan nan nan nan nan nan nan nan nan nan nan nan nan nan nan nan
 nan nan nan nan nan nan nan nan nan nan nan nan nan nan nan nan nan nan
 nan nan nan nan nan nan nan nan nan nan nan nan nan nan nan nan nan nan
 nan nan nan nan nan nan nan nan nan nan nan nan nan nan nan nan nan nan
 nan nan nan nan nan nan nan nan nan nan nan nan nan nan nan nan nan nan
 nan nan nan nan nan nan nan nan nan nan nan nan nan nan nan nan nan nan
 nan nan nan nan nan nan nan nan nan nan nan nan nan nan nan nan nan nan
 nan nan nan nan nan nan nan nan nan nan nan nan nan nan nan nan nan nan
 nan nan nan nan nan nan nan nan nan nan nan nan nan nan nan nan nan nan
 nan nan nan nan nan nan nan nan nan nan nan nan nan nan nan nan nan nan
 nan nan nan nan nan nan nan nan nan nan nan nan nan nan nan nan nan nan
 nan nan nan nan nan nan nan nan]","[nan nan nan nan nan nan nan nan nan nan nan nan nan nan nan nan nan nan
 nan nan nan nan nan nan nan nan nan nan nan nan nan nan nan nan nan nan
 nan nan nan nan nan nan nan nan nan nan nan nan nan nan nan nan nan nan
 nan nan nan nan nan nan nan nan nan nan nan nan nan nan nan nan nan nan
 nan nan nan nan nan nan nan nan nan nan nan nan nan nan nan nan nan nan
 nan nan nan nan nan nan nan nan nan nan nan nan nan nan nan nan nan nan
 nan nan nan nan nan nan nan nan nan nan nan nan nan nan nan nan nan nan
 nan nan nan nan nan nan nan nan nan nan nan nan nan nan]",,,4.18181,
017,1,1,csm,41b.png,1,1,20,358,239,1,0,NaN,neu_feedback_onset,13,"[nan nan nan nan nan nan nan nan nan nan nan nan nan nan nan nan nan nan
 nan nan nan nan nan nan nan nan nan nan nan nan nan nan nan nan nan nan
 nan nan nan nan nan nan nan nan nan nan nan nan nan nan nan nan nan nan
 nan nan nan nan nan nan nan nan nan nan nan nan nan nan nan nan nan nan
 nan nan nan nan nan nan nan nan nan nan nan nan nan nan nan nan nan nan
 nan nan nan nan nan nan nan nan nan nan nan nan nan nan nan nan nan nan
 nan nan nan nan nan nan nan nan nan nan nan nan nan nan nan nan nan nan
 nan nan nan nan nan nan nan nan nan nan nan nan nan nan nan nan nan nan
 nan nan nan nan nan nan nan nan nan nan nan nan nan nan nan nan nan nan
 nan nan nan nan nan nan nan nan nan nan nan nan nan nan nan nan nan nan
 nan nan nan nan nan nan nan nan nan nan nan nan nan nan nan nan nan nan
 nan nan nan nan nan nan nan nan nan nan nan nan nan nan nan nan nan nan
 nan nan nan nan nan nan nan nan nan nan nan nan nan nan nan nan nan nan
 nan nan nan nan nan nan nan nan nan nan nan nan nan nan nan nan nan nan
 nan nan nan nan nan nan nan nan]","[nan nan nan nan nan nan nan nan nan nan nan nan nan nan nan nan nan nan
 nan nan nan nan nan nan nan nan nan nan nan nan nan nan nan nan nan nan
 nan nan nan nan nan nan nan nan nan nan nan nan nan nan nan nan nan nan
 nan nan nan nan nan nan nan nan nan nan nan nan nan nan nan nan nan nan
 nan nan nan nan nan nan nan nan nan nan nan nan nan nan nan nan nan nan
 nan nan nan nan nan nan nan nan nan nan nan nan nan nan nan nan nan nan
 nan nan nan nan nan nan nan nan nan nan nan nan nan nan nan nan nan nan
 nan nan nan nan nan nan nan nan nan nan nan nan nan nan]",,,4.378405,
017,1,1,csm,57b.png,1,1,60,267,60,1,1,450,neu_feedback_onset,14,"[nan nan nan nan nan nan nan nan nan nan nan nan nan nan nan nan nan nan
 nan nan nan nan nan nan nan nan nan nan nan nan nan nan nan nan nan nan
 nan nan nan nan nan nan nan nan nan nan nan nan nan nan nan nan nan nan
 nan nan nan nan nan nan nan nan nan nan nan nan nan nan nan nan nan nan
 nan nan nan nan nan nan nan nan nan nan nan nan nan nan nan nan nan nan
 nan nan nan nan nan nan nan nan nan nan nan nan nan nan nan nan nan nan
 nan nan nan nan nan nan nan nan nan nan nan nan nan nan nan nan nan nan
 nan nan nan nan nan nan nan nan nan nan nan nan nan nan nan nan nan nan
 nan nan nan nan nan nan nan nan nan nan nan nan nan nan nan nan nan nan
 nan nan nan nan nan nan nan nan nan nan nan nan nan nan nan nan nan nan
 nan nan nan nan nan nan nan nan nan nan nan nan nan nan nan nan nan nan
 nan nan nan nan nan nan nan nan nan nan nan nan nan nan nan nan nan nan
 nan nan nan nan nan nan nan nan nan nan nan nan nan nan nan nan nan nan
 nan nan nan nan nan nan nan nan nan nan nan nan nan nan nan nan nan nan
 nan nan nan nan nan nan nan nan]","[nan nan nan nan nan nan nan nan nan nan nan nan nan nan nan nan nan nan
 nan nan nan nan nan nan nan nan nan nan nan nan nan nan nan nan nan nan
 nan nan nan nan nan nan nan nan nan nan nan nan nan nan nan nan nan nan
 nan nan nan nan nan nan nan nan nan nan nan nan nan nan nan nan nan nan
 nan nan nan nan nan nan nan nan nan nan nan nan nan nan nan nan nan nan
 nan nan nan nan nan nan nan nan nan nan nan nan nan nan nan nan nan nan
 nan nan nan nan nan nan nan nan nan nan nan nan nan nan nan nan nan nan
 nan nan nan nan nan nan nan nan nan nan nan nan nan nan]",,,4.02361,-0.10444499999999923
017,2,1,csm,48b.png,1,1,320,285,321,1,1,244,neu_feedback_onset,1,"[-2.46044689 -2.20655677 -1.94809205 -1.68276544 -1.40828963 -1.12695192
 -0.83646503 -0.53911623 -0.24405474  0.04871946  0.33234446  0.59995837
  0.8446993   1.06427995  1.25870031  1.4233858   1.562911    1.67727592
  1.77562975  1.86483439  1.94946443  2.03866907  2.14388479  2.26968621
  2.4252225   2.61964286  2.8575219   3.1434342   3.47966706  3.86622049
  4.30538178  4.78800175  5.30950578  5.863032    6.4371439   7.02040499
  7.59909149  8.16176689  8.69699472  9.19333847  9.63936166 10.02362779
 10.34156227 10.5863032  10.75327598 10.84019332 10.84248062 10.76699977
 10.61375078 10.39188284 10.10597054  9.76973767  9.39004613  8.98290702
  8.55746952  8.12517012  7.69973261  7.2925935   6.90832737  6.55837071
  6.24958543  5.98425881  5.77154006  5.61142917  5.50621345  5.45818018
  5.46732937  5.52679913  5.63658946  5.79212575  5.98425881  6.20383946
  6.44858039  6.70704511  6.97008442  7.22854914  7.47329007  7.69515802
  7.88271649  8.02910358  8.12517012  8.16176689  8.13889391  8.05426387
  7.91245137  7.718031    7.48472656  7.22626185  6.95636063  6.69332132
  6.45086769  6.24501083  6.08261264  5.97282232  5.91335256  5.90191607
  5.92936365  5.98883341  6.06660155  6.1512316   6.23586164  6.30905519
  6.37081224  6.41884551  6.45772958  6.49203906  6.52863583  6.5766691
  6.64757535  6.74592918  6.87630519  7.04327797  7.24227293  7.47329007
  7.73175479  8.0108052   8.30586669  8.61236468  8.92572456  9.24365904
  9.56388081  9.88410259 10.20432437 10.52454614 10.84476792 11.1604151
 11.46920038 11.76654918 12.04559958 12.29720241 12.50992116 12.67231934
 12.77524777 12.80498265 12.75237479 12.61056229 12.38183245 12.06161067
 11.66133345 11.18786268 10.66178405 10.09682134  9.51813485  8.94402295
  8.39735863  7.89415298  7.45727898  7.09817313  6.82827192  6.65443724
  6.5766691   6.59954208  6.713907    6.91061467  7.18280318  7.50988685
  7.88042919  8.27613181  8.67640903  9.06524976  9.43121751  9.75601388
 10.02820239 10.24320844 10.39417013 10.47880017 10.49938586 10.46278909
 10.37587175 10.24778304 10.09224674  9.92298666  9.75372658  9.59361569
  9.44951589  9.32828908  9.22307335  9.12700682  9.03094029  8.91200077
  8.75417718  8.53917113  8.24410963  7.8621308   7.38637273  6.81912273
  6.17181728  5.46504207  4.72167009  3.97372352  3.25551182  2.59676988
  2.02494528  1.5674856   1.23811463  1.04598156  0.9910864   1.06885454
  1.26556221  1.562911    1.94260253  2.38176383  2.86209649  3.35844025
  3.8593586   4.34655316  4.80858743  5.23859953  5.62972756  5.98197151
  6.2953314   6.56523261  6.79853704  6.99753201  7.16450479  7.30860459
  7.4275441   7.53047253  7.61738987  7.69515802  7.76606427  7.83010862
  7.89186568  7.95133544  8.0085179   8.06570036  8.12288282  8.18006528
  8.23496044  8.2921429   8.34703806  8.40193322  8.45911568  8.51401085
  8.57119331  8.62608847  8.68098363  8.73816609  8.79306125  8.84795641
  8.90056428  8.95088484  8.99663081  9.03551488  9.06524976  9.07897355
  9.07439896  9.04237678  8.97147053  8.85939291  8.69242012  8.46826488
  8.17549068  7.81638483  7.39094733  6.90604007  6.36623765  5.78755115
  5.18599167  4.575283  ]","[-1.06565240e+00 -8.63581500e-01 -6.70201821e-01 -4.85513363e-01
 -3.11688932e-01 -1.50901334e-01 -7.49617858e-03  1.18526534e-01
  2.24993998e-01  3.07560602e-01  3.68399153e-01  4.03164039e-01
  4.16200872e-01  4.07509650e-01  3.79263180e-01  3.33634267e-01
  2.72795716e-01  1.98920333e-01  1.12008118e-01  1.20590699e-02
 -9.87540048e-02 -2.24776717e-01 -3.63836262e-01 -5.18105444e-01
 -6.87584264e-01 -8.72272722e-01 -1.06782521e+00 -1.27206891e+00
 -1.48283104e+00 -1.69359316e+00 -1.90435528e+00 -2.10859899e+00
 -2.30197867e+00 -2.48449432e+00 -2.64962753e+00 -2.79955110e+00
 -2.93426503e+00 -3.04942372e+00 -3.14719996e+00 -3.23193937e+00
 -3.29929634e+00 -3.35578928e+00 -3.40141819e+00 -3.44270149e+00
 -3.47746638e+00 -3.51440407e+00 -3.55568737e+00 -3.60348909e+00
 -3.66215484e+00 -3.72951180e+00 -3.81207841e+00 -3.90333623e+00
 -4.00763089e+00 -4.11844397e+00 -4.23360265e+00 -4.34876134e+00
 -4.45957441e+00 -4.56386907e+00 -4.65512690e+00 -4.73117509e+00
 -4.78984083e+00 -4.82895133e+00 -4.85067938e+00 -4.85502499e+00
 -4.84198816e+00 -4.81808730e+00 -4.78549522e+00 -4.74638472e+00
 -4.70727423e+00 -4.67033653e+00 -4.64209006e+00 -4.62688043e+00
 -4.62905323e+00 -4.65512690e+00 -4.70727423e+00 -4.78984083e+00
 -4.90717232e+00 -5.05926870e+00 -5.24612996e+00 -5.46992892e+00
 -5.72849276e+00 -6.01747587e+00 -6.33253265e+00 -6.66931749e+00
 -7.01913916e+00 -7.37765204e+00 -7.73616493e+00 -8.08815941e+00
 -8.42711705e+00 -8.75086505e+00 -9.04853939e+00 -9.32014006e+00
 -9.55914865e+00 -9.76556516e+00 -9.93504398e+00 -1.00654123e+01
 -1.01566701e+01 -1.02088175e+01 -1.02196815e+01 -1.01936078e+01
 -1.01305965e+01 -1.00349930e+01 -9.91331593e+00 -9.76773797e+00
 -9.60912318e+00 -9.44181716e+00 -9.27451115e+00 -9.11155074e+00
 -8.96162717e+00 -8.82691324e+00 -8.70740894e+00 -8.60745989e+00
 -8.52272048e+00 -8.45101791e+00 -8.39017935e+00 -8.33585922e+00
 -8.28371189e+00 -8.23808298e+00 -8.19245406e+00 -8.15334357e+00
 -8.11857868e+00 -8.09685063e+00 -8.08815941e+00 -8.09902343e+00
 -8.13161551e+00 -8.18810845e+00 -8.27067506e+00 -8.37931533e+00
 -8.51402926e+00 -8.66612564e+00 -8.83777726e+00 -9.02029292e+00
 -9.20932698e+00 -9.39618825e+00 -9.57653109e+00 -9.74166430e+00
 -9.88724226e+00 -1.00067466e+01 -1.01001772e+01 -1.01631885e+01]",9.87306637511236,-0.38420631221695456,4.37197,-0.025539999999999452
017,2,1,csm,49b.png,1,0,296,210,297,1,1,364,neu_feedback_onset,2,"[ 2.12256967e-01  3.35060204e-01  4.21744841e-01  4.74718787e-01
  5.01205759e-01  5.03613666e-01  4.86758320e-01  4.53047627e-01
  4.04889495e-01  3.42283923e-01  2.67638819e-01  1.76138368e-01
  6.53746642e-02 -6.70601989e-02 -2.21166221e-01 -4.04167123e-01
 -6.11247091e-01 -8.47221938e-01 -1.10727585e+00 -1.38659302e+00
 -1.68517344e+00 -1.99338548e+00 -2.30641334e+00 -2.61221748e+00
 -2.90838999e+00 -3.18048344e+00 -3.41886619e+00 -3.62113034e+00
 -3.77523637e+00 -3.87636844e+00 -3.92452658e+00 -3.91489495e+00
 -3.84988147e+00 -3.72948614e+00 -3.56093268e+00 -3.34662899e+00
 -3.09379880e+00 -2.80485001e+00 -2.48700633e+00 -2.14749150e+00
 -1.79593714e+00 -1.44197487e+00 -1.08801260e+00 -7.50905674e-01
 -4.37877816e-01 -1.58560650e-01  7.98221039e-02  2.65230912e-01
  3.95257869e-01  4.65087160e-01  4.74718787e-01  4.28968561e-01
  3.30244390e-01  1.85769994e-01  5.17699919e-03 -2.06718782e-01
 -4.40285722e-01 -6.90708009e-01 -9.50761922e-01 -1.22044746e+00
 -1.49494881e+00 -1.77185807e+00 -2.04876733e+00 -2.32808450e+00
 -2.60740166e+00 -2.88671883e+00 -3.16603600e+00 -3.44535316e+00
 -3.72226242e+00 -3.99917168e+00 -4.27367303e+00 -4.54095067e+00
 -4.80341249e+00 -5.05624268e+00 -5.29462543e+00 -5.51133703e+00
 -5.70396955e+00 -5.86289139e+00 -5.98087881e+00 -6.05793182e+00
 -6.08441880e+00 -6.06274764e+00 -5.99532625e+00 -5.88697046e+00
 -5.74490397e+00 -5.58116632e+00 -5.41020495e+00 -5.24165149e+00
 -5.08995337e+00 -4.96474223e+00 -4.87564968e+00 -4.82749155e+00
 -4.82749155e+00 -4.87564968e+00 -4.96955804e+00 -5.11403244e+00
 -5.29944125e+00 -5.52578447e+00 -5.78824629e+00 -6.08441880e+00
 -6.40707828e+00 -6.75381683e+00 -7.11981864e+00 -7.49785997e+00
 -7.89034875e+00 -8.29006125e+00 -8.69699746e+00 -9.10634158e+00
 -9.51327780e+00 -9.92021401e+00 -1.03175186e+01 -1.07051916e+01
 -1.10760092e+01 -1.14251556e+01 -1.17429993e+01 -1.20247244e+01
 -1.22606992e+01 -1.24461080e+01 -1.25761350e+01 -1.26507801e+01
 -1.26676354e+01 -1.26315168e+01 -1.25472401e+01 -1.24196211e+01
 -1.22582913e+01 -1.20704746e+01 -1.18682105e+01 -1.16587226e+01
 -1.14468268e+01 -1.12421547e+01 -1.10471143e+01 -1.08689292e+01
 -1.07075995e+01 -1.05655330e+01 -1.04451377e+01 -1.03440056e+01
 -1.02645447e+01 -1.02043470e+01 -1.01610047e+01 -1.01417414e+01
 -1.01417414e+01 -1.01658205e+01 -1.02187944e+01 -1.02982554e+01
 -1.04138349e+01 -1.05631251e+01 -1.07509418e+01 -1.09700613e+01
 -1.12228915e+01 -1.15022087e+01 -1.17959733e+01 -1.20993695e+01
 -1.24003578e+01 -1.26893066e+01 -1.29565842e+01 -1.31973749e+01
 -1.34044549e+01 -1.35826400e+01 -1.37295223e+01 -1.38499176e+01
 -1.39534576e+01 -1.40449580e+01 -1.41340506e+01 -1.42207352e+01
 -1.43098278e+01 -1.44037361e+01 -1.45000524e+01 -1.45915528e+01
 -1.46782375e+01 -1.47504747e+01 -1.48034486e+01 -1.48347514e+01
 -1.48371593e+01 -1.48106723e+01 -1.47576984e+01 -1.46782375e+01
 -1.45746975e+01 -1.44518942e+01 -1.43170515e+01 -1.41701692e+01
 -1.40208790e+01 -1.38739967e+01 -1.37295223e+01 -1.35970874e+01
 -1.34742842e+01 -1.33707442e+01 -1.32864674e+01 -1.32214540e+01
 -1.31781116e+01 -1.31564405e+01 -1.31540326e+01 -1.31636642e+01
 -1.31829275e+01 -1.31973749e+01 -1.32045986e+01 -1.31877433e+01
 -1.31395851e+01 -1.30529005e+01 -1.29204656e+01 -1.27398726e+01
 -1.25135294e+01 -1.22462518e+01 -1.19500793e+01 -1.16322356e+01
 -1.13119840e+01 -1.09989562e+01 -1.07100074e+01 -1.04547693e+01
 -1.02428735e+01 -1.00767279e+01 -9.95633261e+00 -9.88168751e+00
 -9.84797682e+00 -9.84797682e+00 -9.87446379e+00 -9.92262192e+00
 -9.98522749e+00 -1.00574647e+01 -1.01345177e+01 -1.02163865e+01
 -1.02982554e+01 -1.03801242e+01 -1.04619930e+01 -1.05462697e+01
 -1.06257306e+01 -1.07075995e+01 -1.07846525e+01 -1.08617055e+01
 -1.09315348e+01 -1.09965483e+01 -1.10519301e+01 -1.10928645e+01
 -1.11169436e+01 -1.11193515e+01 -1.10928645e+01 -1.10374827e+01
 -1.09483901e+01 -1.08255869e+01 -1.06714809e+01 -1.04884800e+01
 -1.02886237e+01 -1.00815438e+01 -9.87927960e+00 -9.69627870e+00
 -9.54458058e+00 -9.43622479e+00 -9.38084294e+00 -9.38565875e+00
 -9.44826432e+00 -9.56865965e+00 -9.74443683e+00 -9.96596424e+00
 -1.02236102e+01 -1.05053353e+01 -1.08039157e+01 -1.11073120e+01
 -1.14083003e+01 -1.16996570e+01 -1.19741583e+01 -1.22269885e+01]","[ -1.23647503  -1.06241555  -0.89923479  -0.75128423  -0.61856388
  -0.50107373  -0.39881378  -0.30743256  -0.22693005  -0.15077902
  -0.07027652   0.01675322   0.12118891   0.24520629   0.39968408
   0.58462228   0.80437237   1.05675862   1.34178102   1.65291234
   1.97927387   2.31433837   2.64722712   2.96270993   3.25208382
   3.50447007   3.71334144   3.86781923   3.96790343   4.0114183
   3.99836384   3.93526728   3.82430436   3.67417806   3.48706412
   3.27384125   3.03668521   2.78429896   2.51885826   2.24689032
   1.96839515   1.68554849   1.40052609   1.11332795   0.82612981
   0.53893167   0.25173352  -0.03546462  -0.32483851  -0.61203665
  -0.89923479  -1.18860868  -1.47580682  -1.76300496  -2.05237885
  -2.33957699  -2.62677513  -2.91614902  -3.20334716  -3.49054531
  -3.77991919  -4.06711734  -4.35431548  -4.64368936  -4.93088751
  -5.21808565  -5.50528379  -5.79465768  -6.08185582  -6.37122971
  -6.65842785  -6.94780174  -7.23935137  -7.530901    -7.82462637
  -8.12487897  -8.42948307  -8.74279013  -9.06480017  -9.39768893
  -9.7414564  -10.09827833 -10.46597899 -10.84020687 -11.21878624
 -11.59301412 -11.95636329 -12.30448225 -12.62649229 -12.91804192
 -13.17260391 -13.38582677 -13.55771051 -13.68825512 -13.77528486
 -13.82315122 -13.83620568 -13.81879973 -13.7774606  -13.71653978
 -13.64256451 -13.55988625 -13.47285651 -13.38800252 -13.30750001
 -13.23352473 -13.16607668 -13.10515586 -13.05076227 -13.00289591
 -12.95502956 -12.90498746 -12.85059387 -12.78749731 -12.71352203
 -12.62649229 -12.5220566  -12.40456645 -12.27402184 -12.12824703
 -11.97594498 -11.81929145 -11.66046217 -11.50598438 -11.35803382
 -11.22096198 -11.09476886 -10.97945445 -10.87937025 -10.79234051
 -10.71618949 -10.6465657  -10.58346914 -10.5268998  -10.46815473
 -10.4115854  -10.35501607 -10.29627099 -10.23752592 -10.17878084]",-0.4602231888629327,1.9606712603864451,4.152984999999999,0.4982000000000002
017,2,1,csm,62b.png,1,0,24,204,25,1,1,517,neu_feedback_onset,3,"[  2.83646092   2.66336205   2.47977235   2.28044639   2.05751603
   1.81098129   1.53297402   1.22611695   0.88778735   0.51798523
   0.12195602  -0.29767759  -0.73567017  -1.18153088  -1.63001429
  -2.07325229  -2.50862216  -2.92825577  -3.33477582  -3.72555962
  -4.10060716  -4.46516385  -4.816607    -5.16018202  -5.49326619
  -5.82110495  -6.14107557  -6.45055536  -6.7495443   -7.03279699
  -7.29506799  -7.53373461  -7.7409287   -7.91402756  -8.0530312
  -8.15269418  -8.21301651  -8.24186632  -8.24448903  -8.22613006
  -8.19728025  -8.16580773  -8.14220334  -8.13695792  -8.15531689
  -8.20252567  -8.28120697  -8.3939835   -8.53823256  -8.70870871
  -8.90541196  -9.11522877  -9.3329137   -9.54797592  -9.75517002
  -9.94925056 -10.11972671 -10.26397577 -10.38462043 -10.47903799
 -10.55247387 -10.60230536 -10.63640059 -10.66000498 -10.67049582
 -10.67574124 -10.67574124 -10.67311853 -10.66787311 -10.66000498
 -10.65475956 -10.64689143 -10.6390233  -10.63115517 -10.62328704
 -10.61541891 -10.60755078 -10.59968265 -10.58919181 -10.58132368
 -10.57083284 -10.55771929 -10.54460574 -10.52624677 -10.50001967
 -10.46854715 -10.42396108 -10.36888417 -10.29544829 -10.20627615
 -10.10136774  -9.97547766  -9.83647403  -9.68435685  -9.52961695
  -9.37487706  -9.2280053   -9.09949251  -8.99720681  -8.92377093
  -8.8896757   -8.89229841  -8.93950719  -9.02605662  -9.15456942
  -9.32242286  -9.52699424  -9.76303815 -10.02793186 -10.31905268
 -10.63115517 -10.96161664 -11.30256894 -11.65401209 -12.00545524
 -12.35165296 -12.68735985 -13.00733047 -13.30369671 -13.57383584
 -13.81250246 -14.01707384 -14.18492729 -14.3186855  -14.41834848
 -14.48391623 -14.51801146 -14.5285023  -14.51538875 -14.48129352
 -14.43408474 -14.37376241 -14.30557195 -14.22951336 -14.15083205
 -14.07215075 -13.99084674 -13.90954273 -13.82823872 -13.74693471
 -13.6656307  -13.58432668 -13.50302267 -13.41909595 -13.33254652
 -13.24599709 -13.15682495 -13.0650301  -12.97061253 -12.87094955
 -12.76604115 -12.65326462 -12.53261996 -12.40148445 -12.25985811
 -12.10511822 -11.93988749 -11.76678862 -11.59368976 -11.4205909
 -11.25798287 -11.11111111 -10.99308916 -10.90391702 -10.85408553
 -10.84359469 -10.87768992 -10.9511258  -11.06390233 -11.21077409
 -11.38649567 -11.58319892 -11.79301572 -12.01070066 -12.22838559
 -12.44607052 -12.65326462 -12.84996787 -13.03355758 -13.20403373
 -13.36401904 -13.50826809 -13.64464902 -13.77316181 -13.89642918
 -14.01707384 -14.1377185  -14.25836317 -14.37900783 -14.49965249
 -14.61767444 -14.72782826 -14.83273667 -14.92977694 -15.01370366
 -15.08713954 -15.15008458 -15.20253878 -15.24712485 -15.2864655
 -15.31793803 -15.34941055 -15.37563765 -15.40186475 -15.42546914
 -15.44907353 -15.47267792 -15.49628231 -15.5198867  -15.54349109
 -15.56709548 -15.59069987 -15.61430426 -15.63790865 -15.66151304
 -15.68511743 -15.70872182 -15.73232621 -15.7559306  -15.77953499
 -15.80313938 -15.82412106 -15.84772545 -15.87132985 -15.89493424
 -15.91853863 -15.94214302 -15.96574741 -15.9893518  -16.01295619
 -16.03656058 -16.06016497 -16.08376936 -16.10475104 -16.12835543
 -16.15195982 -16.17556421 -16.1991686  -16.22277299 -16.24637738
 -16.26998177 -16.29358616 -16.31719055 -16.34079494 -16.36439933
 -16.38800372 -16.4089854  -16.4325898  -16.45619419 -16.47979858
 -16.50340297 -16.52700736 -16.55061175 -16.57421614 -16.59782053
 -16.62142492 -16.64502931 -16.6686337  -16.69223809 -16.71321977]","[nan nan nan nan nan nan nan nan nan nan nan nan nan nan nan nan nan nan
 nan nan nan nan nan nan nan nan nan nan nan nan nan nan nan nan nan nan
 nan nan nan nan nan nan nan nan nan nan nan nan nan nan nan nan nan nan
 nan nan nan nan nan nan nan nan nan nan nan nan nan nan nan nan nan nan
 nan nan nan nan nan nan nan nan nan nan nan nan nan nan nan nan nan nan
 nan nan nan nan nan nan nan nan nan nan nan nan nan nan nan nan nan nan
 nan nan nan nan nan nan nan nan nan nan nan nan nan nan nan nan nan nan
 nan nan nan nan nan nan nan nan nan nan nan nan nan nan]",-2.3536728122053318e-15,,3.81285,
017,2,1,csp,23a.png,1,1,324,243,325,1,1,386,pos_feedback_onset,4,"[nan nan nan nan nan nan nan nan nan nan nan nan nan nan nan nan nan nan
 nan nan nan nan nan nan nan nan nan nan nan nan nan nan nan nan nan nan
 nan nan nan nan nan nan nan nan nan nan nan nan nan nan nan nan nan nan
 nan nan nan nan nan nan nan nan nan nan nan nan nan nan nan nan nan nan
 nan nan nan nan nan nan nan nan nan nan nan nan nan nan nan nan nan nan
 nan nan nan nan nan nan nan nan nan nan nan nan nan nan nan nan nan nan
 nan nan nan nan nan nan nan nan nan nan nan nan nan nan nan nan nan nan
 nan nan nan nan nan nan nan nan nan nan nan nan nan nan nan nan nan nan
 nan nan nan nan nan nan nan nan nan nan nan nan nan nan nan nan nan nan
 nan nan nan nan nan nan nan nan nan nan nan nan nan nan nan nan nan nan
 nan nan nan nan nan nan nan nan nan nan nan nan nan nan nan nan nan nan
 nan nan nan nan nan nan nan nan nan nan nan nan nan nan nan nan nan nan
 nan nan nan nan nan nan nan nan nan nan nan nan nan nan nan nan nan nan
 nan nan nan nan nan nan nan nan nan nan nan nan nan nan nan nan nan nan
 nan nan nan nan nan nan nan nan]","[ -0.98280499  -0.99504924  -0.99504924  -0.97668287  -0.94199083
  -0.88485101  -0.8073041   -0.7052687   -0.5787448   -0.42773241
  -0.25019081  -0.05020142   0.17223576   0.41508002   0.67220923
   0.93954198   1.21095615   1.47828891   1.73541812   1.97214025
   2.18029247   2.35171195   2.48027656   2.55986417   2.58435267
   2.55170134   2.45986948   2.3129385    2.10886769   1.8578606
   1.56195794   1.23340394   0.87832074   0.50691188   0.12734018
  -0.25223151  -0.62568109  -0.99096783  -1.34401032  -1.68480856
  -2.01540326  -2.33783514  -2.65006347  -2.95821038  -3.26023517
  -3.55817855  -3.85408121  -4.14590246  -4.4336423   -4.7132193
  -4.98463347  -5.24176268  -5.47848482  -5.69071845  -5.86826005
  -6.0070282   -6.09681935  -6.1335521   -6.11110431  -6.0315167
  -5.89682996  -5.71316624  -5.49072906  -5.24380339  -4.98871488
  -4.7377078   -4.5111892   -4.32344406  -4.18875733  -4.11733255
  -4.11529184  -4.18467592  -4.32956619  -4.54384053  -4.82137682
  -5.15401224  -5.53358393  -5.94988837  -6.39272202  -6.85800345
  -7.33552914  -7.82121765  -8.30894687  -8.79463539  -9.27216107
  -9.7374425  -10.18435756 -10.60678413 -10.99655937 -11.34347973
 -11.64346382 -11.89038949 -12.07813463 -12.20465853 -12.2740426
 -12.28628685 -12.25159481 -12.17608862 -12.07405321 -11.95569215
 -11.83120896 -11.71080718 -11.60060895 -11.50469567 -11.42918947
 -11.37204965 -11.33327619 -11.3087877  -11.30062486 -11.30062486
 -11.3087877  -11.32307265 -11.34143903 -11.36184611 -11.38225319
 -11.40266027 -11.42102664 -11.43939301 -11.45163726 -11.45980009
 -11.45980009 -11.45163726 -11.43123018 -11.40061956 -11.35572398
 -11.29858416 -11.23124079 -11.15573459 -11.07818769 -11.0047222
 -10.94350096 -10.90064609 -10.88227972 -10.89860538 -10.95166379
 -11.04349565 -11.17206026 -11.3353169  -11.52714346 -11.73937709]",,0.42115112259352594,3.5691,0.14032999999999962
017,2,1,csp,53a.png,1,1,272,271,269,1,1,417,pos_feedback_onset,5,"[nan nan nan nan nan nan nan nan nan nan nan nan nan nan nan nan nan nan
 nan nan nan nan nan nan nan nan nan nan nan nan nan nan nan nan nan nan
 nan nan nan nan nan nan nan nan nan nan nan nan nan nan nan nan nan nan
 nan nan nan nan nan nan nan nan nan nan nan nan nan nan nan nan nan nan
 nan nan nan nan nan nan nan nan nan nan nan nan nan nan nan nan nan nan
 nan nan nan nan nan nan nan nan nan nan nan nan nan nan nan nan nan nan
 nan nan nan nan nan nan nan nan nan nan nan nan nan nan nan nan nan nan
 nan nan nan nan nan nan nan nan nan nan nan nan nan nan nan nan nan nan
 nan nan nan nan nan nan nan nan nan nan nan nan nan nan nan nan nan nan
 nan nan nan nan nan nan nan nan nan nan nan nan nan nan nan nan nan nan
 nan nan nan nan nan nan nan nan nan nan nan nan nan nan nan nan nan nan
 nan nan nan nan nan nan nan nan nan nan nan nan nan nan nan nan nan nan
 nan nan nan nan nan nan nan nan nan nan nan nan nan nan nan nan nan nan
 nan nan nan nan nan nan nan nan nan nan nan nan nan nan nan nan nan nan
 nan nan nan nan nan nan nan nan]","[nan nan nan nan nan nan nan nan nan nan nan nan nan nan nan nan nan nan
 nan nan nan nan nan nan nan nan nan nan nan nan nan nan nan nan nan nan
 nan nan nan nan nan nan nan nan nan nan nan nan nan nan nan nan nan nan
 nan nan nan nan nan nan nan nan nan nan nan nan nan nan nan nan nan nan
 nan nan nan nan nan nan nan nan nan nan nan nan nan nan nan nan nan nan
 nan nan nan nan nan nan nan nan nan nan nan nan nan nan nan nan nan nan
 nan nan nan nan nan nan nan nan nan nan nan nan nan nan nan nan nan nan
 nan nan nan nan nan nan nan nan nan nan nan nan nan nan]",,,4.448805000000001,1.1347450000000006
017,2,1,csp,59a.png,1,1,96,97,97,1,1,765,neg_feedback_onset,6,"[nan nan nan nan nan nan nan nan nan nan nan nan nan nan nan nan nan nan
 nan nan nan nan nan nan nan nan nan nan nan nan nan nan nan nan nan nan
 nan nan nan nan nan nan nan nan nan nan nan nan nan nan nan nan nan nan
 nan nan nan nan nan nan nan nan nan nan nan nan nan nan nan nan nan nan
 nan nan nan nan nan nan nan nan nan nan nan nan nan nan nan nan nan nan
 nan nan nan nan nan nan nan nan nan nan nan nan nan nan nan nan nan nan
 nan nan nan nan nan nan nan nan nan nan nan nan nan nan nan nan nan nan
 nan nan nan nan nan nan nan nan nan nan nan nan nan nan nan nan nan nan
 nan nan nan nan nan nan nan nan nan nan nan nan nan nan nan nan nan nan
 nan nan nan nan nan nan nan nan nan nan nan nan nan nan nan nan nan nan
 nan nan nan nan nan nan nan nan nan nan nan nan nan nan nan nan nan nan
 nan nan nan nan nan nan nan nan nan nan nan nan nan nan nan nan nan nan
 nan nan nan nan nan nan nan nan nan nan nan nan nan nan nan nan nan nan
 nan nan nan nan nan nan nan nan nan nan nan nan nan nan nan nan nan nan
 nan nan nan nan nan nan nan nan]","[nan nan nan nan nan nan nan nan nan nan nan nan nan nan nan nan nan nan
 nan nan nan nan nan nan nan nan nan nan nan nan nan nan nan nan nan nan
 nan nan nan nan nan nan nan nan nan nan nan nan nan nan nan nan nan nan
 nan nan nan nan nan nan nan nan nan nan nan nan nan nan nan nan nan nan
 nan nan nan nan nan nan nan nan nan nan nan nan nan nan nan nan nan nan
 nan nan nan nan nan nan nan nan nan nan nan nan nan nan nan nan nan nan
 nan nan nan nan nan nan nan nan nan nan nan nan nan nan nan nan nan nan
 nan nan nan nan nan nan nan nan nan nan nan nan nan nan]",,,3.6190450000000007,0.15968499999999963
017,2,1,csm,34b.png,1,1,280,279,279,1,1,330,neu_feedback_onset,7,"[nan nan nan nan nan nan nan nan nan nan nan nan nan nan nan nan nan nan
 nan nan nan nan nan nan nan nan nan nan nan nan nan nan nan nan nan nan
 nan nan nan nan nan nan nan nan nan nan nan nan nan nan nan nan nan nan
 nan nan nan nan nan nan nan nan nan nan nan nan nan nan nan nan nan nan
 nan nan nan nan nan nan nan nan nan nan nan nan nan nan nan nan nan nan
 nan nan nan nan nan nan nan nan nan nan nan nan nan nan nan nan nan nan
 nan nan nan nan nan nan nan nan nan nan nan nan nan nan nan nan nan nan
 nan nan nan nan nan nan nan nan nan nan nan nan nan nan nan nan nan nan
 nan nan nan nan nan nan nan nan nan nan nan nan nan nan nan nan nan nan
 nan nan nan nan nan nan nan nan nan nan nan nan nan nan nan nan nan nan
 nan nan nan nan nan nan nan nan nan nan nan nan nan nan nan nan nan nan
 nan nan nan nan nan nan nan nan nan nan nan nan nan nan nan nan nan nan
 nan nan nan nan nan nan nan nan nan nan nan nan nan nan nan nan nan nan
 nan nan nan nan nan nan nan nan nan nan nan nan nan nan nan nan nan nan
 nan nan nan nan nan nan nan nan]","[nan nan nan nan nan nan nan nan nan nan nan nan nan nan nan nan nan nan
 nan nan nan nan nan nan nan nan nan nan nan nan nan nan nan nan nan nan
 nan nan nan nan nan nan nan nan nan nan nan nan nan nan nan nan nan nan
 nan nan nan nan nan nan nan nan nan nan nan nan nan nan nan nan nan nan
 nan nan nan nan nan nan nan nan nan nan nan nan nan nan nan nan nan nan
 nan nan nan nan nan nan nan nan nan nan nan nan nan nan nan nan nan nan
 nan nan nan nan nan nan nan nan nan nan nan nan nan nan nan nan nan nan
 nan nan nan nan nan nan nan nan nan nan nan nan nan nan]",,,3.5079000000000007,
017,2,1,csp,40a.png,1,1,316,262,318,1,0,451,neg_feedback_onset,8,"[-2.10505471e+00 -1.78590311e+00 -1.48597752e+00 -1.20335532e+00
 -9.38036526e-01 -6.88098529e-01 -4.53541333e-01 -2.30519736e-01
 -2.09563397e-02  1.75148857e-01  3.57795854e-01  5.25062052e-01
  6.76947450e-01  8.11529448e-01  9.24962846e-01  1.01340244e+00
  1.07684824e+00  1.11530024e+00  1.12491324e+00  1.10953244e+00
  1.07108044e+00  1.01532504e+00  9.48034045e-01  8.73052647e-01
  7.98071248e-01  7.30780249e-01  6.76947450e-01  6.36572850e-01
  6.15424251e-01  6.13501651e-01  6.32727650e-01  6.71179650e-01
  7.25012449e-01  7.96148648e-01  8.82665646e-01  9.76873045e-01
  1.08069344e+00  1.18835904e+00  1.29410204e+00  1.39792244e+00
  1.49020724e+00  1.57287904e+00  1.64209263e+00  1.69784803e+00
  1.74206783e+00  1.77667463e+00  1.81128143e+00  1.84781083e+00
  1.89203063e+00  1.95355383e+00  2.03045783e+00  2.12851043e+00
  2.24386643e+00  2.37652582e+00  2.51687562e+00  2.66299322e+00
  2.80718822e+00  2.94369281e+00  3.06673921e+00  3.17440481e+00
  3.26284441e+00  3.33398061e+00  3.38781341e+00  3.42434281e+00
  3.44549141e+00  3.45318181e+00  3.44549141e+00  3.42434281e+00
  3.39165861e+00  3.34743881e+00  3.29360601e+00  3.23208281e+00
  3.16286921e+00  3.08981041e+00  3.01482901e+00  2.93792501e+00
  2.86294362e+00  2.78796222e+00  2.71298082e+00  2.63607682e+00
  2.55532762e+00  2.46688802e+00  2.37075802e+00  2.26309243e+00
  2.14196863e+00  2.00546403e+00  1.85550123e+00  1.69208023e+00
  1.51135584e+00  1.31525064e+00  1.10376464e+00  8.76897846e-01
  6.32727650e-01  3.71254054e-01  9.24770586e-02 -2.01680737e-01
 -5.13141932e-01 -8.39983927e-01 -1.18028412e+00 -1.53211992e+00
 -1.89356871e+00 -2.26463051e+00 -2.63953750e+00 -3.01828969e+00
 -3.40088709e+00 -3.78348448e+00 -4.16800448e+00 -4.54867927e+00
 -4.92743146e+00 -5.29849326e+00 -5.65994205e+00 -6.00985525e+00
 -6.34054244e+00 -6.65008104e+00 -6.92885803e+00 -7.17495083e+00
 -7.38259163e+00 -7.54985782e+00 -7.67290422e+00 -7.75749862e+00
 -7.80556362e+00 -7.82094442e+00 -7.81517662e+00 -7.79402802e+00
 -7.76711162e+00 -7.74019522e+00 -7.72289182e+00 -7.71904662e+00
 -7.72865962e+00 -7.75557602e+00 -7.79979582e+00 -7.85747382e+00
 -7.93053262e+00 -8.01320442e+00 -8.10548922e+00 -8.20354181e+00
 -8.30928481e+00 -8.41695041e+00 -8.52653861e+00 -8.63804941e+00
 -8.74571501e+00 -8.85145800e+00 -8.95335580e+00 -9.04756320e+00
 -9.13215760e+00 -9.20521640e+00 -9.26289440e+00 -9.30326900e+00
 -9.32634020e+00 -9.32826280e+00 -9.30903680e+00 -9.26866220e+00
 -9.21098420e+00 -9.13600280e+00 -9.05140840e+00 -8.96104620e+00
 -8.86876140e+00 -8.78416700e+00 -8.71303081e+00 -8.65919801e+00
 -8.62651381e+00 -8.62074601e+00 -8.63612681e+00 -8.67265621e+00
 -8.72456641e+00 -8.78224440e+00 -8.83799980e+00 -8.87837440e+00
 -8.89567780e+00 -8.87645180e+00 -8.81877380e+00 -8.71495341e+00
 -8.56883581e+00 -8.37849841e+00 -8.15547681e+00 -7.90938402e+00
 -7.64983302e+00 -7.39220463e+00 -7.14611183e+00 -6.92309023e+00
 -6.72506244e+00 -6.55971884e+00 -6.42513684e+00 -6.31554864e+00
 -6.22518644e+00 -6.14443725e+00 -6.06368805e+00 -5.97717105e+00
 -5.87142805e+00 -5.74069125e+00 -5.57919285e+00 -5.38501026e+00
 -5.15429826e+00 -4.88897946e+00 -4.59289907e+00 -4.26990227e+00
 -3.92767948e+00 -3.57392108e+00 -3.21631749e+00 -2.86448170e+00
 -2.52418150e+00 -2.20502991e+00 -1.90894951e+00 -1.64170811e+00
 -1.40522832e+00 -1.19758752e+00 -1.02070832e+00 -8.66900327e-01
 -7.36163529e-01 -6.22730130e-01 -5.22754932e-01 -4.34315333e-01
 -3.55488735e-01 -2.82429936e-01 -2.15138937e-01 -1.53615738e-01
 -9.59377385e-02 -4.40275393e-02  4.03745994e-03  4.82572593e-02
  8.86318586e-02  1.27083858e-01  1.65535857e-01  2.00142657e-01
  2.34749456e-01  2.67433656e-01  2.98195255e-01  3.25111655e-01
  3.52028055e-01  3.77021854e-01  4.00093054e-01  4.21241654e-01
  4.42390253e-01  4.63538853e-01  4.84687453e-01  5.05836052e-01
  5.26984652e-01  5.48133252e-01  5.69281851e-01  5.92353051e-01
  6.13501651e-01  6.36572850e-01  6.59644050e-01  6.80792650e-01
  7.03863849e-01  7.26935049e-01  7.48083648e-01  7.71154848e-01
  7.94226048e-01  8.17297247e-01  8.38445847e-01  8.61517047e-01
  8.84588246e-01  9.05736846e-01  9.28808046e-01  9.51879245e-01
  9.73027845e-01  9.96099045e-01  1.01917024e+00  1.04224144e+00]","[-2.77549876 -2.74964224 -2.64820511 -2.47516531 -2.23648972 -1.94610109
 -1.6099663  -1.24001913 -0.84620441 -0.43250006 -0.00885089  0.42076517
  0.85435916  1.28795315  1.71756921  2.14320734  2.5569117   2.95868227
  3.33857425  3.69062075  4.00487694  4.27338698  4.48421708  4.62742243
  4.69106926  4.6672017   4.55184183  4.34498965  4.05261206  3.68664282
  3.26498261  2.80752107  2.33812574  1.88464212  1.46298191  1.09303475
  0.78275648  0.53612504  0.35314042  0.22584678  0.14827721  0.10849794
  0.10054209  0.11446483  0.14231032  0.18208958  0.22584678  0.27557086
  0.3272839   0.37899695  0.43269895  0.48640096  0.54010297  0.59380498
  0.64750698  0.70120899  0.754911    0.80861301  0.86231501  0.91601702
  0.96971903  1.02342104  1.07712304  1.13082505  1.18452706  1.23822907
  1.29193107  1.34563308  1.39933509  1.4530371   1.5067391   1.56044111
  1.61215416  1.6638672   1.71558025  1.76331536  1.80707255  1.84685182
  1.87867523  1.90055383  1.91049864  1.90254279  1.8746973   1.82497322
  1.74939262  1.64795549  1.51469496  1.35358893  1.16463743  0.95181836
  0.7171207   0.46452237  0.20197922 -0.06255289 -0.32509604 -0.57570541
 -0.81040307 -1.01924421 -1.2042178  -1.35736797 -1.48068369 -1.57615392
 -1.6477566  -1.69748068 -1.73129305 -1.75317165 -1.76908336 -1.78101714
 -1.79096195 -1.80090677 -1.81085158 -1.81482951 -1.81482951 -1.80488469
 -1.78101714 -1.73725994 -1.66764623 -1.56620911 -1.42897064 -1.25195291
 -1.03316696 -0.77460173 -0.47824621 -0.15006728  0.20396818  0.57192638
  0.94585147  1.3177876   1.67977891  2.02585851  2.35801537  2.67426053
  2.9785719   3.27492743  3.56730502  3.85968262  4.15603814  4.45836056
  4.76664986  5.08090605]",2.7669578123888465,1.915802545011061,5.20129,-0.05321499999999979
017,2,1,csm,66b.png,1,1,44,274,43,1,1,441,neu_feedback_onset,9,"[ 2.54729692e+00  2.13021141e+00  1.70928179e+00  1.30180654e+00
  9.15473873e-01  5.63738163e-01  2.50443514e-01 -2.05659677e-02
 -2.49290282e-01 -4.37651482e-01 -5.89493674e-01 -7.10583016e-01
 -8.04763616e-01 -8.75879580e-01 -9.25852959e-01 -9.58527861e-01
 -9.75826339e-01 -9.75826339e-01 -9.62371967e-01 -9.31619118e-01
 -8.89333951e-01 -8.33594412e-01 -7.68244608e-01 -6.93284539e-01
 -6.12558310e-01 -5.24143870e-01 -4.33807376e-01 -3.35782670e-01
 -2.35835910e-01 -1.28200939e-01 -1.28777555e-02  1.12055693e-01
  2.48521461e-01  3.98441599e-01  5.63738163e-01  7.46333203e-01
  9.44304668e-01  1.15765256e+00  1.37868866e+00  1.60741297e+00
  1.83037113e+00  2.04564107e+00  2.24169048e+00  2.41275321e+00
  2.54921897e+00  2.64724368e+00  2.70298322e+00  2.71067143e+00
  2.67223037e+00  2.58766003e+00  2.45696043e+00  2.28397565e+00
  2.07447187e+00  1.83421524e+00  1.56897191e+00  1.28835217e+00
  9.98122154e-01  7.09814195e-01  4.29194448e-01  1.67795232e-01
 -7.05393473e-02 -2.76199025e-01 -4.41495588e-01 -5.64506984e-01
 -6.41389106e-01 -6.70219902e-01 -6.52921425e-01 -5.91415727e-01
 -4.91468967e-01 -3.64613466e-01 -2.20459486e-01 -7.05393473e-02
  6.78484730e-02  1.81249604e-01  2.60053779e-01  2.92728681e-01
  2.73508150e-01  2.00470134e-01  7.55366853e-02 -9.74480902e-02
 -3.10795980e-01 -5.54896718e-01 -8.22062094e-01 -1.10652595e+00
 -1.40060006e+00 -1.70044034e+00 -2.00412473e+00 -2.30780911e+00
 -2.60957144e+00 -2.90748966e+00 -3.19964173e+00 -3.48410558e+00
 -3.75511506e+00 -4.00882607e+00 -4.24331654e+00 -4.45282032e+00
 -4.63733742e+00 -4.79686782e+00 -4.92948948e+00 -5.04096856e+00
 -5.13322711e+00 -5.21395334e+00 -5.28891341e+00 -5.36387348e+00
 -5.44459970e+00 -5.53685825e+00 -5.64257117e+00 -5.76366051e+00
 -5.89436012e+00 -6.03274794e+00 -6.17113576e+00 -6.29991332e+00
 -6.41331445e+00 -6.49980683e+00 -6.55362432e+00 -6.56900074e+00
 -6.54593611e+00 -6.48635246e+00 -6.39601597e+00 -6.28261484e+00
 -6.15575934e+00 -6.02890383e+00 -5.91358065e+00 -5.81940005e+00
 -5.75405025e+00 -5.72329740e+00 -5.73098561e+00 -5.77519283e+00
 -5.85207495e+00 -5.95778787e+00 -6.08656543e+00 -6.23071941e+00
 -6.38640570e+00 -6.54978021e+00 -6.71699883e+00 -6.88613950e+00
 -7.05528017e+00 -7.22249878e+00 -7.38971740e+00 -7.55693602e+00
 -7.72031053e+00 -7.87984093e+00 -8.03744928e+00 -8.18929147e+00
 -8.33921161e+00 -8.48336559e+00 -8.62367547e+00 -8.76206329e+00
 -8.90045111e+00 -9.04076098e+00 -9.18875906e+00 -9.34636742e+00
 -9.51358603e+00 -9.69810313e+00 -9.89607459e+00 -1.01113445e+01
 -1.03400688e+01 -1.05784034e+01 -1.08225042e+01 -1.10704490e+01
 -1.13145497e+01 -1.15528843e+01 -1.17796866e+01 -1.19911124e+01
 -1.21871618e+01 -1.23659128e+01 -1.25254432e+01 -1.26638310e+01
 -1.27791542e+01 -1.28694907e+01 -1.29348405e+01 -1.29713595e+01
 -1.29809698e+01 -1.29617492e+01 -1.29175420e+01 -1.28521922e+01
 -1.27714660e+01 -1.26811295e+01 -1.25927150e+01 -1.25100668e+01
 -1.24408728e+01 -1.23928215e+01 -1.23659128e+01 -1.23620687e+01
 -1.23774451e+01 -1.24120420e+01 -1.24562493e+01 -1.25100668e+01
 -1.25638842e+01 -1.26177017e+01 -1.26695972e+01 -1.27176485e+01
 -1.27656998e+01 -1.28195173e+01 -1.28810230e+01 -1.29559831e+01
 -1.30463196e+01 -1.31577986e+01 -1.32884982e+01 -1.34364963e+01
 -1.36017929e+01 -1.37786218e+01 -1.39592948e+01 -1.41418898e+01
 -1.43206407e+01 -1.44917035e+01 -1.46531559e+01 -1.48030761e+01
 -1.49414639e+01 -1.50740855e+01 -1.52028631e+01 -1.53335627e+01
 -1.54719505e+01 -1.56237927e+01 -1.57890893e+01 -1.59736064e+01
 -1.61773440e+01 -1.64003021e+01 -1.66367147e+01 -1.68846595e+01
 -1.71364485e+01 -1.73901595e+01 -1.76419484e+01 -1.78860492e+01
 -1.81224617e+01 -1.83531081e+01 -1.85818324e+01 -1.88086346e+01
 -1.90431251e+01 -1.92853038e+01 -1.95409368e+01 -1.98081022e+01
 -2.00887220e+01 -2.03789520e+01 -2.06768702e+01 -2.09767105e+01
 -2.12746287e+01 -2.15648587e+01 -2.18454785e+01 -2.21145659e+01
 -2.23721210e+01 -2.26142997e+01 -2.28430240e+01 -2.30525278e+01
 -2.32447331e+01 -2.34100297e+01 -2.35484175e+01 -2.36502863e+01
 -2.37137140e+01 -2.37310125e+01 -2.37041038e+01 -2.36310658e+01
 -2.35157426e+01 -2.33677445e+01 -2.31909156e+01 -2.29967882e+01
 -2.27930506e+01 -2.25950792e+01 -2.24067180e+01 -2.22394993e+01]","[ -4.33800538  -3.89328791  -3.42595768  -2.9360147   -2.43350908
  -1.92346588  -1.41342268  -0.90840453  -0.4134365    0.06394384
   0.52122395   0.95337878   1.36040834   1.74231261   2.09657907
   2.42572025   2.72973615   3.01113929   3.27244221   3.50861986
   3.72469727   3.91564941   4.08147626   4.21966531   4.32519149
   4.39554227   4.42569261   4.41815503   4.37041699   4.28499104
   4.16941474   4.02871317   3.87544896   3.72218474   3.57897064
   3.46088182   3.37043081   3.32018025   3.30761761   3.33274289
   3.39555609   3.4860071    3.60409592   3.73977244   3.89052413
   4.05132592   4.21966531   4.39051722   4.56639418   4.74227115
   4.91814812   5.09653761   5.27241458   5.45080407   5.62919357
   5.80758306   5.98597256   6.16184952   6.34023902   6.51862851
   6.69450548   6.87289497   7.04877194   7.22464891   7.39801334
   7.56886525   7.73469211   7.89298138   8.04122054   8.171872
   8.28242323   8.36784919   8.41558722   8.41809975   8.37036172
   8.25729795   8.07639593   7.81760554   7.47841424   7.053797
   6.54375379   5.95079716   5.28246469   4.54378143   3.74731002
   2.89807553   2.01366564   1.10161794   0.17449508  -0.7626779
  -1.69733835  -2.62446122  -3.54153397  -4.44101903  -5.32040386
  -6.17717594  -7.00631021  -7.80278162  -8.55905258  -9.27009803
  -9.92838039 -10.52636207 -11.05901803 -11.52383573 -11.92081516
 -12.25246887 -12.52382191 -12.74241185 -12.91577629 -13.05396533
 -13.16451657 -13.25245505 -13.3278309  -13.3906441  -13.45094477
 -13.50370786 -13.55647095 -13.60672152 -13.65445955 -13.70471011
 -13.75496067 -13.80269871 -13.85294927 -13.9006873  -13.95093786
 -14.00118843 -14.05395152 -14.10671461 -14.16199022 -14.21726584
 -14.28007904 -14.34289225 -14.4107305  -14.48359382 -14.56148219
 -14.64439562 -14.7323341  -14.82529764 -14.92328624 -15.02378736]",1.0334879304678046,5.517762945486954,5.20277,0.18128999999999973
017,2,1,csm,40b.png,1,0,112,104,NaN,0,1,417,neu_feedback_onset,10,"[nan nan nan nan nan nan nan nan nan nan nan nan nan nan nan nan nan nan
 nan nan nan nan nan nan nan nan nan nan nan nan nan nan nan nan nan nan
 nan nan nan nan nan nan nan nan nan nan nan nan nan nan nan nan nan nan
 nan nan nan nan nan nan nan nan nan nan nan nan nan nan nan nan nan nan
 nan nan nan nan nan nan nan nan nan nan nan nan nan nan nan nan nan nan
 nan nan nan nan nan nan nan nan nan nan nan nan nan nan nan nan nan nan
 nan nan nan nan nan nan nan nan nan nan nan nan nan nan nan nan nan nan
 nan nan nan nan nan nan nan nan nan nan nan nan nan nan nan nan nan nan
 nan nan nan nan nan nan nan nan nan nan nan nan nan nan nan nan nan nan
 nan nan nan nan nan nan nan nan nan nan nan nan nan nan nan nan nan nan
 nan nan nan nan nan nan nan nan nan nan nan nan nan nan nan nan nan nan
 nan nan nan nan nan nan nan nan nan nan nan nan nan nan nan nan nan nan
 nan nan nan nan nan nan nan nan nan nan nan nan nan nan nan nan nan nan
 nan nan nan nan nan nan nan nan nan nan nan nan nan nan nan nan nan nan
 nan nan nan nan nan nan nan nan]","[-1.53063815 -1.38351122 -1.23431207 -1.08096851 -0.92762495 -0.77220917
 -0.61264898 -0.45101657 -0.28731196 -0.11739071  0.05253053  0.22866841
  0.40480628  0.58301637  0.76122646  0.93943655  1.11350221  1.28135125
  1.44091144  1.59218279  1.73102088  1.85742571  1.96725286  2.06257453
  2.14339074  2.20762926  2.25321788  2.28430104  2.30087872  2.30087872
  2.28430104  2.25529009  2.2159181   2.16618505  2.11230758  2.05843011
  2.00869707  1.96725286  1.94031413  1.92788086  1.9340975   1.96103623
  2.00455265  2.06671896  2.14131853  2.23042357  2.32781745  2.43142797
  2.54125512  2.65315447  2.76919825  2.88524203  3.00335802  3.121474
  3.2416622   3.35977819  3.47996639  3.6022268   3.72448721  3.85089203
  3.97729686  4.10991832  4.24253978  4.38137787  4.52021597  4.66319848
  4.80410878  4.94501908  5.07764054  5.20404537  5.31801694  5.41748303
  5.49829923  5.56460996  5.61019859  5.63920953  5.6516428   5.64957059
  5.63713732  5.61434301  5.58325986  5.54596007  5.50451586  5.45892724
  5.40712198  5.3511723   5.28900599  5.21855084  5.13566243  5.04241296
  4.93258582  4.80618099  4.66319848  4.50156607  4.32335599  4.12649601
  3.91305834  3.683043    3.4426666   3.18778473  2.92461402  2.65315447
  2.38169492  2.11023537  1.84706466  1.59839942  1.3725285   1.17566852
  1.01610833  0.89799234  0.82546498  0.79852624  0.81717614  0.87519803
  0.96844749  1.08656348  1.21918494  1.36009524  1.49893333  1.62533816
  1.73723752  1.82634256  1.89265329  1.93202529  1.94860297  1.94238634
  1.91751981  1.8740034   1.81598151  1.74552636  1.66471015  1.57767732
  1.48857228  1.40153945  1.32279545  1.25441251  1.20675168  1.18188515
  1.18395736  1.21711273]",,4.926835434381874,3.09755,
017,2,1,csp,24a.png,1,1,228,271,227,1,1,362,pos_feedback_onset,11,"[ 5.87052128e-01  5.07235388e-01  4.31409484e-01  3.65560673e-01
  3.09688954e-01  2.65789747e-01  2.29872213e-01  2.01936354e-01
  1.75995913e-01  1.48060054e-01  1.12142521e-01  6.02616393e-02
 -7.58259037e-03 -9.53810052e-02 -2.03133605e-01 -3.28844972e-01
 -4.68524268e-01 -6.16185239e-01 -7.65841628e-01 -9.09511761e-01
 -1.03721855e+00 -1.14497115e+00 -1.22478789e+00 -1.27666877e+00
 -1.29462754e+00 -1.28265502e+00 -1.24075124e+00 -1.17290701e+00
 -1.08111775e+00 -9.73365154e-01 -8.49649205e-01 -7.15956165e-01
 -5.74281450e-01 -4.26620479e-01 -2.78959509e-01 -1.29303120e-01
  2.03532689e-02  1.68014239e-01  3.11684373e-01  4.49368250e-01
  5.79070454e-01  6.94804728e-01  7.96571073e-01  8.74392395e-01
  9.22282440e-01  9.34254951e-01  9.00332836e-01  8.12534421e-01
  6.62878032e-01  4.47372832e-01  1.64023402e-01 -1.85174839e-01
 -5.94235635e-01 -1.05318189e+00 -1.54405485e+00 -2.05687741e+00
 -2.57169539e+00 -3.07454085e+00 -3.55543672e+00 -4.00440588e+00
 -4.41945294e+00 -4.79858245e+00 -5.14578528e+00 -5.46505224e+00
 -5.76037418e+00 -6.03973277e+00 -6.30312802e+00 -6.56053701e+00
 -6.80996432e+00 -7.05739622e+00 -7.30083728e+00 -7.54228292e+00
 -7.78372856e+00 -8.02317878e+00 -8.26262900e+00 -8.50008381e+00
 -8.73554319e+00 -8.96701174e+00 -9.19049862e+00 -9.40600382e+00
 -9.60754109e+00 -9.79311501e+00 -9.95673933e+00 -1.00924278e+01
 -1.02001804e+01 -1.02740109e+01 -1.03139192e+01 -1.03238963e+01
 -1.03079330e+01 -1.02760063e+01 -1.02380933e+01 -1.02081621e+01
 -1.01941941e+01 -1.02081621e+01 -1.02580475e+01 -1.03458459e+01
 -1.04715573e+01 -1.06311908e+01 -1.08167647e+01 -1.10202974e+01
 -1.12318118e+01 -1.14453215e+01 -1.16508496e+01 -1.18464007e+01
 -1.20319746e+01 -1.22095668e+01 -1.23811728e+01 -1.25487880e+01
 -1.27183986e+01 -1.28939954e+01 -1.30715876e+01 -1.32511753e+01
 -1.34307630e+01 -1.36043644e+01 -1.37679887e+01 -1.39176451e+01
 -1.40513381e+01 -1.41710632e+01 -1.42748250e+01 -1.43666143e+01
 -1.44504218e+01 -1.45342294e+01 -1.46180370e+01 -1.47078308e+01
 -1.48056063e+01 -1.49073727e+01 -1.50151253e+01 -1.51208825e+01
 -1.52226488e+01 -1.53144381e+01 -1.53882685e+01 -1.54401494e+01
 -1.54660899e+01 -1.54620990e+01 -1.54261815e+01 -1.53583373e+01
 -1.52585663e+01 -1.51308595e+01 -1.49752169e+01 -1.47996201e+01
 -1.46040691e+01 -1.43985409e+01 -1.41850312e+01 -1.39735168e+01
 -1.37699841e+01 -1.35804194e+01 -1.34128042e+01 -1.32751203e+01
 -1.31733540e+01 -1.31134914e+01 -1.30955327e+01 -1.31254639e+01
 -1.31992944e+01 -1.33130333e+01 -1.34666805e+01 -1.36502590e+01
 -1.38577825e+01 -1.40852602e+01 -1.43227150e+01 -1.45681515e+01
 -1.48155834e+01 -1.50630153e+01 -1.53084518e+01 -1.55518929e+01
 -1.57913431e+01 -1.60268025e+01 -1.62582710e+01 -1.64857487e+01
 -1.67052448e+01 -1.69167591e+01 -1.71182964e+01 -1.73078612e+01
 -1.74854534e+01 -1.76510731e+01 -1.78087112e+01 -1.79583676e+01
 -1.81080240e+01 -1.82596758e+01 -1.84233001e+01 -1.86028878e+01
 -1.88044250e+01 -1.90319028e+01 -1.92833255e+01 -1.95626841e+01
 -1.98639923e+01 -2.01832592e+01 -2.05125033e+01 -2.08397519e+01
 -2.11570235e+01 -2.14563363e+01 -2.17257178e+01 -2.19571863e+01
 -2.21487465e+01 -2.22924166e+01 -2.23921875e+01 -2.24480593e+01
 -2.24620272e+01 -2.24400776e+01 -2.23901921e+01 -2.23143662e+01
 -2.22205815e+01 -2.21128289e+01 -2.19931038e+01 -2.18673925e+01
 -2.17336994e+01 -2.15960155e+01 -2.14503500e+01 -2.12947074e+01
 -2.11290876e+01 -2.09455091e+01 -2.07399810e+01 -2.05065170e+01
 -2.02351401e+01 -1.99178686e+01 -1.95487161e+01 -1.91236920e+01
 -1.86348145e+01 -1.80860744e+01 -1.74814626e+01 -1.68289607e+01
 -1.61425367e+01 -1.54381540e+01 -1.47377621e+01 -1.40613152e+01
 -1.34287675e+01 -1.28540870e+01 -1.23552324e+01 -1.19322037e+01
 -1.15909871e+01 -1.13255964e+01 -1.11240592e+01 -1.09783936e+01
 -1.08706410e+01 -1.07908243e+01 -1.07269709e+01 -1.06710992e+01
 -1.06152274e+01 -1.05573603e+01 -1.04974977e+01 -1.04356398e+01
 -1.03737818e+01 -1.03119238e+01 -1.02500658e+01 -1.01882079e+01
 -1.01263499e+01 -1.00624965e+01 -9.99265686e+00 -9.91683096e+00
 -9.83102796e+00 -9.73325245e+00 -9.61751818e+00 -9.48781597e+00
 -9.33815959e+00 -9.17054443e+00 -8.98497051e+00 -8.78542866e+00
 -8.56992346e+00 -8.34444116e+00 -8.11097720e+00 -7.87152697e+00]","[ -0.4371551   -0.48485559  -0.51268088  -0.5146684   -0.48883063
  -0.4371551   -0.35964181  -0.26424083  -0.15691473  -0.04561359
   0.06171251   0.16108853   0.2465519    0.31611511   0.37176568
   0.41747865   0.45921658   0.50095451   0.55064252   0.61623069
   0.69970654   0.80504512   0.9302589    1.07336037   1.22639944
   1.38142603   1.53247757   1.66762896   1.78091762   1.86439347
   1.91408148   1.9260066    1.90215636   1.84451827   1.75706737
   1.64377871   1.50862733   1.35558826   1.19062407   1.0177098
   0.83684545   0.65399357   0.46716666   0.27835223   0.08755027
  -0.10126416  -0.29206612  -0.48286807  -0.67367003  -0.86447198
  -1.05527393  -1.24607589  -1.43489032  -1.62569228  -1.81649423
  -2.00729619  -2.19809814  -2.3889001   -2.57970205  -2.77050401
  -2.96130596  -3.15210791  -3.34290987  -3.53371182  -3.72451378
  -3.91332821  -4.10413017  -4.29493212  -4.48573408  -4.67653603
  -4.86733798  -5.05813994  -5.24695437  -5.43775633  -5.6305458
  -5.8253228   -6.02208731  -6.22481439  -6.43549155  -6.65809383
  -6.89858379  -7.15894896  -7.44713941  -7.76315515  -8.11494625
  -8.50450024  -8.9298296   -9.39093432  -9.88383937 -10.40258219
 -10.94318772 -11.49373086 -12.05023656 -12.59879218 -13.13343516
 -13.64422789 -14.1232203  -14.56643734 -14.96592893 -15.31970756
 -15.62578569 -15.88615086 -16.10279058 -16.28166741 -16.42476888
 -16.53805754 -16.62948347 -16.70302173 -16.76264734 -16.81233535
 -16.85407327 -16.89382368 -16.92959905 -16.96338689 -16.99518722
 -17.02897507 -17.06077539 -17.09257572 -17.12437604 -17.15617637
 -17.18797669 -17.21977702 -17.25157735 -17.28337767 -17.315178
 -17.34697832 -17.37877865 -17.41057897 -17.44039178 -17.47219211
 -17.50200491 -17.5298302  -17.55765548 -17.58548077 -17.61330605
 -17.63914382 -17.6669691  -17.69678191 -17.73255727 -17.7742952 ]",-1.1054119741074613,0.7879027585788698,5.011480000000001,-0.04709000000000163
017,2,1,csm,65b.png,1,1,32,271,35,1,0,NaN,neu_feedback_onset,12,"[-2.02971226e-01 -2.41957296e-01 -2.56577072e-01 -2.49267184e-01
 -2.27337519e-01 -1.95661338e-01 -1.59111897e-01 -1.22562457e-01
 -8.84496458e-02 -5.92100935e-02 -3.72804292e-02 -1.77873943e-02
  4.14226992e-03  3.09451929e-02  7.23678920e-02  1.30846997e-01
  2.11255766e-01  3.20904087e-01  4.59791961e-01  6.27919387e-01
  8.20413106e-01  1.03727312e+00  1.26631628e+00  1.50510596e+00
  1.74633226e+00  1.98024868e+00  2.19954532e+00  2.40178556e+00
  2.58209613e+00  2.74047704e+00  2.87692829e+00  2.99388650e+00
  3.09378830e+00  3.18638022e+00  3.27409887e+00  3.36669079e+00
  3.46659259e+00  3.57867754e+00  3.70538227e+00  3.84914340e+00
  4.00996094e+00  4.18783488e+00  4.37789197e+00  4.58013221e+00
  4.78968234e+00  5.00410572e+00  5.22096573e+00  5.43782575e+00
  5.65468576e+00  5.86667251e+00  6.07134938e+00  6.26627973e+00
  6.44659030e+00  6.60984447e+00  6.74873234e+00  6.85350741e+00
  6.91929640e+00  6.93391618e+00  6.89249348e+00  6.78771841e+00
  6.61471773e+00  6.37349142e+00  6.06403949e+00  5.68879857e+00
  5.25264192e+00  4.76531604e+00  4.23656747e+00  3.67857935e+00
  3.09866156e+00  2.50899725e+00  1.91933295e+00  1.33941516e+00
  7.76553778e-01  2.35622059e-01 -2.80943365e-01 -7.70705867e-01
 -1.23366545e+00 -1.66982210e+00 -2.08648572e+00 -2.48121968e+00
 -2.85889723e+00 -3.22682826e+00 -3.58257615e+00 -3.93345078e+00
 -4.27945215e+00 -4.62058026e+00 -4.96170837e+00 -5.29796322e+00
 -5.63665470e+00 -5.97290955e+00 -6.30672778e+00 -6.64054600e+00
 -6.96949096e+00 -7.29356267e+00 -7.61032449e+00 -7.91977641e+00
 -8.21948183e+00 -8.50700409e+00 -8.77990658e+00 -9.04062592e+00
 -9.28672549e+00 -9.52064191e+00 -9.74724844e+00 -9.97141834e+00
 -1.01980249e+01 -1.04343779e+01 -1.06877874e+01 -1.09655631e+01
 -1.12701418e+01 -1.16063966e+01 -1.19767643e+01 -1.23812448e+01
 -1.28174014e+01 -1.32827976e+01 -1.37701235e+01 -1.42769424e+01
 -1.47935078e+01 -1.53125099e+01 -1.58217654e+01 -1.63164012e+01
 -1.67817974e+01 -1.72179541e+01 -1.76102514e+01 -1.79611260e+01
 -1.82657047e+01 -1.85264240e+01 -1.87432840e+01 -1.89211580e+01
 -1.90649191e+01 -1.91818773e+01 -1.92769059e+01 -1.93548780e+01
 -1.94231036e+01 -1.94791461e+01 -1.95327520e+01 -1.95814845e+01
 -1.96277805e+01 -1.96740765e+01 -1.97179358e+01 -1.97617951e+01
 -1.98056544e+01 -1.98495138e+01 -1.98933731e+01 -1.99372324e+01
 -1.99810918e+01 -2.00249511e+01 -2.00663738e+01 -2.01102331e+01
 -2.01540924e+01 -2.01979518e+01 -2.02418111e+01 -2.02856704e+01
 -2.03295298e+01 -2.03733891e+01 -2.04172484e+01 -2.04611077e+01
 -2.05049671e+01 -2.05463898e+01 -2.05902491e+01 -2.06341084e+01
 -2.06779678e+01 -2.07218271e+01 -2.07656864e+01 -2.08095457e+01
 -2.08534051e+01 -2.08972644e+01 -2.09411237e+01 -2.09849831e+01
 -2.10264058e+01 -2.10702651e+01 -2.11141244e+01 -2.11579837e+01
 -2.11994064e+01 -2.12408291e+01 -2.12822518e+01 -2.13188013e+01
 -2.13504775e+01 -2.13724071e+01 -2.13845903e+01 -2.13797170e+01
 -2.13504775e+01 -2.12919984e+01 -2.11920965e+01 -2.10458988e+01
 -2.08436586e+01 -2.05853758e+01 -2.02637408e+01 -1.98860632e+01
 -1.94547798e+01 -1.89845103e+01 -1.84801281e+01 -1.79611260e+01
 -1.74348141e+01 -1.69158120e+01 -1.64089931e+01 -1.59167940e+01
 -1.54392146e+01 -1.49713818e+01 -1.45035490e+01 -1.40308429e+01
 -1.35483902e+01 -1.30488812e+01 -1.25298792e+01 -1.19938207e+01
 -1.14455791e+01 -1.08900276e+01 -1.03369127e+01 -9.79598102e+00
 -9.27454234e+00 -8.77990658e+00 -8.31938363e+00 -7.90028338e+00
 -7.51773257e+00 -7.17660446e+00 -6.87446242e+00 -6.60399656e+00
 -6.36277025e+00 -6.14347361e+00 -5.94123337e+00 -5.74630302e+00
 -5.56111919e+00 -5.38324525e+00 -5.21511782e+00 -5.06161017e+00
 -4.93003219e+00 -4.83500364e+00 -4.78627106e+00 -4.80089083e+00
 -4.89104612e+00 -5.06404680e+00 -5.32720277e+00 -5.67807740e+00
 -6.10936080e+00 -6.60399656e+00 -7.14249165e+00 -7.70047977e+00
 -8.25359464e+00 -8.77746995e+00 -9.25017605e+00 -9.65465652e+00
 -9.98116486e+00 -1.02248278e+01 -1.03856453e+01 -1.04660541e+01
 -1.04733640e+01 -1.04173215e+01 -1.03076732e+01 -1.01541655e+01
 -9.96410845e+00 -9.74724844e+00 -9.51333202e+00 -9.26235919e+00
 -9.00407648e+00 -8.73604725e+00 -8.46558139e+00 -8.19267890e+00
 -7.91977641e+00 -7.64443730e+00 -7.37397144e+00 -7.10350558e+00]","[-9.90554443e-01 -9.50305532e-01 -8.87057244e-01 -7.97934656e-01
 -6.80062846e-01 -5.39191658e-01 -3.78196015e-01 -1.99950839e-01
 -1.30808960e-02  1.76663969e-01  3.57784067e-01  5.18779711e-01
  6.51026132e-01  7.40148720e-01  7.77522708e-01  7.51648409e-01
  6.62525820e-01  5.07280022e-01  2.85911013e-01  7.04355938e-03
 -3.20697571e-01 -6.82937768e-01 -1.06817734e+00 -1.46204168e+00
 -1.85015618e+00 -2.21814622e+00 -2.55451212e+00 -2.85637895e+00
 -3.11224702e+00 -3.31924142e+00 -3.47448722e+00 -3.57510950e+00
 -3.61535841e+00 -3.60385872e+00 -3.53198567e+00 -3.40261417e+00
 -3.21574422e+00 -2.97712568e+00 -2.68388362e+00 -2.33889295e+00
 -1.94502861e+00 -1.50516552e+00 -1.01930367e+00 -4.90317981e-01
  7.89166143e-02  6.82650276e-01  1.32088300e+00  1.99073988e+00
  2.68359613e+00  3.39657683e+00  4.12105722e+00  4.85128746e+00
  5.58151770e+00  6.30312317e+00  7.01610388e+00  7.71470997e+00
  8.39894145e+00  9.06592340e+00  9.71853074e+00  1.03596384e+01
  1.09921213e+01  1.16159794e+01  1.22340877e+01  1.28435712e+01
  1.34444299e+01  1.40309140e+01  1.46001486e+01  1.51435089e+01
  1.56552451e+01  1.61353571e+01  1.65752202e+01  1.69719594e+01
  1.73284498e+01  1.76446912e+01  1.79206838e+01  1.81650522e+01
  1.83777964e+01  1.85646663e+01  1.87285369e+01  1.88780329e+01
  1.90160291e+01  1.91425257e+01  1.92661474e+01  1.93840192e+01
  1.95018910e+01  1.96197628e+01  1.97405095e+01  1.98583813e+01
  1.99820030e+01  2.01056246e+01  2.02292463e+01  2.03557429e+01
  2.04793645e+01  2.06058611e+01  2.07323577e+01  2.08588543e+01
  2.09824759e+01  2.11089725e+01  2.12354691e+01  2.13590907e+01
  2.14855873e+01  2.16120839e+01  2.17357055e+01  2.18622021e+01
  2.19858238e+01  2.21123203e+01  2.22359420e+01  2.23566887e+01
  2.24774355e+01  2.25924323e+01  2.27045543e+01  2.28109264e+01
  2.29057989e+01  2.29862967e+01  2.30495450e+01  2.30897939e+01
  2.31041685e+01  2.30811691e+01  2.30236707e+01  2.29230484e+01
  2.27793023e+01  2.25895574e+01  2.23595636e+01  2.20893210e+01
  2.17874541e+01  2.14625879e+01  2.11204722e+01  2.07726066e+01
  2.04276159e+01  2.00941250e+01  1.97721337e+01  1.94731418e+01
  1.92000241e+01  1.89470310e+01  1.87227871e+01  1.85244174e+01
  1.83490472e+01  1.81966763e+01  1.80673048e+01  1.79638076e+01]",4.426502730243205,21.623583561769873,4.10403,
017,2,1,csp,7a.png,1,0,336,90,335,1,1,324,pos_feedback_onset,13,"[nan nan nan nan nan nan nan nan nan nan nan nan nan nan nan nan nan nan
 nan nan nan nan nan nan nan nan nan nan nan nan nan nan nan nan nan nan
 nan nan nan nan nan nan nan nan nan nan nan nan nan nan nan nan nan nan
 nan nan nan nan nan nan nan nan nan nan nan nan nan nan nan nan nan nan
 nan nan nan nan nan nan nan nan nan nan nan nan nan nan nan nan nan nan
 nan nan nan nan nan nan nan nan nan nan nan nan nan nan nan nan nan nan
 nan nan nan nan nan nan nan nan nan nan nan nan nan nan nan nan nan nan
 nan nan nan nan nan nan nan nan nan nan nan nan nan nan nan nan nan nan
 nan nan nan nan nan nan nan nan nan nan nan nan nan nan nan nan nan nan
 nan nan nan nan nan nan nan nan nan nan nan nan nan nan nan nan nan nan
 nan nan nan nan nan nan nan nan nan nan nan nan nan nan nan nan nan nan
 nan nan nan nan nan nan nan nan nan nan nan nan nan nan nan nan nan nan
 nan nan nan nan nan nan nan nan nan nan nan nan nan nan nan nan nan nan
 nan nan nan nan nan nan nan nan nan nan nan nan nan nan nan nan nan nan
 nan nan nan nan nan nan nan nan]","[nan nan nan nan nan nan nan nan nan nan nan nan nan nan nan nan nan nan
 nan nan nan nan nan nan nan nan nan nan nan nan nan nan nan nan nan nan
 nan nan nan nan nan nan nan nan nan nan nan nan nan nan nan nan nan nan
 nan nan nan nan nan nan nan nan nan nan nan nan nan nan nan nan nan nan
 nan nan nan nan nan nan nan nan nan nan nan nan nan nan nan nan nan nan
 nan nan nan nan nan nan nan nan nan nan nan nan nan nan nan nan nan nan
 nan nan nan nan nan nan nan nan nan nan nan nan nan nan nan nan nan nan
 nan nan nan nan nan nan nan nan nan nan nan nan nan nan]",,,4.392379999999999,
017,2,1,csp,11a.png,1,1,304,83,308,1,1,349,pos_feedback_onset,14,"[nan nan nan nan nan nan nan nan nan nan nan nan nan nan nan nan nan nan
 nan nan nan nan nan nan nan nan nan nan nan nan nan nan nan nan nan nan
 nan nan nan nan nan nan nan nan nan nan nan nan nan nan nan nan nan nan
 nan nan nan nan nan nan nan nan nan nan nan nan nan nan nan nan nan nan
 nan nan nan nan nan nan nan nan nan nan nan nan nan nan nan nan nan nan
 nan nan nan nan nan nan nan nan nan nan nan nan nan nan nan nan nan nan
 nan nan nan nan nan nan nan nan nan nan nan nan nan nan nan nan nan nan
 nan nan nan nan nan nan nan nan nan nan nan nan nan nan nan nan nan nan
 nan nan nan nan nan nan nan nan nan nan nan nan nan nan nan nan nan nan
 nan nan nan nan nan nan nan nan nan nan nan nan nan nan nan nan nan nan
 nan nan nan nan nan nan nan nan nan nan nan nan nan nan nan nan nan nan
 nan nan nan nan nan nan nan nan nan nan nan nan nan nan nan nan nan nan
 nan nan nan nan nan nan nan nan nan nan nan nan nan nan nan nan nan nan
 nan nan nan nan nan nan nan nan nan nan nan nan nan nan nan nan nan nan
 nan nan nan nan nan nan nan nan]","[nan nan nan nan nan nan nan nan nan nan nan nan nan nan nan nan nan nan
 nan nan nan nan nan nan nan nan nan nan nan nan nan nan nan nan nan nan
 nan nan nan nan nan nan nan nan nan nan nan nan nan nan nan nan nan nan
 nan nan nan nan nan nan nan nan nan nan nan nan nan nan nan nan nan nan
 nan nan nan nan nan nan nan nan nan nan nan nan nan nan nan nan nan nan
 nan nan nan nan nan nan nan nan nan nan nan nan nan nan nan nan nan nan
 nan nan nan nan nan nan nan nan nan nan nan nan nan nan nan nan nan nan
 nan nan nan nan nan nan nan nan nan nan nan nan nan nan]",,,3.48773,
017,3,1,csp,9a.png,1,1,292,86,286,1,1,269,pos_feedback_onset,1,"[-0.8172842  -0.83572265 -0.83341784 -0.80806498 -0.75966405 -0.69051987
 -0.59832763 -0.48769695 -0.36093262 -0.22033945 -0.07052706  0.08850455
  0.24984097  0.415787    0.57712342  0.73615503  0.89057703  1.03808461
  1.17637297  1.31005172  1.43451124  1.55205635  1.66729665  1.78253695
  1.89777725  2.01993196  2.1490011   2.29189907  2.44632107  2.61457191
  2.79204197  2.97642644  3.16081092  3.33597618  3.49270298  3.62177212
  3.71857397  3.77388931  3.78310854  3.74623164  3.66786824  3.55032313
  3.40281555  3.23225991  3.04557062  2.85657653  2.66988725  2.49241719
  2.32877596  2.18126838  2.04989444  1.93926375  1.84707151  1.76870811
  1.70647835  1.65577262  1.61428611  1.58201883  1.55666596  1.53592271
  1.51978906  1.50826503  1.50365542  1.51056984  1.52900829  1.56588518
  1.62350533  1.70417354  1.81249942  1.94848298  2.1121242   2.29650868
  2.49933161  2.71598337  2.93263513  3.14698209  3.34750021  3.52957988
  3.68400188  3.81076621  3.90295845  3.9628834   3.99284588  3.99284588
  3.97210263  3.93753054  3.89604403  3.85916714  3.83611908  3.83611908
  3.86838636  3.93983534  4.05507564  4.21410726  4.41462538  4.65202039
  4.91246347  5.18443057  5.45639768  5.71684076  5.94732135  6.14322986
  6.29765186  6.40136813  6.46129309  6.47281712  6.44746425  6.38523449
  6.29995667  6.19854521  6.08560971  5.97267422  5.86895795  5.77907052
  5.71223114  5.67074464  5.6569158   5.67535425  5.71914556  5.78828974
  5.87356756  5.9657598   6.06025685  6.14553467  6.21467885  6.26307977
  6.28843264  6.28843264  6.26538458  6.21698365  6.15014428  6.06256165
  5.95884538  5.83899547  5.70531673  5.56241876  5.40799675  5.25126995
  5.09454314  4.94703556  4.81105201  4.6935069   4.59900986  4.53217048
  4.49068397  4.47224553  4.46994072  4.47915994  4.49529359  4.50681762
  4.51603684  4.51603684  4.51142723  4.50451281  4.502208    4.50681762
  4.52756087  4.56904738  4.63358195  4.72346938  4.83410007  4.96086439
  5.09915275  5.24435553  5.3872535   5.52784667  5.66152541  5.78598494
  5.90353004  6.01646553  6.1201818   6.21928846  6.3114807   6.39214891
  6.45668348  6.50047479  6.51891324  6.50969401  6.46820751  6.39214891
  6.28843264  6.1570587   6.0049415   5.83438586  5.65461099  5.47022652
  5.28353723  5.10145756  4.9239875   4.75573666  4.59440024  4.44689266
  4.31090911  4.1910592   4.08273332  3.98823627  3.90065364  3.81998543
  3.73470761  3.64021057  3.52727507  3.3843771   3.21151665  2.9994745
  2.74825065  2.4601499   2.13747707  1.78714656  1.4183776   1.03808461
  0.66009643  0.28902267 -0.06361265 -0.39089509 -0.68360545 -0.94174372
 -1.16070029 -1.34047516 -1.48337313 -1.59400382 -1.67467203 -1.73229218
 -1.77377868 -1.80374116 -1.83139883 -1.8567517  -1.88901898 -1.92589588
 -1.971992   -2.02500254 -2.0872323  -2.15868128 -2.23934949 -2.32923692
 -2.42834358 -2.53897427 -2.66112899 -2.79941735 -2.95153454 -3.11978538
 -3.30416985 -3.50238317 -3.71673013 -3.94490592 -4.18460574 -4.43352479
 -4.68935825 -4.95210613 -5.21485401 -5.4776019  -5.73804497 -5.98696402
 -6.22666384 -6.45253483 -6.65535775 -6.83513262 -6.98494501 -7.10018531
 -7.1739391  -7.20159677]","[-4.94051598e-02  2.76952949e-02  8.24771970e-02  1.10882628e-01
  1.16969506e-01  1.00737831e-01  6.62455223e-02  2.36373763e-02
 -2.50576478e-02 -6.96947532e-02 -1.04187062e-01 -1.22447696e-01
 -1.24476655e-01 -1.10273940e-01 -7.98395499e-02 -3.92603632e-02
  3.34778291e-03  4.39269696e-02  7.03034410e-02  7.84192784e-02
  5.81296850e-02  7.40570158e-03 -7.98395499e-02 -2.03606069e-01
 -3.63893857e-01 -5.60702913e-01 -7.87946358e-01 -1.04562419e+00
 -1.32562058e+00 -1.62387761e+00 -1.93633734e+00 -2.26299980e+00
 -2.59574913e+00 -2.93255638e+00 -3.27545051e+00 -3.61834463e+00
 -3.96529668e+00 -4.31021977e+00 -4.65717181e+00 -5.00209490e+00
 -5.34701799e+00 -5.68788316e+00 -6.02671937e+00 -6.36149766e+00
 -6.69018907e+00 -7.01076464e+00 -7.32322438e+00 -7.62351036e+00
 -7.90756467e+00 -8.17741626e+00 -8.42900722e+00 -8.66233754e+00
 -8.87537827e+00 -9.06812941e+00 -9.24059095e+00 -9.39682082e+00
 -9.53681902e+00 -9.66261450e+00 -9.78029414e+00 -9.89391586e+00
 -1.00055086e+01 -1.01191303e+01 -1.02368100e+01 -1.03646344e+01
 -1.05005747e+01 -1.06466598e+01 -1.08008607e+01 -1.09652064e+01
 -1.11356390e+01 -1.13101295e+01 -1.14846200e+01 -1.16591105e+01
 -1.18295431e+01 -1.19938888e+01 -1.21480897e+01 -1.22921458e+01
 -1.24219992e+01 -1.25396788e+01 -1.26451847e+01 -1.27364879e+01
 -1.28135883e+01 -1.28785150e+01 -1.29312680e+01 -1.29677893e+01
 -1.29880788e+01 -1.29921368e+01 -1.29738761e+01 -1.29332969e+01
 -1.28683702e+01 -1.27730092e+01 -1.26492426e+01 -1.24930128e+01
 -1.23063485e+01 -1.20892499e+01 -1.18457747e+01 -1.15759232e+01
 -1.12857820e+01 -1.09814381e+01 -1.06628914e+01 -1.03402869e+01
 -1.00136245e+01 -9.68696201e+00 -9.36232851e+00 -9.04378190e+00
 -8.73335112e+00 -8.42900722e+00 -8.13683708e+00 -7.85481173e+00
 -7.58698910e+00 -7.33539814e+00 -7.10206781e+00 -6.88902708e+00
 -6.70033387e+00 -6.53395920e+00 -6.39193205e+00 -6.27222345e+00
 -6.17280444e+00 -6.08961710e+00 -6.01657457e+00 -5.94961891e+00
 -5.88063429e+00 -5.79947592e+00 -5.70208587e+00 -5.58237727e+00
 -5.43223428e+00 -5.24962794e+00 -5.03455825e+00 -4.78702521e+00
 -4.51108674e+00 -4.21282972e+00 -3.90036998e+00 -3.58588128e+00
 -3.28153738e+00 -3.00154099e+00 -2.75806587e+00 -2.56125682e+00
