sub,run,cat_cond,trial_type,picture,old,response_old,target_pos,response_pos,dot_resp_loc,cat_corr,TN_corr,TN_rt,feedback_type,trial,SP_timeseries,FB_timeseries,SP_peak_response,FB_peak_response,preStim_bl,anticipation
019,1,1,csp,66a.png,1,1,264,287,264,1,1,373,pos_feedback_onset,1,"[ 0.93447212  0.82814921  0.7367115   0.65377962  0.58360649  0.51768629
  0.45389254  0.38584587  0.31354628  0.22848795  0.13067087  0.01584211
 -0.11387184 -0.26272393 -0.42646122 -0.60508372 -0.79433852 -0.98997269
 -1.19198623 -1.39825269 -1.60239269 -1.80227978 -2.00216686 -2.19567457
 -2.38280291 -2.56567832 -2.74004791 -2.90803812 -3.06539604 -3.20786875
 -3.33545625 -3.43965271 -3.51620521 -3.55873437 -3.56086083 -3.51620521
 -3.42051458 -3.27378896 -3.07390187 -2.82297978 -2.52952853 -2.19567457
 -1.83417665 -1.45354061 -1.06014581 -0.66675102 -0.27548268  0.10302691
  0.46877774  0.81751691  1.1449915   1.45758088  1.75103213  2.02747172
  2.29115255  2.53994818  2.77811151  3.0035161   3.21616193  3.41604902
  3.6010509   3.77329402  3.92639902  4.06461882  4.1879534   4.29427632
  4.3920934   4.47927819  4.56433653  4.64939486  4.73870611  4.8365232
  4.94497257  5.0661807   5.20227403  5.34899966  5.50848404  5.67647425
  5.85297029  6.03159279  6.21021529  6.38883779  6.56320738  6.73545051
  6.8991878   7.05654572  7.20965072  7.35424989  7.49459614  7.63068947
  7.76252989  7.89224385  8.02195781  8.14954531  8.27713281  8.40472031
  8.53656073  8.66840115  8.80236802  8.94058782  9.08093407  9.22553324
  9.37225886  9.51898449  9.66996303  9.82094157  9.96979366 10.1207722
 10.26749783 10.412097   10.55456971 10.6927895  10.82675637 10.95434388
 11.075552   11.19250721 11.29883013 11.39452075 11.47957909 11.55400513
 11.61567242 11.66245451 11.69647784 11.71986888 11.73262763 11.73900701
 11.73900701 11.73900701 11.74113347 11.74751284 11.76452451 11.79429492
 11.83895055 11.89849138 11.97291743 12.06435514 12.17067805 12.28763326
 12.41309431 12.54280826 12.67039577 12.78947743 12.89154743 12.97447931
 13.02764077 13.04890535 13.03402014 12.9851116  12.90217973 12.79160389
 12.65763702 12.51091139 12.35780639 12.21108076 12.07286097 11.9537793
 11.85596222 11.77728326 11.71986888 11.67946617 11.6475693  11.6220518
 11.59440784 11.55825805 11.51147596 11.44980867 11.37325617 11.279692
 11.17549554 11.06279325 10.94371158 10.82675637 10.71618054 10.616237
 10.52905221 10.45887908 10.40571762 10.36956783 10.34617679 10.33129158
 10.32278575 10.31427991 10.2993947  10.27600366 10.24198033 10.19519824
 10.13778387 10.07399012 10.00594345  9.9421497   9.8911147   9.85709137
  9.84858553  9.86985012  9.92939095 10.02933449 10.16968074 10.34830325
 10.56732846 10.81825054 11.09681659 11.3923943  11.70073076 12.00694076
 12.30251847 12.5768316  12.81924785 13.01913494 13.16586056 13.25729827
 13.28706869 13.25517181 13.1637341  13.01700848 12.82562723 12.60022264
 12.35355347 12.09625201 11.84532993 11.61354596 11.40940596 11.24354221
 11.12020763 11.04152867 11.00537888 11.00963179 11.04790804 11.10957534
 11.19038075 11.279692   11.36900325 11.45618805 11.53486701 11.60291367
 11.66245451 11.70923659 11.7496393  11.78578909 11.81555951 11.84107701
 11.86021513 11.87510034 11.88147972 11.87935326 11.86234159 11.83257118
 11.78578909 11.7241218  11.6475693  11.55825805 11.45831451 11.34986513
 11.23503638 11.11595471 10.99687304 10.87566492 10.75658325 10.64388096
 10.53543158 10.43548804]","[-1.58100222 -1.52832166 -1.44637411 -1.33711072 -1.19858036 -1.03468527
 -0.84932774 -0.64445888 -0.4259321  -0.19764967  0.03648617  0.27257313
  0.50670897  0.73499141  0.95546932  1.16619157  1.36715816  1.55836909
  1.73787323  1.90762171  2.06761453  2.21394942  2.34857753  2.47149884
  2.5788111   2.66856317  2.74270618  2.80124014  2.84026278  2.86367636
  2.87148089  2.86757863  2.85001844  2.82465372  2.79148448  2.75441297
  2.70953694  2.66270977  2.61002921  2.55344638  2.49296129  2.42662281
  2.35638206  2.28419017  2.20809603  2.12809962  2.04810321  1.9681068
  1.88811039  1.80616285  1.72811757  1.64812116  1.57007588  1.4920306
  1.41203419  1.33203778  1.24618798  1.15643591  1.05692818  0.94766479
  0.82474347  0.68426197  0.52231802  0.33696049  0.12818937 -0.10594646
 -0.36544701 -0.64445888 -0.94298207 -1.25126092 -1.56734429 -1.88342767
 -2.19560878 -2.49803423 -2.79265516 -3.07361816 -3.3448255  -3.60627718
 -3.85992434 -4.11162036 -4.36136525 -4.609159   -4.86085503 -5.11059991
 -5.3603448  -5.60618743 -5.84422553 -6.07055683 -6.27932795 -6.46858775
 -6.6305317  -6.76711094 -6.8744232  -6.95246847 -7.00124677 -7.02075809
 -7.01880696 -6.99149111 -6.94856621 -6.89003225 -6.8197915  -6.74174622
 -6.65979868 -6.57394888 -6.4900502  -6.40615153 -6.32615512 -6.24810984
 -6.17006456 -6.09397042 -6.01592514 -5.9339776  -5.84812779 -5.75447346
 -5.6530146  -5.54180008 -5.42278103 -5.29400632 -5.15742708 -5.01694558
 -4.87451295 -4.73208032 -4.59354995 -4.46087298 -4.33600053 -4.21893261
 -4.11357149 -4.01991715 -3.93601848 -3.86577773 -3.80724377 -3.76041661
 -3.72724736 -3.70383378 -3.69407812 -3.69407812 -3.70188265 -3.71944283
 -3.73895415 -3.76236774]",11.554536745731953,2.1235632352109035,4.702654999999999,0.12848999999999933
019,1,1,csp,22a.png,1,1,16,224,16,1,1,365,pos_feedback_onset,2,"[ 1.69075496e+00  1.49662050e+00  1.28686602e+00  1.06595439e+00
  8.40579904e-01  6.15205414e-01  3.96525216e-01  1.89002171e-01
 -5.13229036e-03 -1.79183877e-01 -3.33152587e-01 -4.67038423e-01
 -5.83072814e-01 -6.79024329e-01 -7.57124400e-01 -8.24067318e-01
 -8.77621652e-01 -9.22250264e-01 -9.60184584e-01 -9.93656043e-01
 -1.02489607e+00 -1.05167324e+00 -1.08068184e+00 -1.10745900e+00
 -1.13869903e+00 -1.17440192e+00 -1.21679910e+00 -1.26589058e+00
 -1.32837063e+00 -1.40423927e+00 -1.49572793e+00 -1.60953089e+00
 -1.74564815e+00 -1.90631116e+00 -2.09375132e+00 -2.30796866e+00
 -2.54673174e+00 -2.81227198e+00 -3.09789509e+00 -3.40136965e+00
 -3.71376994e+00 -4.03063308e+00 -4.34526479e+00 -4.64873935e+00
 -4.93213104e+00 -5.19320842e+00 -5.42081434e+00 -5.61048594e+00
 -5.76222322e+00 -5.86933189e+00 -5.93404337e+00 -5.95412625e+00
 -5.93181194e+00 -5.86933189e+00 -5.76891751e+00 -5.63280024e+00
 -5.46544295e+00 -5.27130849e+00 -5.05262829e+00 -4.81609665e+00
 -4.56394499e+00 -4.29840475e+00 -4.02393879e+00 -3.74277853e+00
 -3.45269256e+00 -3.15814372e+00 -2.85690059e+00 -2.54896317e+00
 -2.23656288e+00 -1.91523688e+00 -1.58944801e+00 -1.25696485e+00
 -9.22250264e-01 -5.87535675e-01 -2.50589656e-01  8.18935027e-02
  4.09913800e-01  7.29008375e-01  1.03917723e+00  1.33595750e+00
  1.62158061e+00  1.89604657e+00  2.15489252e+00  2.40258132e+00
  2.63688153e+00  2.86002459e+00  3.06977907e+00  3.26614496e+00
  3.44912227e+00  3.61647956e+00  3.77044827e+00  3.90879697e+00
  4.03152565e+00  4.13417146e+00  4.22342868e+00  4.29260303e+00
  4.34838880e+00  4.38855455e+00  4.41756314e+00  4.43541459e+00
  4.44657174e+00  4.45103460e+00  4.45103460e+00  4.45103460e+00
  4.44657174e+00  4.44434031e+00  4.44210888e+00  4.43764602e+00
  4.43541459e+00  4.43541459e+00  4.43318316e+00  4.43318316e+00
  4.43541459e+00  4.44210888e+00  4.45103460e+00  4.46442319e+00
  4.48227463e+00  4.50682037e+00  4.53582897e+00  4.56930042e+00
  4.60500331e+00  4.64070620e+00  4.67417766e+00  4.70541769e+00
  4.73219486e+00  4.75450916e+00  4.77012918e+00  4.78128633e+00
  4.78798062e+00  4.79021205e+00  4.79021205e+00  4.79021205e+00
  4.79244348e+00  4.79913778e+00  4.81252636e+00  4.83260923e+00
  4.86608069e+00  4.91070930e+00  4.97095793e+00  5.04905800e+00
  5.14277809e+00  5.25434962e+00  5.38377259e+00  5.52658415e+00
  5.68278429e+00  5.84344729e+00  6.00187886e+00  6.15584758e+00
  6.29419627e+00  6.40799923e+00  6.49502503e+00  6.54634793e+00
  6.55973651e+00  6.53295935e+00  6.46378500e+00  6.35890776e+00
  6.21609620e+00  6.03981318e+00  5.83452157e+00  5.60245279e+00
  5.34583827e+00  5.06690945e+00  4.77012918e+00  4.45549746e+00
  4.12747717e+00  3.78829972e+00  3.44242797e+00  3.09655623e+00
  2.75514735e+00  2.43158992e+00  2.12811536e+00  1.85364939e+00
  1.62158061e+00  1.43190901e+00  1.29356031e+00  1.20876595e+00
  1.17752592e+00  1.19984023e+00  1.26901458e+00  1.38058611e+00
  1.52339767e+00  1.68852353e+00  1.86480655e+00  2.04555242e+00
  2.21960401e+00  2.38249844e+00  2.52977286e+00  2.66142727e+00
  2.78192452e+00  2.89572748e+00  3.00953044e+00  3.13225912e+00
  3.27283925e+00  3.44242797e+00  3.64548816e+00  3.88648266e+00
  4.17433721e+00  4.50905180e+00  4.89062643e+00  5.31906110e+00
  5.79435582e+00  6.30981629e+00  6.86321107e+00  7.44784589e+00
  8.05702644e+00  8.68405844e+00  9.32001616e+00  9.95597387e+00
  1.05852373e+01  1.11944179e+01  1.17790527e+01  1.23324475e+01
  1.28523708e+01  1.33410541e+01  1.37984974e+01  1.42313949e+01
  1.46509038e+01  1.50637185e+01  1.54854589e+01  1.59205878e+01
  1.63780311e+01  1.68622516e+01  1.73710177e+01  1.78998668e+01
  1.84376416e+01  1.89731849e+01  1.94908768e+01  1.99728658e+01
  2.04079948e+01  2.07828751e+01  2.10885811e+01  2.13273442e+01
  2.15013958e+01  2.16218930e+01  2.16977617e+01  2.17490846e+01
  2.17892503e+01  2.18294161e+01  2.18785075e+01  2.19409876e+01
  2.20146248e+01  2.20927249e+01  2.21596678e+01  2.22042964e+01
  2.22132221e+01  2.21752878e+01  2.20771049e+01  2.19186733e+01
  2.16977617e+01  2.14188328e+01  2.10885811e+01  2.07137008e+01
  2.03053490e+01  1.98702200e+01  1.94172396e+01  1.89553335e+01
  1.84889645e+01  1.80225955e+01  1.75606893e+01  1.71077089e+01]","[-0.5411479  -0.55080091 -0.55273151 -0.5450091  -0.52377247 -0.49095223
 -0.44268717 -0.37897728 -0.29982258 -0.20715365 -0.10290112  0.01293504
  0.1364936   0.26391337  0.39519434  0.52454472  0.65196448  0.77359245
  0.887498    0.98981993  1.08248886  1.16357416  1.23307586  1.28906333
  1.33346719  1.36821803  1.39717707  1.42227491  1.44930334  1.48212359
  1.52459684  1.58058432  1.65201661  1.73889373  1.84314626  1.96091302
  2.08833279  2.22154437  2.35861715  2.48796752  2.60766488  2.70998681
  2.78721092  2.83547598  2.8470596   2.81810056  2.74666826  2.62890151
  2.46480029  2.25822581  2.00917808  1.72731011  1.41262189  1.07476645
  0.72146618  0.35658229 -0.01023219 -0.37318547 -0.72455514 -1.05661878
 -1.36358459 -1.64352196 -1.89450029 -2.11072778 -2.29799623 -2.45823624
 -2.59337842 -2.70921457 -2.81153651 -2.90420543 -2.99301315 -3.07795966
 -3.16097557 -3.24399148 -3.32314619 -3.39843969 -3.46601078 -3.52199825
 -3.5625409  -3.58763874 -3.59149994 -3.57605512 -3.53551247 -3.46987198
 -3.38106426 -3.26715871 -3.12815533 -2.96791532 -2.78450807 -2.5798642
 -2.35784491 -2.12231139 -1.87519427 -1.62228533 -1.36744579 -1.11453686
 -0.87128094 -0.64153923 -0.42917295 -0.2399739  -0.07780328  0.0592695
  0.16738324  0.24653795  0.29866422  0.32569265  0.33148446  0.31797024
  0.29094181  0.25232975  0.20406469  0.15193842  0.09595095  0.04189408
 -0.0121628  -0.06235846 -0.10483172 -0.14344377 -0.17047221 -0.18784763
 -0.19363944 -0.18591703 -0.1627498  -0.12992955 -0.08359509 -0.03146882
  0.02644926  0.08436733  0.1364936   0.17896686  0.20599529  0.2137177
  0.20020349  0.16352204  0.10174275  0.01486564 -0.0932481  -0.22066787
 -0.36739367 -0.52570308]",20.7220066412333,1.3184567535373617,4.4814300000000005,0.055465000000000764
019,1,1,csp,15a.png,1,1,332,309,332,1,1,349,pos_feedback_onset,3,"[ 0.2330864   0.20934245  0.17174787  0.12425998  0.06687878  0.00554025
 -0.05579827 -0.11515813 -0.16660335 -0.20617659 -0.2318992  -0.23981385
 -0.22794187 -0.19232596 -0.13692342 -0.06173426  0.03324152  0.14206794
  0.26078767  0.38742204  0.51603508  0.64266945  0.76336784  0.87417292
  0.97310602  1.0581885   1.12546301  1.1729509   1.1986735   1.1986735
  1.16899357  1.10567639  1.00476462  0.86230095  0.67828537  0.4467819
  0.17174787 -0.14681673 -0.50297591 -0.88881502 -1.29839808 -1.72183177
 -2.14526546 -2.56276316 -2.96443157 -3.34037737 -3.68466458 -3.99333587
 -4.26243391 -4.49195872 -4.68388894 -4.83822459 -4.95694431 -5.04598411
 -5.10534397 -5.14095989 -5.15678919 -5.15481052 -5.13898123 -5.11523728
 -5.08555735 -5.05192009 -5.02224016 -4.99651755 -4.97673093 -4.96683762
 -4.96485896 -4.97079495 -4.98464558 -5.00245354 -5.02619749 -5.05192009
 -5.0776427  -5.10336531 -5.12710925 -5.1508532  -5.17459714 -5.19438377
 -5.21417039 -5.23395701 -5.25176497 -5.26759426 -5.28342356 -5.2972742
 -5.30716751 -5.31112483 -5.31112483 -5.30123152 -5.2814449  -5.24780764
 -5.19636243 -5.12710925 -5.0360908  -4.92132839 -4.78084338 -4.61661443
 -4.42468421 -4.2109887  -3.97354924 -3.71830183 -3.44722512 -3.1662551
 -2.8793491  -2.59046443 -2.30949441 -2.03643904 -1.77723431 -1.53583753
 -1.31620603 -1.12229715 -0.95411087 -0.81362586 -0.70282078 -0.6236743
 -0.57420774 -0.55639978 -0.56431443 -0.60190901 -0.65929021 -0.73447937
 -0.82154051 -0.91651629 -1.00951341 -1.09657454 -1.16978504 -1.22716624
 -1.26476082 -1.27663279 -1.26278216 -1.22320892 -1.15791307 -1.06491595
 -0.94421756 -0.79977522 -0.62763162 -0.43174407 -0.21013392  0.03126286
  0.29442492  0.57341628  0.86625827  1.16899357  1.47370754  1.78040016
  2.07917814  2.36608415  2.63716086  2.88647228  3.11203976  3.30594865
  3.4701776   3.59681198  3.68783044  3.74125431  3.75906227  3.73927565
  3.68783044  3.60670529  3.5018362   3.38113781  3.25054611  3.11401843
  2.98144806  2.85481369  2.74005129  2.63913952  2.55405705  2.48282521
  2.42940134  2.38784943  2.36014816  2.3423402   2.33442555  2.33442555
  2.34036154  2.35223351  2.36608415  2.38191345  2.39576408  2.40763605
  2.41357204  2.41357204  2.40367873  2.38587077  2.3581695   2.32255358
  2.27902302  2.22955646  2.17613259  2.12073005  2.06532751  2.01190363
  1.96243708  1.91297053  1.86943996  1.82788806  1.78831481  1.7526989
  1.71906164  1.68938171  1.66563776  1.6478298   1.63793649  1.63397917
  1.63991515  1.65376579  1.67157375  1.68938171  1.70323234  1.70323234
  1.68740305  1.64980847  1.58253395  1.48557951  1.3609238   1.2145028
  1.05225251  0.88604489  0.72973059  0.59716022  0.50218444  0.45271789
  0.46063254  0.52592839  0.6505841   0.82668503  1.04433786  1.28969196
  1.54493937  1.79622946  2.0237756   2.21570583  2.36212682  2.45314528
  2.48678254  2.46699592  2.39774274  2.28693766  2.14843132  1.99409567
  1.83976003  1.69729636  1.58055529  1.50338747  1.47370754  1.50140881
  1.58451262  1.72697629  1.92286384  2.16228195  2.43533732  2.72620065
  3.01904264  3.30001266  3.55328141  3.76697692  3.9351632   4.04794694
  4.10928547  4.11917878]","[ -1.30637231  -1.18944567  -1.07063312  -0.95182057  -0.82923619
  -0.70099407  -0.5670942   -0.42565069  -0.27854943  -0.12390452
   0.0326263    0.19292896   0.35323161   0.51353426   0.671951
   0.82848182   0.98312673   1.13777164   1.29053064   1.43951781
   1.58661907   1.72806258   1.86384836   1.99209048   2.10901712
   2.21274236   2.3013803    2.37304501   2.42773651   2.46545478
   2.48054209   2.47488435   2.44659564   2.39379006   2.31458169
   2.21085645   2.07695659   1.91665394   1.7299485    1.51495435
   1.27732924   1.020845     0.74738754   0.46261459   0.17406982
  -0.11070313  -0.38793242  -0.64818849  -0.88392768  -1.09137817
  -1.26865404  -1.41009756  -1.52136646  -1.60057483  -1.65149449
  -1.6797832   -1.68921276  -1.68732685  -1.67601137  -1.66092406
  -1.64772267  -1.64017901  -1.64206492  -1.66092406  -1.69864233
  -1.7646493   -1.8608309   -1.99473076  -2.17200663  -2.39265852
  -2.66234415  -2.97917763  -3.34504486  -3.75617401  -4.20879326
  -4.69913078  -5.21964292  -5.76655785  -6.33233191  -6.90942146
  -7.49216874  -8.07491603  -8.64823375  -9.20835007  -9.74772134
 -10.26257574 -10.74725552 -11.19610295 -11.60911801 -11.98064298
 -12.30879194 -12.59356489 -12.83118999 -13.02543909 -13.17631217
 -13.28192333 -13.3479303  -13.37433309 -13.36490353 -13.32341343
 -13.25363463 -13.16122486 -13.04618414 -12.91794202 -12.78027033
 -12.6369409  -12.49361147 -12.35593978 -12.22581174 -12.10699919
 -12.00515986 -11.92029375 -11.85428678 -11.80902485 -11.78450797
 -11.78262206 -11.80336711 -11.84485721 -11.90520644 -11.98630072
 -12.08248231 -12.19375121 -12.31822151 -12.45212137 -12.59356489
 -12.7350084  -12.87833783 -13.01789543 -13.14802347 -13.26872194
 -13.37433309 -13.46485694 -13.53652166 -13.58932724 -13.61950185
 -13.62704551 -13.6119582  -13.57235402 -13.51200478 -13.42902459]",2.571393897730705,1.2655894328492103,5.053919999999999,-0.02773500000000073
019,1,1,csp,1a.png,1,1,156,289,156,1,1,313,pos_feedback_onset,4,"[ 1.33832717  1.29958187  1.23500638  1.14460068  1.02621227  0.88629869
  0.72270744  0.54189604  0.34816955  0.14368048 -0.06296111 -0.27175522
 -0.47409177 -0.66781826 -0.85078217 -1.01652595 -1.16504959 -1.29204807
 -1.39967389 -1.48577456 -1.55465509 -1.60416297 -1.63860323 -1.6601284
 -1.6730435  -1.67950105 -1.6859586  -1.69241615 -1.70533125 -1.72470389
 -1.75053409 -1.78712687 -1.83448224 -1.89044767 -1.95287065 -2.02175118
 -2.09278423 -2.16596979 -2.23700284 -2.29942582 -2.35539125 -2.39844158
 -2.42642429 -2.43933939 -2.43288184 -2.40920416 -2.36615383 -2.30157833
 -2.2197827  -2.11861443 -2.00237853 -1.86676999 -1.71824634 -1.55250257
 -1.37599621 -1.18657475 -0.98854323 -0.78190164 -0.57310753 -0.36000839
 -0.14906177  0.0554273   0.24915379  0.42781267  0.58709889  0.72270744
  0.8346383   0.91858644  0.97455187  1.0046871   1.01114465  0.99392452
  0.95733174  0.90351883  0.83894333  0.76360525  0.68180962  0.59570896
  0.50745578  0.41705008  0.32664439  0.23623869  0.14798551  0.05757982
 -0.03282588 -0.12753661 -0.22655237 -0.3341782  -0.45471912 -0.59248018
 -0.74746138 -0.92181522 -1.11338919 -1.32433581 -1.54819754 -1.77636429
 -2.00668356 -2.2326978  -2.44364443 -2.6352184  -2.80526721 -2.94948582
 -3.06787423 -3.16258496 -3.23146549 -3.27882085 -3.30680357 -3.31971867
 -3.31541363 -3.30034602 -3.2723633  -3.23577052 -3.19056767 -3.13675476
 -3.07863681 -3.01406131 -2.94518078 -2.87414774 -2.80096217 -2.7256241
 -2.65028602 -2.57494794 -2.49960986 -2.42427178 -2.34678118 -2.2714431
 -2.1939525  -2.11430939 -2.03466628 -1.95287065 -1.87322754 -1.79358442
 -1.71394131 -1.64075575 -1.5697227  -1.50729972 -1.45348681 -1.40828396
 -1.37599621 -1.35447105 -1.34370846 -1.34155595 -1.35016601 -1.36308111
 -1.37814873 -1.39536886 -1.40828396 -1.41689403 -1.41474151 -1.40613144
 -1.38891131 -1.3609286  -1.32433581 -1.28128548 -1.2317776  -1.17796469
 -1.12199926 -1.06603383 -1.01222091 -0.96271303 -0.91535767 -0.87661237
 -0.84647714 -0.82279946 -0.80773184 -0.80342681 -0.80773184 -0.81849442
 -0.83571455 -0.85939224 -0.88737495 -0.91751018 -0.9454929  -0.97562813
 -1.00145833 -1.0229835  -1.04020363 -1.04881369 -1.04881369 -1.03805111
 -1.01437343 -0.97778065 -0.92396773 -0.8550872  -0.77113906 -0.66781826
 -0.54942985 -0.41597383 -0.27175522 -0.11677402  0.04466472  0.20825598
  0.37399975  0.53328598  0.68396214  0.8217232   0.94226412  1.04127989
  1.11446545  1.16182081  1.17688843  1.16397333  1.12307552  1.05850002
  0.97670439  0.88199366  0.78082538  0.6796571   0.58279386  0.4966932
  0.4192026   0.35247459  0.29866167  0.25345883  0.21901856  0.18888333
  0.16520565  0.14798551  0.1329179   0.12215531  0.11569777  0.11139273
  0.11354525  0.1200028   0.13076538  0.145833    0.16735816  0.19103584
  0.22117108  0.25345883  0.28789909  0.32449187  0.36323717  0.40413498
  0.44288028  0.48162558  0.52037088  0.55481114  0.58709889  0.61292909
  0.63445426  0.64736936  0.65167439  0.64521684  0.62369167  0.58709889
  0.53543849  0.46225293  0.3675422   0.25130631  0.10924022 -0.05865608
 -0.25238257 -0.47193926 -0.71302111 -0.97347561 -1.24684522 -1.5309774
 -1.81510959 -2.09708926]","[-2.86017703 -2.56020057 -2.25584489 -1.94710999 -1.63399587 -1.32088176
 -1.00557803 -0.69246391 -0.3815394  -0.07280451  0.22936156  0.52933803
  0.82055605  1.10520525  1.38109601  1.64822833  1.90441261  2.14745923
  2.3773682   2.58757068  2.78025629  2.95104581  3.09774963  3.21598853
  3.3057625   3.36269234  3.38677804  3.38020922  3.34079625  3.27291837
  3.18095478  3.06490549  2.93133933  2.78463551  2.62479404  2.45619413
  2.28102539  2.10147744  1.91755027  1.72924387  1.53655826  1.33949343
  1.13585978  0.9278469   0.7132652   0.4986835   0.28191219  0.06733048
 -0.13630317 -0.32679917 -0.49758869 -0.64648212 -0.76910023 -0.86544304
 -0.93551053 -0.98149233 -1.00776764 -1.01652608 -1.00995725 -0.99462998
 -0.97273389 -0.94207936 -0.90485601 -0.86106382 -0.80632359 -0.73844571
 -0.65743017 -0.55670814 -0.43846924 -0.29833425 -0.13849278  0.04324478
  0.24468883  0.46583936  0.70231715  0.95412221  1.21906493  1.49276608
  1.77522567  2.05987486  2.34452406  2.62479404  2.90287441  3.17000673
  3.42619101  3.67361685  3.90790504  4.13124518  4.34582688  4.55383975
  4.7552838   4.95453824  5.15160307  5.34428868  5.53259507  5.71433263
  5.88293254  6.03620519  6.16758174  6.27268298  6.3471297   6.38654266
  6.3953011   6.36902579  6.31428556  6.23545963  6.13692721  6.02744675
  5.91577668  5.80410661  5.7055742   5.62236905  5.5632496   5.53259507
  5.53040546  5.56543921  5.63331709  5.73622873  5.8719845   6.03620519
  6.22670119  6.43690367  6.66024381  6.89015278  7.12006175  7.34121228
  7.55141476  7.74410037  7.9170795   8.06816253  8.19953909  8.31120916
  8.40755196  8.49294672  8.57177265  8.64840898  8.7250453   8.80606084
  8.8914556   8.98122958]",-1.247890679678676e-14,7.810831319023211,4.6457250000000005,-0.5016300000000014
019,1,1,csp,43a.png,1,1,216,59,216,1,1,328,pos_feedback_onset,5,"[ -0.69287079  -0.78925624  -0.86355335  -0.90572198  -0.9137541
  -0.88564168  -0.81536063  -0.706927    -0.56234883  -0.38765021
  -0.1868472    0.03002005   0.25692745   0.48584289   0.7067262
   0.9135533    1.10230813   1.27098266   1.4135528    1.53001854
   1.62439596   1.69467701   1.7468858    1.78303034   1.80511867
   1.81716685   1.81917488   1.81315079   1.79708655   1.77098216
   1.73282959   1.67861277   1.61033975   1.52198642   1.41556083
   1.29307099   1.15250888   0.99989859   0.83524013   0.66254954
   0.48584289   0.31114427   0.14046171  -0.02419676  -0.17881508
  -0.31937719  -0.44588309  -0.55833277  -0.65672625  -0.74507957
  -0.82138472  -0.88764971  -0.94789061  -1.00612349  -1.0603403
  -1.11455711  -1.17078196  -1.23303089  -1.30531997  -1.38764921
  -1.48604268  -1.6005004   -1.73704645  -1.8936728   -2.07037945
  -2.2671664   -2.47800956  -2.69889287  -2.92780831  -3.15672374
  -3.38363114  -3.60652248  -3.81937368  -4.02419275  -4.2209797
  -4.40973453  -4.59045724  -4.76716389  -4.93583842  -5.10049689
  -5.25913127  -5.41174155  -5.56033578  -5.70089789  -5.83342788
  -5.95993378  -6.07639952  -6.18684118  -6.28925071  -6.38764419
  -6.4820216   -6.57840705  -6.67680053  -6.77921006  -6.89165975
  -7.01214155  -7.14467154  -7.28924971  -7.44587606  -7.61455059
  -7.79326527  -7.98001207  -8.17479099  -8.37760203  -8.58442913
  -8.79728032  -9.01213955  -9.23101483  -9.44989011  -9.66675736
  -9.88161658 -10.08844369 -10.28121458 -10.45992926 -10.61454758
 -10.7430615  -10.84145498 -10.90771997 -10.94185648 -10.94185648
 -10.91173603 -10.85551119 -10.77719801 -10.68081257 -10.57237894
 -10.45792123 -10.33944745 -10.22097367 -10.10852399 -10.00009036
  -9.89968886  -9.8093275   -9.7290063   -9.65671721  -9.59647631
  -9.54627556  -9.50209889  -9.46595435  -9.4358339   -9.40772148
  -9.38161709  -9.3555127   -9.3294083   -9.30330391  -9.27920755
  -9.25912725  -9.24306301  -9.23302286  -9.23302286  -9.24507104
  -9.27117543  -9.30731997  -9.3555127   -9.4157536   -9.48001056
  -9.54828359  -9.61254055  -9.67077342  -9.71495009  -9.74105448
  -9.74707857  -9.72499024  -9.67679751  -9.60049237  -9.49808283
  -9.37157694  -9.22298271  -9.06033227  -8.88764168  -8.71093503
  -8.53422838  -8.36555385  -8.20691947  -8.06434933  -7.93985147
  -7.8354339   -7.75109664  -7.6888477   -7.64667907  -7.62459074
  -7.62057468  -7.63061483  -7.65471119  -7.68483164  -7.72097618
  -7.75912876  -7.79125724  -7.81736163  -7.83342587  -7.83342587
  -7.81736163  -7.78523315  -7.73302436  -7.66274331  -7.57438999
  -7.46997242  -7.35149864  -7.22097669  -7.08242261  -6.93985247
  -6.79125824  -6.64467204  -6.50009388  -6.35953177  -6.22499375
  -6.09848785  -5.98001408  -5.87158045  -5.77117894  -5.68081759
  -5.59848835  -5.52419124  -5.45391019  -5.38965322  -5.32740429
  -5.26716339  -5.20893051  -5.15069764  -5.0944728   -5.03824795
  -4.98403114  -4.92981433  -4.87961357  -4.82941282  -4.77921207
  -4.72901132  -4.67680253  -4.62057769  -4.55832876  -4.49407179
  -4.4278068   -4.36555787  -4.30933302  -4.26716439  -4.24909212
  -4.25913227  -4.30732499  -4.39567832  -4.52620027  -4.70089889
  -4.91174206  -5.15069764  -5.40973352  -5.67680153  -5.93784544
  -6.18282512  -6.39768434  -6.57639902  -6.71093704  -6.79929036
  -6.83945096  -6.83744293  -6.79326627  -6.71294507  -6.60049538
  -6.46595736  -6.31133904  -6.14065649  -5.96194181  -5.77720303]","[-1.88416299 -1.70686881 -1.51926683 -1.32135704 -1.11520102 -0.90286031
 -0.68433493 -0.46168642 -0.24109947 -0.02257408  0.18976662  0.39386109
  0.58764775  0.77112661  0.94223611  1.10303781  1.25353171  1.39990249
  1.54008859  1.67821312  1.81633766  1.95858532  2.10083297  2.24720375
  2.39563609  2.54200687  2.68837764  2.82856374  2.96256516  3.08832033
  3.20170615  3.3027226   3.38930813  3.45940118  3.51506331  3.55217139
  3.57072543  3.56866387  3.55010983  3.50887862  3.44909338  3.36869253
  3.27386076  3.1625365   3.03884289  2.90484147  2.76877849  2.6285924
  2.49252942  2.36058957  2.23483439  2.11938702  2.01012432  1.91116943
  1.8142761   1.72150589  1.62873568  1.53184234  1.42876433  1.31950164
  1.19993114  1.07211441  0.93811299  0.7979269   0.65567924  0.51549314
  0.37943016  0.24955187  0.12791981  0.01865712 -0.07823621 -0.1668833
 -0.24316103 -0.30913096 -0.36891621 -0.42045521 -0.4678711  -0.5091023
 -0.54621039 -0.58125691 -0.61011876 -0.63279592 -0.65134996 -0.6595962
 -0.6595962  -0.64722684 -0.62042656 -0.58125691 -0.52353323 -0.4472555
 -0.35242372 -0.23697635 -0.10297493  0.04958052  0.22069002  0.40623045
  0.60620179  0.81235782  1.02469852  1.23703923  1.44731837  1.65141284
  1.8451995   2.02867836  2.19566474  2.34615864  2.48016006  2.59560743
  2.69456233  2.77496318  2.83680998  2.88216431  2.90690303  2.91514927
  2.90690303  2.88010275  2.83887154  2.78527098  2.72342417  2.65333112
  2.58323807  2.51520658  2.45542134  2.40800545  2.37502049  2.36058957
  2.36471269  2.38738985  2.42862105  2.48428318  2.55025311  2.62446928
  2.70074701  2.77702474  2.84917934  2.91514927  2.97493452  3.02853509
  3.07801253  3.12748998]",0.9010031114426539,2.659464262337665,4.980005,-0.13850499999999943
019,1,1,csp,39a.png,1,1,352,296,350,1,1,313,pos_feedback_onset,6,"[-0.85102683 -0.76004036 -0.65287851 -0.53560705 -0.41024791 -0.28691069
 -0.16761731 -0.05641161  0.04266255  0.12758326  0.19835052  0.25698624
  0.30146852  0.33584119  0.36414809  0.38638923  0.40458653  0.4207619
  0.43491535  0.44704688  0.45513457  0.45311265  0.44098112  0.41469614
  0.36617002  0.29135891  0.19026283  0.05883792 -0.10291581 -0.29297645
 -0.50527823 -0.73173345 -0.96627637 -1.19879736 -1.42120875 -1.62542283
 -1.80537386 -1.96106183 -2.09046482 -2.19560475 -2.27648161 -2.33713926
 -2.3775777  -2.40386268 -2.41397229 -2.40992844 -2.39577499 -2.37151193
 -2.34118311 -2.31085428 -2.28254738 -2.26637201 -2.26637201 -2.29063507
 -2.34522695 -2.43216958 -2.55348488 -2.70917285 -2.89721157 -3.10951334
 -3.34001241 -3.58062109 -3.82325169 -4.05779461 -4.27616215 -4.47026663
 -4.63606421 -4.76748912 -4.86049751 -4.91711132 -4.93328669 -4.91104556
 -4.85240983 -4.76142335 -4.64212997 -4.49655161 -4.33277596 -4.15484685
 -3.96478621 -3.76865981 -3.56646764 -3.36427547 -3.15803946 -2.94978153
 -2.73747976 -2.52517798 -2.30883236 -2.09248674 -1.87614112 -1.66586127
 -1.4636691  -1.27765231 -1.10983281 -0.96829829 -0.85304875 -0.77014997
 -0.71758    -0.69331694 -0.69129502 -0.70342655 -0.72162385 -0.73982114
 -0.74588691 -0.7357773  -0.70140463 -0.64479082 -0.56189203 -0.45473018
 -0.32937104 -0.1858146  -0.03214855  0.1316271   0.29742468  0.46322226
  0.62497599  0.77662012  0.91613271  1.04149185  1.14460986  1.22346481
  1.27603477  1.29827591  1.29221014  1.25581555  1.19313598  1.10619335
  1.00509726  0.89186965  0.77662012  0.66743634  0.5703841   0.49355108
  0.44098112  0.41671806  0.41873998  0.45109073  0.50972645  0.59060332
  0.68563364  0.79279549  0.90400118  1.01318495  1.11428103  1.20122367
  1.269969    1.31849512  1.34478011  1.34882395  1.3346705   1.30434167
  1.26188132  1.21537712  1.16887292  1.13045641  1.1021495   1.08799605
  1.0920399   1.11023719  1.14460986  1.18707022  1.23559634  1.28210053
  1.32253897  1.35084587  1.3629774   1.35691164  1.33062665  1.28614438
  1.22346481  1.14460986  1.05362338  0.95050538  0.83525584  0.7098967
  0.5703841   0.41873998  0.25496432  0.07501329 -0.11302542 -0.3071299
 -0.49921246 -0.68522926 -0.85102683 -0.99053943 -1.09567936 -1.15633701
 -1.17049046 -1.13409587 -1.04917516 -0.91775025 -0.74184306 -0.52954129
 -0.28691069 -0.01597318  0.27316162  0.57847179  0.89591349  1.21942096
  1.5489942   1.88058935  2.20814066  2.52962621  2.83898022  3.13418079
  3.41118406  3.66796811  3.9004891   4.10874704  4.29476383  4.45651756
  4.59805208  4.7213893   4.82652923  4.91549378  4.98828296  5.04691869
  5.08735713  5.10757634  5.10757634  5.08735713  5.04287485  4.97412951
  4.88516496  4.77800311  4.65264397  4.51313137  4.36553109  4.21388696
  4.06224284  3.91262063  3.76906419  3.63359544  3.50621438  3.39096484
  3.28582491  3.19281652  3.10789581  3.03106278  2.96029552  2.88952827
  2.81876101  2.74192798  2.65498535  2.55793311  2.44874934  2.32945596
  2.20409682  2.07671575  1.95337853  1.84015092  1.7451206   1.67233142
  1.62178338  1.59347647  1.58538879  1.59347647  1.605608    1.61976145
  1.62582722  1.62178338]","[ -0.57460965  -0.58581061  -0.59514475  -0.59887841  -0.5914111
  -0.56900916  -0.5316726   -0.47380094  -0.39726099  -0.30205276
  -0.1844426   -0.05189782   0.09744842   0.25799562   0.42787697
   0.6033588    0.7769738    0.94498831   1.10366869   1.24368079
   1.36315778   1.45463235   1.51437084   1.53863961   1.52557181
   1.47516745   1.38742654   1.26421589   1.111136     0.93192052
   0.7303031    0.51188423   0.28226439   0.04517724  -0.1975104
  -0.44206486  -0.68848615  -0.93490744  -1.17946191  -1.42028271
  -1.65923669  -1.89445701  -2.12407685  -2.34622938  -2.5609146
  -2.7681325   -2.96414944  -3.15083223  -3.32818089  -3.4961954
  -3.65487578  -3.80608885  -3.9498346   -4.0898467   -4.22425831
  -4.35493627  -4.4837474   -4.61255853  -4.737636    -4.86271347
  -4.98779095  -5.11286842  -5.23794589  -5.36675702  -5.49743498
  -5.63184659  -5.77372552  -5.92493858  -6.08735261  -6.26470127
  -6.45885138  -6.66980294  -6.9012896   -7.15144455  -7.41840095
  -7.69842514  -7.98965031  -8.28647595  -8.58703525  -8.8838609
  -9.17881972  -9.46444439  -9.74446859 -10.01702547 -10.28024821
 -10.53600364 -10.78615859 -11.0269794  -11.26219972 -11.4880859
 -11.70277112 -11.9081222  -12.09853865 -12.27402048 -12.43643451
 -12.58391392 -12.72205919 -12.8564708  -12.98901558 -13.13276134
 -13.28957489 -13.4706572  -13.68160876 -13.92429639 -14.20432059
 -14.52168134 -14.872645   -15.2534779  -15.6604464  -16.08608317
 -16.52665457 -16.97469328 -17.42273199 -17.86703705 -18.30387479
 -18.72577791 -19.1327464  -19.52104662 -19.88881173 -20.2341749
 -20.55340248 -20.85022813 -21.11905135 -21.35987216 -21.57269055
 -21.75563969 -21.90685275 -22.02446291 -22.11220383 -22.16634184
 -22.1906106  -22.18687695 -22.15514087 -22.09913603 -22.02446291
 -21.936722   -21.83778012 -21.73510458 -21.63242904 -21.53348716]",3.9493185112994964,0.15877371804922547,4.945790000000001,0.19977999999999962
019,1,1,csp,57a.png,1,1,196,222,197,1,1,364,pos_feedback_onset,7,"[-2.64103279e-01 -1.86770464e-01 -1.25841580e-01 -8.13166263e-02
 -5.08521842e-02 -3.67916724e-02 -3.21048352e-02 -3.67916724e-02
 -4.85087656e-02 -6.02258587e-02 -6.95995332e-02 -7.42863704e-02
 -6.72561146e-02 -4.61653469e-02 -1.10140675e-02  4.52279795e-02
  1.20217376e-01  2.16297539e-01  3.35811889e-01  4.74073588e-01
  6.33426055e-01  8.09182452e-01  1.00602962e+00  1.21693729e+00
  1.44424890e+00  1.68796444e+00  1.94339707e+00  2.21054679e+00
  2.48707019e+00  2.77062384e+00  3.05886433e+00  3.34710482e+00
  3.63534531e+00  3.91421213e+00  4.18370527e+00  4.43679448e+00
  4.67582318e+00  4.89376112e+00  5.09295170e+00  5.27105152e+00
  5.42571714e+00  5.56163542e+00  5.67646294e+00  5.77254310e+00
  5.85221933e+00  5.91314822e+00  5.96001659e+00  5.99282445e+00
  6.01391522e+00  6.02328889e+00  6.02328889e+00  6.01625864e+00
  6.00219813e+00  5.98345078e+00  5.96236001e+00  5.93892582e+00
  5.91314822e+00  5.88737061e+00  5.86159301e+00  5.83581540e+00
  5.81003780e+00  5.78426019e+00  5.75379575e+00  5.72098789e+00
  5.68114977e+00  5.63193798e+00  5.57100910e+00  5.48898945e+00
  5.38822245e+00  5.25933442e+00  5.10232537e+00  4.91485188e+00
  4.68988370e+00  4.43445107e+00  4.14152374e+00  3.82047539e+00
  3.47130601e+00  3.09870245e+00  2.70969496e+00  2.30897037e+00
  1.90824579e+00  1.51220804e+00  1.13023080e+00  7.71687754e-01
  4.41265727e-01  1.45994980e-01 -1.09437650e-01 -3.18001908e-01
 -4.82041211e-01 -5.99212143e-01 -6.71858120e-01 -6.99979144e-01
 -6.88262050e-01 -6.46080515e-01 -5.71091119e-01 -4.75010955e-01
 -3.60183443e-01 -2.31295418e-01 -9.06903008e-02  5.92884912e-02
  2.18640958e-01  3.82680262e-01  5.51406403e-01  7.24819381e-01
  8.98232359e-01  1.07633217e+00  1.25208857e+00  1.42550155e+00
  1.59657111e+00  1.76529725e+00  1.92699314e+00  2.08868902e+00
  2.24804149e+00  2.40739395e+00  2.56908984e+00  2.73312914e+00
  2.90185528e+00  3.07526826e+00  3.24868124e+00  3.42443764e+00
  3.59785062e+00  3.76657676e+00  3.92592922e+00  4.07356460e+00
  4.20713946e+00  4.32431039e+00  4.42507739e+00  4.50709704e+00
  4.57505618e+00  4.62661139e+00  4.66176267e+00  4.68754028e+00
  4.69925737e+00  4.70160079e+00  4.69691395e+00  4.68285344e+00
  4.66410609e+00  4.63832849e+00  4.61020746e+00  4.58208644e+00
  4.55396542e+00  4.53287465e+00  4.51881414e+00  4.51647072e+00
  4.52584439e+00  4.54927858e+00  4.58677328e+00  4.63598507e+00
  4.69691395e+00  4.76721651e+00  4.84220591e+00  4.91719530e+00
  4.98984128e+00  5.06014384e+00  5.12575956e+00  5.18434503e+00
  5.23824365e+00  5.28979886e+00  5.33666724e+00  5.38587903e+00
  5.43509082e+00  5.48664603e+00  5.54288808e+00  5.60616038e+00
  5.67411952e+00  5.74676550e+00  5.82878515e+00  5.91549164e+00
  6.01157180e+00  6.11233880e+00  6.21779264e+00  6.33027673e+00
  6.44979108e+00  6.57164885e+00  6.69585004e+00  6.82473806e+00
  6.95128267e+00  7.07782728e+00  7.19968504e+00  7.31685598e+00
  7.42699665e+00  7.53010707e+00  7.62618723e+00  7.71523714e+00
  7.79725679e+00  7.87458961e+00  7.94957900e+00  8.02456840e+00
  8.10424463e+00  8.18860770e+00  8.28234445e+00  8.38076803e+00
  8.49090871e+00  8.60573622e+00  8.72993741e+00  8.85648201e+00
  8.98771346e+00  9.12128832e+00  9.25720660e+00  9.39312488e+00
  9.53373000e+00  9.67902195e+00  9.83603100e+00  1.00024137e+01
  1.01875438e+01  1.03890778e+01  1.06070157e+01  1.08413576e+01
  1.10897600e+01  1.13451926e+01  1.16006252e+01  1.18513710e+01
  1.20857129e+01  1.23013074e+01  1.24911243e+01  1.26504768e+01
  1.27793648e+01  1.28777884e+01  1.29457475e+01  1.29832422e+01
  1.29949593e+01  1.29762120e+01  1.29270002e+01  1.28473239e+01
  1.27301530e+01  1.25754874e+01  1.23786402e+01  1.21396115e+01
  1.18537144e+01  1.15256358e+01  1.11577191e+01  1.07499643e+01
  1.03117450e+01  9.84774809e+00  9.36266044e+00  8.85882543e+00
  8.34327333e+00  7.81834756e+00  7.29107837e+00  6.76146576e+00
  6.23419657e+00  5.71395764e+00  5.20543579e+00  4.71331788e+00
  4.24229074e+00  3.79235436e+00  3.36585217e+00  2.96981442e+00
  2.59721086e+00  2.25272833e+00  1.93402339e+00  1.63875265e+00
  1.36691608e+00  1.11851371e+00  8.95888941e-01  6.99041776e-01
  5.27972216e-01  3.87367099e-01  2.79569842e-01  2.04580446e-01]","[-0.92114024 -0.81767363 -0.70462678 -0.58774783 -0.46703678 -0.34632574
 -0.22944679 -0.11639994 -0.01101728  0.08478514  0.16909127  0.24381715
  0.30704675  0.3606961   0.40668126  0.44691828  0.48523924  0.52164416
  0.56379722  0.61169843  0.66726384  0.73432553  0.81288351  0.90293778
  1.00257229  1.11178705  1.22674995  1.34554495  1.46433995  1.58121889
  1.69618179  1.80156445  1.89928292  1.98742114  2.06406308  2.12920872
  2.17902598  2.2154309   2.23650743  2.24225557  2.23267533  2.20968275
  2.17136178  2.12346057  2.06597912  2.00849767  1.95293227  1.90694711
  1.87629034  1.8667101   1.88395453  1.92802364  2.00083348  2.10238404
  2.22884323  2.378295    2.54499121  2.72509975  2.91478854  3.11214152
  3.31141055  3.50876353  3.70420046  3.89388924  4.07208174  4.23494585
  4.37673342  4.48978028  4.57025431  4.60665923  4.59516294  4.5261852
  4.39780996  4.20620512  3.95328674  3.64288691  3.28075377  2.87646757
  2.4415246   1.98933719  1.52948559  1.07538213  0.63469101  0.21507643
 -0.17579744 -0.53601452 -0.86365879 -1.15873023 -1.42314491 -1.65881885
 -1.86766812 -2.05352481 -2.21638892 -2.36200859 -2.49038383 -2.60151464
 -2.6992331  -2.78353923 -2.85443302 -2.90999842 -2.95023543 -2.97322801
 -2.97514406 -2.95598358 -2.91191447 -2.84293673 -2.74713431 -2.62642326
 -2.48080359 -2.31410738 -2.13016674 -1.93281376 -1.72779659 -1.51703127
 -1.30818201 -1.10316483 -0.90389581 -0.71229097 -0.52835033 -0.35207388
 -0.18154558 -0.01676542  0.14226659  0.29363441  0.44117013  0.57912561
  0.70750085  0.8243798   0.92401431  1.00640439  1.06963399  1.1137031
  1.13669568  1.14627592  1.14244382  1.12903149  1.11561915  1.10220681
  1.09837471  1.10412286]",11.088236741523271,2.541542323112792,4.26727,0.3863499999999984
019,1,1,csm,35b.png,1,1,40,93,42,1,1,336,neu_feedback_onset,8,"[-3.67196324e-01 -2.94782916e-01 -2.28403958e-01 -1.68059451e-01
 -1.17772362e-01 -7.35197241e-02 -3.53015365e-02 -5.12928308e-03
  1.69970361e-02  3.71118717e-02  5.11922566e-02  6.32611580e-02
  7.53300593e-02  8.94104442e-02  1.05502313e-01  1.23605665e-01
  1.45731984e-01  1.69869787e-01  1.94007589e-01  2.18145392e-01
  2.36248744e-01  2.44294678e-01  2.40271711e-01  2.16133908e-01
  1.71881270e-01  1.01479346e-01  2.91665116e-03 -1.23806813e-01
 -2.78691047e-01 -4.61736051e-01 -6.66907374e-01 -8.96216500e-01
 -1.13960601e+00 -1.39506442e+00 -1.65856877e+00 -1.92207312e+00
 -2.18356598e+00 -2.43500142e+00 -2.67637945e+00 -2.89965413e+00
 -3.10482545e+00 -3.28787045e+00 -3.44677765e+00 -3.58355854e+00
 -3.69419013e+00 -3.78068392e+00 -3.84505140e+00 -3.88729255e+00
 -3.90740739e+00 -3.90740739e+00 -3.89131552e+00 -3.85913178e+00
 -3.81085618e+00 -3.74850019e+00 -3.67608678e+00 -3.59361595e+00
 -3.50511068e+00 -3.41258243e+00 -3.31804271e+00 -3.22752595e+00
 -3.14505512e+00 -3.07264171e+00 -3.01430869e+00 -2.97407902e+00
 -2.94792973e+00 -2.93988380e+00 -2.94792973e+00 -2.97005605e+00
 -3.00223979e+00 -3.04448094e+00 -3.09074506e+00 -3.14304364e+00
 -3.19735369e+00 -3.25166375e+00 -3.30396232e+00 -3.35626089e+00
 -3.40855947e+00 -3.45482359e+00 -3.49907623e+00 -3.53930590e+00
 -3.57148963e+00 -3.59562744e+00 -3.60970782e+00 -3.60970782e+00
 -3.59361595e+00 -3.56344370e+00 -3.51919106e+00 -3.45884655e+00
 -3.38844463e+00 -3.30999677e+00 -3.23154891e+00 -3.15712402e+00
 -3.09275655e+00 -3.04850391e+00 -3.02436611e+00 -3.02436611e+00
 -3.05252688e+00 -3.10482545e+00 -3.18327331e+00 -3.27781303e+00
 -3.38844463e+00 -3.50913364e+00 -3.62982266e+00 -3.74648870e+00
 -3.85712030e+00 -3.95769448e+00 -4.04418827e+00 -4.12062465e+00
 -4.18700360e+00 -4.24533663e+00 -4.29964668e+00 -4.35194526e+00
 -4.40826680e+00 -4.46861130e+00 -4.53700174e+00 -4.61343812e+00
 -4.69993191e+00 -4.79648312e+00 -4.90309175e+00 -5.01774631e+00
 -5.14245829e+00 -5.27521621e+00 -5.41602006e+00 -5.56285836e+00
 -5.71774259e+00 -5.87866128e+00 -6.04159145e+00 -6.20653310e+00
 -6.36946327e+00 -6.52434750e+00 -6.67118580e+00 -6.79992075e+00
 -6.90854086e+00 -6.99503465e+00 -7.05336768e+00 -7.08353993e+00
 -7.08353993e+00 -7.05336768e+00 -6.99704614e+00 -6.91859828e+00
 -6.81601262e+00 -6.69934657e+00 -6.56860014e+00 -6.42980777e+00
 -6.28296947e+00 -6.13411969e+00 -5.98526991e+00 -5.83843161e+00
 -5.69360479e+00 -5.55481242e+00 -5.41803154e+00 -5.28929659e+00
 -5.16659610e+00 -5.04993005e+00 -4.93728697e+00 -4.83067834e+00
 -4.72608120e+00 -4.62349554e+00 -4.51889839e+00 -4.40826680e+00
 -4.29361223e+00 -4.17091174e+00 -4.04016530e+00 -3.90539591e+00
 -3.77062651e+00 -3.63988008e+00 -3.52120255e+00 -3.41861688e+00
 -3.34016902e+00 -3.28988194e+00 -3.26775562e+00 -3.27580155e+00
 -3.30597380e+00 -3.35223793e+00 -3.40453650e+00 -3.44878914e+00
 -3.47292694e+00 -3.46488101e+00 -3.41057095e+00 -3.30396232e+00
 -3.13902067e+00 -2.91574599e+00 -2.63614978e+00 -2.30827796e+00
 -1.94218795e+00 -1.55598311e+00 -1.16374381e+00 -7.81561937e-01
 -4.23517863e-01 -1.07714945e-01  1.59812369e-01  3.71018143e-01
  5.21879410e-01  6.14407653e-01  6.54637324e-01  6.48602874e-01
  6.10384686e-01  5.52051663e-01  4.81649738e-01  4.13259297e-01
  3.58949241e-01  3.22742537e-01  3.12685119e-01  3.34811439e-01
  3.91132978e-01  4.83661222e-01  6.12396170e-01  7.77337822e-01
  9.80497661e-01  1.21584124e+00  1.48336855e+00  1.77704515e+00
  2.09284807e+00  2.42675434e+00  2.76669506e+00  3.11065875e+00
  3.45059947e+00  3.77847129e+00  4.09025124e+00  4.37789339e+00
  4.63938626e+00  4.87070687e+00  5.06783225e+00  5.22875094e+00
  5.34943995e+00  5.42587633e+00  5.45806006e+00  5.43995671e+00
  5.37156627e+00  5.24886577e+00  5.07587819e+00  4.85662648e+00
  4.59513362e+00  4.30547999e+00  3.99571152e+00  3.68192008e+00
  3.37818606e+00  3.09858985e+00  2.85922331e+00  2.67014385e+00
  2.53738594e+00  2.46899550e+00  2.46094956e+00  2.51123665e+00
  2.60577638e+00  2.73048836e+00  2.87129221e+00  3.00807309e+00
  3.12071617e+00  3.19514106e+00  3.21927886e+00  3.18106068e+00
  3.07847501e+00  2.90951039e+00  2.68020127e+00  2.39658209e+00
  2.06468730e+00  1.69256284e+00  1.29227761e+00  8.69866065e-01]","[-8.02702204e-01 -7.48347521e-01 -6.92051598e-01 -6.31873198e-01
 -5.65871082e-01 -4.94045250e-01 -4.10571986e-01 -3.15451289e-01
 -2.12565638e-01 -9.99737933e-02  2.03830064e-02  1.44622283e-01
  2.68861561e-01  3.87277122e-01  4.97927728e-01  5.94989663e-01
  6.78462927e-01  7.46406282e-01  7.98819727e-01  8.35703262e-01
  8.62880604e-01  8.82292991e-01  8.95881662e-01  9.05587856e-01
  9.15294049e-01  9.26941481e-01  9.38588914e-01  9.52177585e-01
  9.63825017e-01  9.73531210e-01  9.77413688e-01  9.75472449e-01
  9.63825017e-01  9.42471391e-01  9.11411572e-01  8.70645559e-01
  8.22114591e-01  7.65818669e-01  7.03699030e-01  6.41579392e-01
  5.77518515e-01  5.15398876e-01  4.57161715e-01  3.98924554e-01
  3.44569870e-01  2.92156425e-01  2.37801741e-01  1.81505819e-01
  1.23268658e-01  5.92077805e-02 -6.79433547e-03 -7.66789288e-02
 -1.46563522e-01 -2.14506877e-01 -2.76626515e-01 -3.27098722e-01
 -3.65923496e-01 -3.89218360e-01 -3.96983315e-01 -3.87277122e-01
 -3.62041018e-01 -3.21275006e-01 -2.70802799e-01 -2.10624399e-01
 -1.40739806e-01 -6.89139740e-02  6.79433547e-03  8.44438836e-02
  1.58210954e-01  2.26154309e-01  2.86332709e-01  3.34863677e-01
  3.67864734e-01  3.77570928e-01  3.60099780e-01  3.07686335e-01
  2.18389354e-01  8.25026449e-02 -9.99737933e-02 -3.30981199e-01
 -6.10519573e-01 -9.36647675e-01 -1.30354179e+00 -1.70343696e+00
 -2.13050948e+00 -2.57311190e+00 -3.02542052e+00 -3.47772914e+00
 -3.92615528e+00 -4.36487523e+00 -4.79194774e+00 -5.20543159e+00
 -5.60532676e+00 -5.98775078e+00 -6.35658614e+00 -6.70989158e+00
 -7.04572588e+00 -7.36214779e+00 -7.65721607e+00 -7.92704825e+00
 -8.17164433e+00 -8.38323935e+00 -8.56183331e+00 -8.70160249e+00
 -8.79866443e+00 -8.85301911e+00 -8.86272531e+00 -8.82584177e+00
 -8.74042727e+00 -8.61230551e+00 -8.44147651e+00 -8.23376396e+00
 -7.99305037e+00 -7.73098314e+00 -7.45338601e+00 -7.17190639e+00
 -6.89430926e+00 -6.63030079e+00 -6.38570472e+00 -6.16634474e+00
 -5.97804459e+00 -5.81692178e+00 -5.68297631e+00 -5.57232570e+00
 -5.48302872e+00 -5.40732041e+00 -5.34131830e+00 -5.28113990e+00
 -5.22484397e+00 -5.16854805e+00 -5.11225213e+00 -5.05595621e+00
 -4.99966028e+00 -4.94336436e+00 -4.88706844e+00 -4.83271375e+00
 -4.78418279e+00 -4.73953430e+00 -4.70265076e+00 -4.67353218e+00]",3.471820623942109,0.6488105059838705,4.971454999999999,0.5508399999999991
019,1,1,csm,38b.png,1,1,356,1,356,1,1,462,neu_feedback_onset,9,"[ 0.50307812  0.51126324  0.50307812  0.48466159  0.44987482  0.40485664
  0.34960706  0.28617236  0.21659882  0.13884015  0.05698892 -0.02895487
 -0.12103751 -0.21925898 -0.32157302 -0.42797961 -0.53643249 -0.64693165
 -0.75129197 -0.85155973 -0.94159608 -1.01730847 -1.07665061 -1.12166878
 -1.14622415 -1.15645556 -1.15236299 -1.13190019 -1.10325226 -1.06232664
 -1.0132159  -0.95592004 -0.89248534 -0.8229118  -0.74310685 -0.65511678
 -0.5568953  -0.44639614 -0.3236193  -0.18856477 -0.03918628  0.12451618
  0.30049633  0.48670787  0.68110454  0.88164005  1.08422185  1.28271108
  1.47301518  1.65308789  1.81679035  1.96003     2.08280684  2.18102832
  2.2567407   2.309944    2.3426845   2.35496218  2.35086962  2.33245309
  2.30380516  2.26697211  2.22195393  2.17284319  2.12168618  2.0664366
  2.01118702  1.95389116  1.89454902  1.83725315  1.77791101  1.71652259
  1.65513417  1.59169947  1.5241722   1.4505061   1.36865487  1.27452595
  1.16607307  1.03920367  0.88573261  0.70156735  0.48466159  0.2288765
 -0.06578793 -0.40137797 -0.77584734 -1.1830572  -1.61482244 -2.06909676
 -2.53155621 -2.99606193 -3.45442882 -3.89642545 -4.32000557 -4.71493775
 -5.08326828 -5.41885832 -5.72375415 -5.99590948 -6.23941689 -6.45427637
 -6.6425342  -6.80419037 -6.94538374 -7.06406803 -7.1622895  -7.24414073
 -7.30757543 -7.35463989 -7.38942666 -7.40988947 -7.41602831 -7.40988947
 -7.39351922 -7.36282501 -7.3218994  -7.26664982 -7.19707627 -7.11317876
 -7.01291101 -6.89831929 -6.76735732 -6.62002511 -6.45632265 -6.27829623
 -6.08389956 -5.8772252  -5.65827316 -5.43318228 -5.20195256 -4.96867656
 -4.73744684 -4.51030967 -4.29135764 -4.08672956 -3.89437917 -3.71635275
 -3.55469657 -3.40736436 -3.27230983 -3.14544043 -3.02470986 -2.90602558
 -2.78529502 -2.66047189 -2.53155621 -2.39854796 -2.26349343 -2.1284389
 -1.99952322 -1.88083893 -1.77647862 -1.69258111 -1.63119268 -1.59435963
 -1.58003567 -1.59231335 -1.62710012 -1.68030342 -1.75192325 -1.83377448
 -1.92585711 -2.0220323  -2.12025378 -2.21847525 -2.31055789 -2.39854796
 -2.47630663 -2.54588017 -2.60317603 -2.64819421 -2.68502726 -2.70958263
 -2.72799916 -2.73823056 -2.74232312 -2.7443694  -2.74232312 -2.73823056
 -2.73618428 -2.734138   -2.73823056 -2.74641568 -2.76687849 -2.80166526
 -2.85691484 -2.93467351 -3.03698755 -3.16999579 -3.33165197 -3.5199098
 -3.73476928 -3.965999   -4.20950641 -4.45710637 -4.70266006 -4.93388979
 -5.14670298 -5.33086825 -5.48638558 -5.60916243 -5.69510622 -5.74830952
 -5.76672604 -5.75444836 -5.71556902 -5.65213432 -5.57028309 -5.47615418
 -5.36974758 -5.25515586 -5.13647158 -5.0177873  -4.89705673 -4.77632617
 -4.65559561 -4.53486504 -4.41618076 -4.29954276 -4.18495104 -4.0724056
 -3.965999   -3.86573124 -3.77160233 -3.68770482 -3.61199243 -3.54651145
 -3.48921559 -3.44419741 -3.40531808 -3.37667015 -3.35211478 -3.33369825
 -3.31937429 -3.3070966  -3.2968652  -3.28868008 -3.28049495 -3.27230983
 -3.26412471 -3.25593959 -3.24775446 -3.23752306 -3.22524537 -3.20887513
 -3.1904586  -3.16590323 -3.13316274 -3.09019085 -3.03698755 -2.97355284
 -2.89579418 -2.80780411 -2.70958263 -2.60931487 -2.50904712 -2.41696449
 -2.3412521  -2.29009508]","[-1.84027838e+00 -1.72011190e+00 -1.57957822e+00 -1.41460389e+00
 -1.23129909e+00 -1.02966381e+00 -8.13771486e-01 -5.89732283e-01
 -3.57546200e-01 -1.25360118e-01  1.08862685e-01  3.41048768e-01
  5.67124691e-01  7.87090454e-01  9.98909336e-01  1.20461806e+00
  1.40014318e+00  1.58752142e+00  1.76675279e+00  1.93987399e+00
  2.10892175e+00  2.26982263e+00  2.42868679e+00  2.58347752e+00
  2.73623152e+00  2.88491208e+00  3.03359264e+00  3.17819976e+00
  3.32077017e+00  3.45926713e+00  3.59572737e+00  3.72607745e+00
  3.85235409e+00  3.97252057e+00  4.08657689e+00  4.19452306e+00
  4.29839578e+00  4.39819506e+00  4.49392090e+00  4.58557330e+00
  4.67518898e+00  4.76480466e+00  4.85238362e+00  4.93996259e+00
  5.02550483e+00  5.11104707e+00  5.19251587e+00  5.26787451e+00
  5.33508627e+00  5.39211443e+00  5.43488555e+00  5.46136291e+00
  5.46747307e+00  5.45117931e+00  5.41248163e+00  5.35138003e+00
  5.26991123e+00  5.17418539e+00  5.06623923e+00  4.95421963e+00
  4.84627346e+00  4.74647418e+00  4.66296866e+00  4.59575690e+00
  4.55094906e+00  4.52854514e+00  4.52650842e+00  4.54280218e+00
  4.57335298e+00  4.61612410e+00  4.66907882e+00  4.72610698e+00
  4.78313514e+00  4.84016330e+00  4.89108130e+00  4.93385243e+00
  4.96440323e+00  4.97662355e+00  4.96440323e+00  4.92366883e+00
  4.84831018e+00  4.73221714e+00  4.57335298e+00  4.36357082e+00
  4.10287066e+00  3.79125249e+00  3.43075305e+00  3.02544576e+00
  2.57940408e+00  2.10077487e+00  1.59974174e+00  1.08852502e+00
  5.75271571e-01  7.42384449e-02 -4.04390761e-01 -8.48395727e-01
 -1.24962957e+00 -1.59994542e+00 -1.89323310e+00 -2.12541918e+00
 -2.29446694e+00 -2.40241311e+00 -2.45129439e+00 -2.44722095e+00
 -2.39426623e+00 -2.29854038e+00 -2.17022702e+00 -2.01339958e+00
 -1.83824166e+00 -1.64882670e+00 -1.45533829e+00 -1.25981317e+00
 -1.06632477e+00 -8.80983247e-01 -7.05825325e-01 -5.40851003e-01
 -3.88097001e-01 -2.47563319e-01 -1.19249957e-01 -3.15691604e-03
  1.02752525e-01  1.98478366e-01  2.86057328e-01  3.65489409e-01
  4.36774609e-01  5.03986370e-01  5.65087971e-01  6.22116132e-01
  6.73034132e-01  7.21915413e-01  7.64686534e-01  8.05420934e-01
  8.42081894e-01  8.70595975e-01  8.95036615e-01  9.09293655e-01
  9.15403815e-01  9.07256935e-01  8.86889735e-01  8.52265495e-01]",1.522330550050489,4.826670034043807,4.886915,0.14876999999999985
019,1,1,csm,28b.png,1,1,296,308,295,1,1,416,neu_feedback_onset,10,"[ 2.26338828e-01  2.46961955e-01  2.61398145e-01  2.67585083e-01
  2.63460458e-01  2.51086581e-01  2.28401140e-01  1.97466449e-01
  1.58282506e-01  1.10849312e-01  5.92914924e-02  1.54673459e-03
 -5.82603361e-02 -1.22192032e-01 -1.86123728e-01 -2.52117737e-01
 -3.18111746e-01 -3.84105755e-01 -4.45975139e-01 -5.05782209e-01
 -5.61464655e-01 -6.10960161e-01 -6.52206417e-01 -6.83141109e-01
 -7.07888862e-01 -7.22325051e-01 -7.30574303e-01 -7.32636615e-01
 -7.34698928e-01 -7.38823554e-01 -7.51197430e-01 -7.78007497e-01
 -8.23378378e-01 -8.93497012e-01 -9.90425713e-01 -1.11416448e+00
 -1.26677563e+00 -1.44619684e+00 -1.64417886e+00 -1.85865939e+00
 -2.07726455e+00 -2.29174508e+00 -2.49385173e+00 -2.67327294e+00
 -2.82382177e+00 -2.93724898e+00 -3.01149224e+00 -3.04242693e+00
 -3.03211537e+00 -2.97849523e+00 -2.88981578e+00 -2.76813933e+00
 -2.62171512e+00 -2.45879241e+00 -2.28349583e+00 -2.10819924e+00
 -1.93702728e+00 -1.78235382e+00 -1.64624118e+00 -1.53900091e+00
 -1.46063303e+00 -1.41526215e+00 -1.40495058e+00 -1.42557371e+00
 -1.47713153e+00 -1.55343710e+00 -1.65449043e+00 -1.77204226e+00
 -1.90609259e+00 -2.04839217e+00 -2.20100332e+00 -2.35567677e+00
 -2.51447486e+00 -2.67533525e+00 -2.83207103e+00 -2.98880680e+00
 -3.13935563e+00 -3.28165521e+00 -3.41364323e+00 -3.53325737e+00
 -3.63224838e+00 -3.71061627e+00 -3.76629872e+00 -3.79310878e+00
 -3.79104647e+00 -3.76217409e+00 -3.70855396e+00 -3.63224838e+00
 -3.53944431e+00 -3.43632867e+00 -3.32702609e+00 -3.22184814e+00
 -3.12285713e+00 -3.03211537e+00 -2.95580979e+00 -2.89187810e+00
 -2.84238259e+00 -2.80526096e+00 -2.77638858e+00 -2.75782777e+00
 -2.74751620e+00 -2.74339158e+00 -2.74545389e+00 -2.75576545e+00
 -2.77432627e+00 -2.79907402e+00 -2.83207103e+00 -2.87537959e+00
 -2.92693741e+00 -2.98674448e+00 -3.05686312e+00 -3.13316869e+00
 -3.21772352e+00 -3.31258990e+00 -3.41570554e+00 -3.53119506e+00
 -3.65905845e+00 -3.79929572e+00 -3.95190687e+00 -4.11689189e+00
 -4.29218847e+00 -4.47160969e+00 -4.65309321e+00 -4.83251442e+00
 -4.99956176e+00 -5.15011059e+00 -5.27591167e+00 -5.37696500e+00
 -5.44502132e+00 -5.48214295e+00 -5.48214295e+00 -5.44914594e+00
 -5.38521425e+00 -5.29034786e+00 -5.16867141e+00 -5.02637182e+00
 -4.86344912e+00 -4.68609022e+00 -4.49841975e+00 -4.30456235e+00
 -4.10451801e+00 -3.90653598e+00 -3.70855396e+00 -3.51469656e+00
 -3.32908841e+00 -3.15172951e+00 -2.98468217e+00 -2.83207103e+00
 -2.69183376e+00 -2.56809499e+00 -2.46085473e+00 -2.37011296e+00
 -2.29793202e+00 -2.24431188e+00 -2.20925257e+00 -2.19069175e+00
 -2.19275406e+00 -2.21131488e+00 -2.24431188e+00 -2.29586970e+00
 -2.35980140e+00 -2.43404466e+00 -2.51859948e+00 -2.60934125e+00
 -2.70420763e+00 -2.79701171e+00 -2.88981578e+00 -2.97643292e+00
 -3.05480081e+00 -3.12491944e+00 -3.18266420e+00 -3.22803508e+00
 -3.26309440e+00 -3.28371753e+00 -3.29402909e+00 -3.29402909e+00
 -3.28371753e+00 -3.26721902e+00 -3.24865821e+00 -3.22803508e+00
 -3.21153658e+00 -3.19916270e+00 -3.19503808e+00 -3.20328733e+00
 -3.22391045e+00 -3.25896977e+00 -3.30640297e+00 -3.36414772e+00
 -3.42807942e+00 -3.49819805e+00 -3.56625438e+00 -3.62812376e+00
 -3.67968158e+00 -3.71886552e+00 -3.74155096e+00 -3.74773790e+00
 -3.73536402e+00 -3.70855396e+00 -3.66730770e+00 -3.61368757e+00
 -3.55181819e+00 -3.48169955e+00 -3.40745629e+00 -3.33115072e+00
 -3.25072052e+00 -3.17029032e+00 -3.08779781e+00 -3.00324299e+00
 -2.91662585e+00 -2.82794640e+00 -2.73514233e+00 -2.64027594e+00
 -2.53922261e+00 -2.43610697e+00 -2.33092902e+00 -2.22575107e+00
 -2.11851080e+00 -2.01539516e+00 -1.91434184e+00 -1.81947545e+00
 -1.73079600e+00 -1.64830349e+00 -1.56993560e+00 -1.49569234e+00
 -1.42144908e+00 -1.34308120e+00 -1.26058869e+00 -1.16778461e+00
 -1.06054435e+00 -9.38867893e-01 -8.00692937e-01 -6.46019479e-01
 -4.74847518e-01 -2.91301680e-01 -9.74442789e-02  1.00537748e-01
  2.98519775e-01  4.90314864e-01  6.71798388e-01  8.38845724e-01
  9.87332244e-01  1.11313332e+00  1.21624896e+00  1.29874147e+00
  1.35648623e+00  1.39360786e+00  1.41216868e+00  1.41423099e+00
  1.40185711e+00  1.37917167e+00  1.34617467e+00  1.30905304e+00
  1.26574447e+00  1.21831128e+00  1.17087808e+00  1.12138257e+00
  1.07188707e+00  1.02445387e+00  9.74958367e-01  9.27525173e-01]","[-1.3218664  -1.17242955 -1.01649545 -0.86056134 -0.70246148 -0.54652738
 -0.39492478 -0.24765368 -0.10687983  0.025231    0.15301034  0.27212667
  0.38474575  0.49303332  0.59698939  0.69661396  0.79623852  0.89153159
  0.9846589   1.07562046  1.15791902  1.23588607  1.30302436  1.3593339
  1.40481468  1.43730095  1.45895847  1.46978723  1.47411873  1.47411873
  1.47195298  1.46978723  1.47411873  1.48061598  1.49361049  1.5109365
  1.53259402  1.55641728  1.5824063   1.60622957  1.63005283  1.6538761
  1.67553361  1.69935688  1.7253459   1.75566642  1.79464994  1.84013072
  1.89427451  1.9570813   2.0285511   2.10651815  2.18665096  2.26678376
  2.34691657  2.42271787  2.48985616  2.5504972   2.60464099  2.65012177
  2.6934368   2.73242032  2.7735696   2.81905038  2.86886267  2.92733796
  2.9923105   3.06594605  3.1439131   3.22404591  3.30417871  3.38214576
  3.45361556  3.52075385  3.58356065  3.64203594  3.69834547  3.76115227
  3.83045631  3.91058912  4.00804793  4.12283276  4.25710935  4.41520921
  4.58846932  4.77905545  4.98263609  5.19271398  5.40279187  5.60853826
  5.80778739  5.99187627  6.15863913  6.30807598  6.43802107  6.55064014
  6.64593321  6.73039751  6.80619881  6.87766861  6.94697266  7.02277396
  7.10507251  7.19819983  7.30432165  7.42343798  7.55338307  7.69199116
  7.83926226  7.99086486  8.14030171  8.28324131  8.4175179   8.53879998
  8.64275605  8.73155186  8.80302166  8.85933119  8.90048047  8.93296674
  8.95462426  8.97195027  8.98711053  9.00443654  9.0239283   9.04558582
  9.07374059  9.10406111  9.13871313  9.17553091  9.21234868  9.25133221
  9.28814998  9.32713351  9.36828279  9.41159782  9.4614101   9.52205114
  9.59352094  9.67798524]",0.6462382086876475,9.215545743326365,4.848924999999999,-0.10989500000000074
019,1,1,csm,51b.png,1,1,164,133,165,1,1,304,neu_feedback_onset,11,"[ -1.48427425  -1.31915455  -1.11228045  -0.87124365  -0.60363586
  -0.32084465  -0.03995138   0.22386056   0.45730565   0.64520047
   0.77615747   0.84638079   0.85207458   0.79513675   0.6812611
   0.51993725   0.32445072   0.10429112  -0.12346019  -0.35121149
  -0.56757524  -0.76685763  -0.94716075  -1.10468874  -1.24323745
  -1.36280688  -1.4671929   -1.55639549  -1.63610845  -1.7082297
  -1.77275924  -1.83349292  -1.89232867  -1.9492665   -2.00620433
  -2.06883593  -2.1352634   -2.21307843  -2.3003831   -2.40097326
  -2.51674684  -2.64580591  -2.79004841  -2.94567847  -3.10890024
  -3.27591786  -3.43913963  -3.59287176  -3.72952255  -3.84529613
  -3.93070287  -3.98384484  -4.00282412  -3.9876407   -3.94019251
  -3.8642754   -3.76178732  -3.64031995  -3.5055671   -3.3613246
  -3.21138832  -3.06334997  -2.91720955  -2.78055877  -2.65529555
  -2.54711368  -2.45791108  -2.39338155  -2.355423    -2.34972921
  -2.37440227  -2.43703388  -2.53382819  -2.66668312  -2.83559867
  -3.03867692  -3.27212201  -3.53024015  -3.81303136  -4.11100599
  -4.42036818  -4.73542415  -5.05048013  -5.35794439  -5.65402109
  -5.93491437  -6.19493045  -6.43596725  -6.65612684  -6.85351131
  -7.03381443  -7.19513827  -7.34127869  -7.47413362  -7.59370306
  -7.70188493  -7.79867923  -7.8859839   -7.961901    -8.02643054
  -8.07957251  -8.12512277  -8.1611834   -8.18965231  -8.21052951
  -8.22571293  -8.2371005   -8.24469221  -8.25038599  -8.25228392
  -8.25038599  -8.24469221  -8.23330464  -8.22001915  -8.20103987
  -8.18016267  -8.15548961  -8.13271448  -8.11563313  -8.10993935
  -8.11942899  -8.14979583  -8.21052951  -8.30163004  -8.43068911
  -8.59960466  -8.80837669  -9.05510728  -9.34169434  -9.66244409
 -10.01545862 -10.39504413 -10.79550685 -11.21494884 -11.64577839
 -12.08419966 -12.52451885 -12.95914426 -13.38617796 -13.79423239
 -14.18140961 -14.53821999 -14.85896975 -15.1379651  -15.36951226
 -15.55361123 -15.68456824 -15.76238327 -15.79085218 -15.76807705
 -15.69785373 -15.58777393 -15.44163351 -15.26512625 -15.06394592
 -14.8418884  -14.60844331 -14.36550858 -14.118778   -13.87394535
 -13.63290855 -13.39946346 -13.17740593 -12.9686339  -12.77504529
 -12.59853803 -12.43721418 -12.29486962 -12.16581054 -12.05383282
 -11.95134473 -11.86024421 -11.77673539 -11.69702244 -11.62110533
 -11.54518823 -11.46927113 -11.3914561  -11.31364107 -11.23582604
 -11.15801101 -11.08399184 -11.01376852 -10.94734105 -10.88470944
 -10.83156747 -10.78222135 -10.74046695 -10.7025084  -10.67024363
 -10.64177471 -10.61710166 -10.59432653 -10.56965347 -10.54498041
 -10.5165115  -10.48424673 -10.44628818 -10.40073791 -10.34569802
 -10.28496433 -10.21474101 -10.13692598 -10.05341717  -9.96421458
  -9.87121613  -9.77442182  -9.67952544  -9.58462906  -9.49163061
  -9.40242802  -9.32081713  -9.24110418  -9.16898293  -9.09875961
  -9.03423007  -8.96970054  -8.90706893  -8.84253939  -8.77611192
  -8.70968446  -8.64135907  -8.5749316   -8.51040207  -8.45346424
  -8.40981191  -8.37944506  -8.3680575   -8.38134299  -8.41740362
  -8.48193315  -8.56923782  -8.67931762  -8.81027462  -8.95641504
  -9.1120451   -9.27147102  -9.43279486  -9.58652699  -9.73266741
  -9.86362442  -9.97750007 -10.07049852 -10.14072184 -10.18817003
 -10.20904723 -10.20525138 -10.17488453 -10.12174256 -10.04772339
  -9.95662287  -9.85033892  -9.7383612   -9.62448554  -9.51250782
  -9.4081218   -9.31891921  -9.24679796  -9.19365599  -9.16328915]","[-1.16097583 -1.03147382 -0.90003895 -0.76860407 -0.63910207 -0.5076672
 -0.38009805 -0.25446178 -0.13075837 -0.00898783  0.10891699  0.22488893
  0.33506228  0.4413699   0.54381179  0.64238794  0.73709836  0.82794305
  0.91685488  1.00383384  1.0850142   1.16619456  1.23964346  1.30729377
  1.3672126   1.41360138  1.4464601   1.46385589  1.45999016  1.43679577
  1.39233986  1.33048815  1.24930779  1.1526645   1.04828975  0.93618354
  0.82214446  0.71390397  0.61532782  0.53221459  0.46456429  0.41817551
  0.39111539  0.38531679  0.39884685  0.43170557  0.47616148  0.53414746
  0.60179776  0.67331379  0.75062842  0.83180879  0.91105628  0.99030378
  1.06568554  1.13526871  1.19712042  1.24930779  1.28603224  1.30149517
  1.29569657  1.25897212  1.19132182  1.08887993  0.95164646  0.78155428
  0.5824691   0.35825667  0.11471558 -0.1404227  -0.40135958 -0.65649786
 -0.90583754 -1.1397143  -1.3542624  -1.54948185 -1.71957404 -1.86647183
 -1.98630951 -2.08101993 -2.1506031  -2.19699188 -2.2182534  -2.22018627
 -2.20279048 -2.16993176 -2.12740871 -2.07522134 -2.0211011  -1.96504799
 -1.91286061 -1.86453897 -1.82201592 -1.78142574 -1.74470129 -1.70797684
 -1.66738666 -1.61906501 -1.56301191 -1.49729447 -1.42191271 -1.33686661
 -1.24408905 -1.14744577 -1.04693675 -0.94449486 -0.84205297 -0.73961109
 -0.63330347 -0.52119726 -0.40135958 -0.26992471 -0.12495977  0.03546809
  0.20942601  0.39111539  0.57860337  0.76222562  0.93425067  1.0850142
  1.20678475  1.29569657  1.34788395  1.36141401  1.33628675  1.28023364
  1.19518755  1.0908128   0.97097512  0.84340598  0.71390397  0.58633483
  0.46263142  0.34279374  0.22875466  0.11858132  0.0122737  -0.09210105
 -0.19261007 -0.29118623]",-0.49895329295176455,0.7883193055599721,5.268905,0.09907500000000091
019,1,1,csm,12b.png,1,1,132,91,131,1,1,322,neu_feedback_onset,12,"[ 1.09841002  0.96840865  0.83231347  0.69012447  0.54793547  0.40980901
  0.2757451   0.14980627  0.0340238  -0.07160232 -0.1650408  -0.2503542
 -0.32551125 -0.39457447 -0.46160643 -0.52863839 -0.59567034 -0.66473357
 -0.73785934 -0.81098512 -0.88614216 -0.95926793 -1.02833116 -1.09130057
 -1.14411363 -1.1888016  -1.22130194 -1.2456772  -1.26192737 -1.274115
 -1.28427136 -1.29239644 -1.3025528  -1.3167717  -1.33302187 -1.35130331
 -1.37161603 -1.39192874 -1.41021019 -1.42442909 -1.43255417 -1.43661671
 -1.43458544 -1.42646036 -1.41427273 -1.40005383 -1.38583493 -1.3736473
 -1.36755349 -1.37161603 -1.38583493 -1.41427273 -1.46099197 -1.52396139
 -1.60521224 -1.70474454 -1.81646447 -1.93834076 -2.06631086 -2.19224968
 -2.31412597 -2.42381463 -2.51928438 -2.59444143 -2.64725448 -2.67975483
 -2.69194245 -2.68584864 -2.66553593 -2.63506685 -2.5964727  -2.553816
 -2.50912803 -2.46444005 -2.42178335 -2.37912665 -2.33850123 -2.30193834
 -2.26537546 -2.23287511 -2.20443731 -2.18006206 -2.16381188 -2.15365553
 -2.15162426 -2.15974934 -2.17396824 -2.19428096 -2.21865621 -2.24709401
 -2.27553181 -2.30396961 -2.33240741 -2.35678267 -2.37912665 -2.3974081
 -2.41568954 -2.42990844 -2.44412734 -2.45631497 -2.46647133 -2.47662768
 -2.48475277 -2.49287785 -2.50506548 -2.51725311 -2.53553455 -2.56397235
 -2.60459778 -2.66147338 -2.74475551 -2.85444417 -2.99663317 -3.17538505
 -3.3927311  -3.64867129 -3.93914311 -4.26414654 -4.61555649 -4.98727916
 -5.375252   -5.76728739 -6.15932277 -6.54323307 -6.91495574 -7.2663657
 -7.5934004  -7.89402857 -8.16621894 -8.40997151 -8.62528628 -8.81216325
 -8.9726337  -9.11076015 -9.2285739  -9.32607492 -9.41138832 -9.48045155
 -9.53935842 -9.58607767 -9.62467182 -9.65310962 -9.67342234 -9.68560997
 -9.68764124 -9.68357869 -9.66935979 -9.64904708 -9.62060928 -9.58201512
 -9.53732715 -9.48248282 -9.41951341 -9.34435637 -9.25904297 -9.16357321
 -9.05388455 -8.93403954 -8.80606944 -8.66794298 -8.52575398 -8.38356498
 -8.24137598 -8.10324953 -7.97527943 -7.85949696 -7.75793338 -7.67058871
 -7.59949421 -7.54464988 -7.50199319 -7.46949284 -7.44714886 -7.43089869
 -7.41871106 -7.4085547  -7.39636707 -7.3801169  -7.36183546 -7.3374602
 -7.30699113 -7.26839697 -7.223709   -7.17089594 -7.10792653 -7.0388633
 -6.96370626 -6.88042413 -6.79104819 -6.69964097 -6.60417122 -6.50870146
 -6.4132317  -6.31979322 -6.22432346 -6.1288537  -6.03135267 -5.93182037
 -5.82619426 -5.7165056  -5.60072313 -5.48087812 -5.35697056 -5.23103173
 -5.11118672 -4.99743552 -4.89384068 -4.80852728 -4.73946405 -4.69071353
 -4.65821319 -4.64399429 -4.63993175 -4.64399429 -4.64399429 -4.63993175
 -4.62165031 -4.58508742 -4.52821182 -4.45102351 -4.35149121 -4.23367746
 -4.09961355 -3.95742455 -3.80711047 -3.65476511 -3.50445102 -3.35819948
 -3.2221043  -3.0941342  -2.97632045 -2.87272561 -2.78334967 -2.70616135
 -2.64319194 -2.59241015 -2.55584727 -2.52944074 -2.5111593  -2.50100294
 -2.49490913 -2.49490913 -2.49490913 -2.4969404  -2.49897167 -2.50303421
 -2.50303421 -2.50303421 -2.50100294 -2.49084658 -2.47256514 -2.44209607
 -2.39334555 -2.3263136  -2.23693766 -2.12115518 -1.98099746 -1.81849574
 -1.63365004 -1.43255417]","[-2.85543605 -2.52959186 -2.20374766 -1.87790346 -1.55432207 -1.2352663
 -0.92073614 -0.6129944  -0.31204107 -0.02013898  0.26271188  0.53651152
  0.80125993  1.05695711  1.30812868  1.55251183  1.79236936  2.0322269
  2.26982162  2.50967916  2.7517995   2.99618264  3.24509141  3.49626297
  3.75196016  4.00765734  4.26335452  4.5167889   4.76343485  5.00102958
  5.23183588  5.44906535  5.65271797  5.84279375  6.01929269  6.17995198
  6.32477163  6.45375162  6.56915477  6.66419266  6.74339091  6.79996108
  6.83390318  6.84521722  6.82711476  6.78412143  6.71171161  6.61441091
  6.48769372  6.34061127  6.17090076  5.98535059  5.78396077  5.57578254
  5.36081588  5.14132361  4.92409414  4.70912748  4.50321205  4.30634785
  4.12079768  3.95108717  3.79495349  3.65465946  3.52341666  3.39896228
  3.2767707   3.15005352  3.01202229  2.85362581  2.67033845  2.46216021
  2.22003987  1.95076585  1.65207533  1.32849394  0.98228448  0.61797257
  0.24008381 -0.14685617 -0.54058457 -0.93657578 -1.33030419 -1.71950698
 -2.09965854 -2.46623326 -2.81470553 -3.14054973 -3.43471463 -3.69267462
 -3.91442969 -4.09319144 -4.22895986 -4.32399775 -4.38283073 -4.4077216
 -4.40998441 -4.39640757 -4.3737795  -4.35341424 -4.3421002  -4.34888862
 -4.37830511 -4.43261248 -4.51859914 -4.63400229 -4.77882194 -4.95079526
 -5.14992227 -5.36941454 -5.60248366 -5.84912961 -6.10030118 -6.34920994
 -6.5958559  -6.83118782 -7.05294289 -7.25659552 -7.43988288 -7.60054217
 -7.73631058 -7.84492532 -7.92412356 -7.97390531 -7.99200777 -7.97843092
 -7.93091198 -7.84718812 -7.72952216 -7.57565129 -7.38783832 -7.16608324
 -6.91264886 -6.62753519 -6.31300503 -5.9758468  -5.61832331 -5.24269736
 -4.85123176 -4.45071493]",8.992806499463768e-16,5.537597668403767,4.923025,-0.21926000000000023
019,1,1,csm,8b.png,1,1,108,121,108,1,1,442,neu_feedback_onset,13,"[-0.7274171  -0.61586012 -0.49555358 -0.37305965 -0.24837832 -0.12588439
 -0.00995263  0.09504217  0.18910001  0.26565872  0.32471829  0.36190395
  0.3750283   0.36627873  0.32909307  0.26784611  0.18472523  0.07754303
 -0.04932568 -0.19150614 -0.34462356 -0.50211575 -0.65960795 -0.81272537
 -0.95490583 -1.08614933 -1.19989369 -1.29395153 -1.37051024 -1.42956982
 -1.46894287 -1.49300417 -1.50175374 -1.49956635 -1.48862939 -1.47113026
 -1.44488156 -1.41644547 -1.3814472  -1.34426154 -1.30488849 -1.26114066
 -1.21739283 -1.16927021 -1.1189602  -1.06865019 -1.01615279 -0.961468
 -0.9089706  -0.85428581 -0.80178841 -0.7514784  -0.70335579 -0.66179535
 -0.62898447 -0.60492316 -0.5961736  -0.60273577 -0.62898447 -0.67929448
 -0.74929101 -0.84334885 -0.95709322 -1.08833672 -1.23270457 -1.38363459
 -1.54112679 -1.6964316  -1.84517423 -1.98735469 -2.12078558 -2.24327951
 -2.35921127 -2.46858085 -2.57576304 -2.67857045 -2.78137786 -2.88637266
 -2.99355485 -3.09854965 -3.20573184 -3.30853925 -3.40697187 -3.49665493
 -3.57540103 -3.64321017 -3.69570757 -3.73289323 -3.75257976 -3.75257976
 -3.73508062 -3.69352018 -3.63227321 -3.54477755 -3.43322057 -3.29760229
 -3.1379227  -2.9541818  -2.74856699 -2.52764043 -2.28921474 -2.04422687
 -1.79267683 -1.54331418 -1.30051371 -1.0664628  -0.84991103 -0.65304578
 -0.47805445 -0.32712442 -0.20025571 -0.09963569 -0.02307698  0.02942042
  0.0600439   0.06660608  0.05348173  0.02067085 -0.02963916 -0.0974483
 -0.18056918 -0.27462702 -0.37743443 -0.48680401 -0.59836099 -0.71210535
 -0.82584972 -0.93959409 -1.04896367 -1.15395847 -1.25676588 -1.3551985
 -1.44925634 -1.5389394  -1.62424767 -1.70299377 -1.77955248 -1.84954901
 -1.91954555 -1.98735469 -2.05953861 -2.13609732 -2.22359299 -2.324213
 -2.44233215 -2.58013783 -2.74200481 -2.92574571 -3.13573531 -3.36541143
 -3.61477408 -3.88163586 -4.15724721 -4.43504595 -4.70846991 -4.97095691
 -5.21156999 -5.42374698 -5.6009257  -5.73873138 -5.83278922 -5.88091184
 -5.88528662 -5.84591357 -5.76498008 -5.64904832 -5.50249308 -5.32968914
 -5.13501128 -4.9206469  -4.68878338 -4.44598291 -4.19005809 -3.92100891
 -3.64539756 -3.36103665 -3.06792617 -2.77262829 -2.47733042 -2.18203255
 -1.89329685 -1.61112332 -1.34207415 -1.08833672 -0.84772364 -0.6224223
 -0.41462009 -0.21775484 -0.03401394  0.14097739  0.31159394  0.47564832
  0.64189008  0.80813185  0.976561    1.14936495  1.32873106  1.51028457
  1.69840025  1.88870333  2.08556857  2.28243382  2.48367386  2.68491389
  2.88615392  3.08739395  3.2842592   3.47893706  3.66486535  3.84204407
  4.00828584  4.15702847  4.28827197  4.39764155  4.48732461  4.55294636
  4.5945068   4.61638072  4.61856811  4.60544376  4.58138245  4.55513375
  4.52669766  4.50919853  4.50482375  4.5179481   4.55075897  4.60544376
  4.67981508  4.77387292  4.87886772  4.99261208  5.10854384  5.21791343
  5.31853344  5.40165432  5.46508868  5.50446173  5.52196087  5.51102391
  5.47821303  5.42352824  5.34478214  5.2507243   5.14135472  5.02323557
  4.89636685  4.76949814  4.6470042   4.52888505  4.42607765  4.33639459
  4.26639805  4.21827544  4.19202674  4.18983935  4.20952587  4.24889892
  4.3057711   4.37795503]","[-1.15703714 -1.03463228 -0.91015276 -0.78567324 -0.66119372 -0.5367142
 -0.41430934 -0.29190447 -0.17157427 -0.05124407  0.06701147  0.18526702
  0.30352256  0.41970345  0.53795899  0.65828919  0.77654474  0.8989496
  1.02135446  1.14583398  1.26823884  1.39271836  1.51304857  1.63130411
  1.74333568  1.85121793  1.9528762   2.04623584  2.13337151  2.2142832
  2.28897091  2.36365862  2.43419701  2.50473541  2.5752738   2.6458122
  2.71842525  2.79311296  2.86780068  2.94248839  3.0171761   3.09186381
  3.16032755  3.22464197  3.27650843  3.31592695  3.33667353  3.33459888
  3.303479    3.23708992  3.13543164  2.9922802   2.80971023  2.5856471
  2.32631476  2.03378789  1.71843977  1.38649439  1.04625037  0.708081
  0.38028493  0.07116079 -0.21721676 -0.48069841 -0.71513484 -0.92675003
 -1.11346931 -1.28151666 -1.4350414  -1.57404353 -1.70474703 -1.83130121
 -1.95163141 -2.07196161 -2.19021715 -2.31054736 -2.43295222 -2.5595064
 -2.69020989 -2.82713737 -2.97443813 -3.12796287 -3.29393557 -3.47028155
 -3.65907549 -3.85616806 -4.06570859 -4.28147309 -4.50346157 -4.7275247
 -4.95158784 -5.17150166 -5.38726616 -5.59265737 -5.78767528 -5.97024525
 -6.14036726 -6.29596666 -6.43704345 -6.56359762 -6.67770385 -6.77521281
 -6.86027381 -6.93288687 -6.99097731 -7.03869446 -7.071889   -7.09471024
 -7.10715819 -7.10715819 -7.09885956 -7.08018763 -7.05321707 -7.01587321
 -6.97023072 -6.9162896  -6.85404984 -6.7855861  -6.71089839 -6.63413602
 -6.55322433 -6.47023798 -6.38725164 -6.30426529 -6.22127894 -6.14036726
 -6.05945557 -5.97854388 -5.89555753 -5.81049653 -5.71921155 -5.62585191
 -5.52419363 -5.41423672 -5.29390652 -5.16735234 -5.02835021 -4.8831241
 -4.72545005 -4.55947735]",4.813519392867574,2.1408402782532328,4.571655,0.05639999999999912
019,1,1,csm,23b.png,1,1,0,358,2,1,1,368,neu_feedback_onset,14,"[ -1.59717258  -1.36483374  -1.13668118  -0.91480804  -0.70340062
  -0.50245892  -0.31198293  -0.13615894   0.02501306   0.17362619
   0.30968047   0.42898961   0.53573989   0.62783817   0.70109817
   0.75551988   0.78901016   0.79738273   0.78273073   0.74086788
   0.67179417   0.57969589   0.46457304   0.3306119    0.18409191
   0.0271062   -0.12987951  -0.28477207  -0.42919892  -0.56106692
  -0.67618977  -0.76828805  -0.84154805  -0.88969033  -0.91690119
  -0.92527376  -0.91480804  -0.88969033  -0.8541069   -0.81224405
  -0.76410176  -0.71386634  -0.66572405  -0.61967491  -0.5799052
  -0.54641492  -0.51711092  -0.49199321  -0.47315492  -0.45431664
  -0.43966464  -0.42710578  -0.41245378  -0.39780178  -0.38105664
  -0.36221835  -0.33919378  -0.31407607  -0.28267893  -0.24500236
  -0.20104636  -0.15081094  -0.09220294  -0.0315018    0.03129248
   0.09408677   0.15060162   0.19665076   0.2280479    0.2426999
   0.23432733   0.20293019   0.15060162   0.07734162  -0.01475666
  -0.12360008  -0.24290922  -0.37268407  -0.5066452   -0.64688577
  -0.79131262  -0.9420189   -1.10109775  -1.26854917  -1.44855945
  -1.64531487  -1.85881543  -2.09115427  -2.34442455  -2.61653311
  -2.90747995  -3.21517194  -3.53542278  -3.86613933  -4.20522846
  -4.54850387  -4.89387243  -5.23924098  -5.58042325  -5.91741924
  -6.24604265  -6.56420035  -6.87189234  -7.16283918  -7.43494774
  -7.68821801  -7.91846372  -8.12359171  -8.30360198  -8.45640141
  -8.58408311  -8.68664711  -8.76827968  -8.82688767  -8.86875053
  -8.89386824  -8.90433396  -8.90433396  -8.8917751   -8.87084367
  -8.84153967  -8.8038631   -8.75781396  -8.70129911  -8.63641168
  -8.56524483  -8.48361226  -8.39570027  -8.30360198  -8.20941056
  -8.11521914  -8.02312085  -7.93939514  -7.86404201  -7.80124772
  -7.75310544  -7.7217083   -7.70914944  -7.71752201  -7.74263973
  -7.79078201  -7.85566943  -7.94148829  -8.04405228  -8.16545456
  -8.30150884  -8.45430826  -8.6175734   -8.79130425  -8.97550081
  -9.1659768   -9.35854594  -9.55320821  -9.74577735  -9.93206705
 -10.11417047 -10.28580818 -10.44698017 -10.59559331 -10.7274613
 -10.84467729 -10.94514815 -11.02678072 -11.09166814 -11.13562414
 -11.16492814 -11.17748699 -11.17748699 -11.16492814 -11.14399671
 -11.118879   -11.09166814 -11.06655043 -11.04352586 -11.02887386
 -11.02259443 -11.02678072 -11.04143271 -11.06864357 -11.11050643
 -11.16702128 -11.24028128 -11.33028642 -11.43494355 -11.55634583
 -11.68821383 -11.82845439 -11.97288124 -12.11730809 -12.25126923
 -12.37267151 -12.47314236 -12.55058864 -12.59873093 -12.61547607
 -12.60291721 -12.5631475  -12.49826008 -12.41244122 -12.30987723
 -12.19684752 -12.07335209 -11.94567039 -11.81589554 -11.68612068
 -11.55634583 -11.42866412 -11.29888927 -11.16911442 -11.03724643
 -10.90119215 -10.76095158 -10.61861788 -10.47209788 -10.32557789
 -10.18115104 -10.04300362  -9.9195082   -9.81275791  -9.7290322
  -9.67251735  -9.65158592  -9.66414478  -9.71019392  -9.79182649
  -9.90276305 -10.03881733 -10.1937099  -10.35906817 -10.53279902
 -10.70862302 -10.88026072 -11.04352586 -11.20260471 -11.35121784
 -11.49355155 -11.62960583 -11.75938068 -11.88496925 -12.00846467
 -12.12777381 -12.24708294 -12.36639208 -12.48360808 -12.60082407
 -12.71804006 -12.8373492  -12.9545652  -13.07178119 -13.18899719
 -13.30621318 -13.42342917 -13.54064517 -13.65786116 -13.77507716
 -13.89229315 -14.00950915 -14.12881828 -14.24603428 -14.36534342]","[-1.52229922 -1.34206838 -1.15315171 -0.95772067 -0.75577526 -0.55382985
 -0.3540559  -0.15862486  0.02377744  0.19315101  0.34732439  0.4797832
  0.59052746  0.67955715  0.74252938  0.77944413  0.79030141  0.77510122
  0.73384355  0.66218551  0.56229853  0.43418263  0.27566634  0.09326403
 -0.11302428 -0.3345128  -0.56468713 -0.79486147 -1.01200707 -1.21178102
 -1.38115458 -1.5136134  -1.60698601 -1.65910095 -1.66995823 -1.64390076
 -1.58527145 -1.50058466 -1.39852623 -1.28343907 -1.16183753 -1.03806454
 -0.91863446 -0.80137583 -0.69063158 -0.58857315 -0.49085763 -0.40399939
 -0.32582697 -0.25851184 -0.20205398 -0.16079632 -0.13473884 -0.12605302
 -0.13256739 -0.15211049 -0.18468233 -0.22594    -0.26936912 -0.31279824
 -0.34971299 -0.38011337 -0.39748502 -0.40182793 -0.39531356 -0.37794192
 -0.34754153 -0.31062678 -0.26719766 -0.22159708 -0.17382505 -0.12388156
 -0.08045244 -0.04136624 -0.01096585  0.0064058   0.00857725 -0.0087944
 -0.0478806  -0.11302428 -0.20639689 -0.33016988 -0.4821718  -0.66240265
 -0.86651951 -1.09235094 -1.3312111  -1.57875708 -1.82630306 -2.06733468
 -2.2931661  -2.49945442 -2.67968527 -2.82734428 -2.94243144 -3.02494677
 -3.0727188  -3.09226191 -3.08357608 -3.0531757  -3.00323221 -2.94243144
 -2.87294485 -2.79911535 -2.72094293 -2.64494197 -2.57111247 -2.49511151
 -2.42128201 -2.34528105 -2.26493717 -2.18025039 -2.08687778 -1.98481935
 -1.86973218 -1.74161628 -1.6026431  -1.45064118 -1.28778198 -1.11623695
 -0.93600611 -0.7536038  -0.56903004 -0.38662774 -0.2107398  -0.04136624
  0.11715005  0.26480906  0.39943933  0.51886941  0.62527075  0.72081482
  0.8055016   0.88150256  0.95098915  1.01830429  1.08561942  1.15293456
  1.22676406  1.30493648]",-0.1372903650347574,0.3361568982426484,4.777505,0.14945000000000075
019,2,1,csp,51a.png,1,1,44,312,45,1,1,307,pos_feedback_onset,1,"[ 5.08380943e-01  5.03719036e-01  4.71085688e-01  4.17473759e-01
  3.52207063e-01  2.77616553e-01  2.00695090e-01  1.26104581e-01
  5.61759777e-02 -6.75976495e-03 -6.50336007e-02 -1.16314576e-01
 -1.65264598e-01 -2.11883667e-01 -2.58502735e-01 -3.07452757e-01
 -3.61064686e-01 -4.17007569e-01 -4.72950451e-01 -5.31224287e-01
 -5.82505262e-01 -6.29124331e-01 -6.64088632e-01 -6.87398166e-01
 -6.92060073e-01 -6.80405306e-01 -6.52433865e-01 -6.10476703e-01
 -5.54533821e-01 -4.89267125e-01 -4.19338522e-01 -3.44748012e-01
 -2.74819409e-01 -2.07221760e-01 -1.46616971e-01 -9.06740884e-02
 -3.93931130e-02  9.55690906e-03  5.61759777e-02  1.07456953e-01
  1.63399835e-01  2.28666531e-01  3.05587995e-01  3.91833272e-01
  4.87402362e-01  5.96957173e-01  7.15835798e-01  8.44038237e-01
  9.79233536e-01  1.12375265e+00  1.27293367e+00  1.42910755e+00
  1.59227429e+00  1.76476484e+00  1.94657921e+00  2.14237930e+00
  2.34983415e+00  2.57127473e+00  2.81136293e+00  3.06310590e+00
  3.33116555e+00  3.60854900e+00  3.89525628e+00  4.18895641e+00
  4.48265654e+00  4.77868763e+00  5.07238776e+00  5.36375694e+00
  5.65046421e+00  5.93717148e+00  6.22387875e+00  6.51291698e+00
  6.80195520e+00  7.09332438e+00  7.38702451e+00  7.67839369e+00
  7.96976287e+00  8.25413919e+00  8.53152265e+00  8.79492039e+00
  9.04433240e+00  9.27509679e+00  9.48954451e+00  9.68301364e+00
  9.85317324e+00  1.00070162e+01  1.01398805e+01  1.02587591e+01
  1.03613211e+01  1.04545592e+01  1.05384736e+01  1.06200569e+01
  1.07039712e+01  1.07925475e+01  1.08881166e+01  1.09976714e+01
  1.11235429e+01  1.12657310e+01  1.14242359e+01  1.16013883e+01
  1.17948575e+01  1.20023123e+01  1.22214219e+01  1.24498554e+01
  1.26806198e+01  1.29160461e+01  1.31468104e+01  1.33752439e+01
  1.35943535e+01  1.38041393e+01  1.40046013e+01  1.41887466e+01
  1.43542443e+01  1.44987634e+01  1.46129801e+01  1.46922326e+01
  1.47271969e+01  1.47132111e+01  1.46432825e+01  1.45104182e+01
  1.43169491e+01  1.40605442e+01  1.37481964e+01  1.33868986e+01
  1.29906366e+01  1.25710649e+01  1.21445005e+01  1.17295908e+01
  1.13426525e+01  1.09976714e+01  1.07086332e+01  1.04848616e+01
  1.03310187e+01  1.02540972e+01  1.02494353e+01  1.03147020e+01
  1.04429045e+01  1.06270498e+01  1.08531523e+01  1.11095571e+01
  1.13846096e+01  1.16689860e+01  1.19463694e+01  1.22120981e+01
  1.24568482e+01  1.26736269e+01  1.28601032e+01  1.30116151e+01
  1.31258319e+01  1.32074152e+01  1.32540343e+01  1.32680200e+01
  1.32540343e+01  1.32214009e+01  1.31724509e+01  1.31188390e+01
  1.30722199e+01  1.30465794e+01  1.30559033e+01  1.31118461e+01
  1.32237319e+01  1.34008844e+01  1.36433035e+01  1.39486584e+01
  1.43076252e+01  1.47062183e+01  1.51257899e+01  1.55476925e+01
  1.59556093e+01  1.63332238e+01  1.66665501e+01  1.69485955e+01
  1.71770289e+01  1.73541814e+01  1.74823838e+01  1.75779529e+01
  1.76455506e+01  1.77014934e+01  1.77527744e+01  1.78157102e+01
  1.78972935e+01  1.80021864e+01  1.81397127e+01  1.83145342e+01
  1.85219890e+01  1.87690701e+01  1.90534464e+01  1.93681251e+01
  1.97107753e+01  2.00720731e+01  2.04426947e+01  2.08156472e+01
  2.11769450e+01  2.15126023e+01  2.18156262e+01  2.20720311e+01
  2.22748241e+01  2.24193432e+01  2.25079194e+01  2.25382218e+01
  2.25149123e+01  2.24519765e+01  2.23540765e+01  2.22328669e+01
  2.21000026e+01  2.19578144e+01  2.18109643e+01  2.16617833e+01
  2.15032785e+01  2.13284570e+01  2.11326569e+01  2.09088854e+01
  2.06524805e+01  2.03564494e+01  2.00277850e+01  1.96664872e+01
  1.92795489e+01  1.88762940e+01  1.84660462e+01  1.80581293e+01
  1.76618672e+01  1.72819218e+01  1.69229550e+01  1.65896287e+01
  1.62819428e+01  1.60022284e+01  1.57481545e+01  1.55220520e+01
  1.53192590e+01  1.51374447e+01  1.49696160e+01  1.48111112e+01
  1.46549373e+01  1.44941015e+01  1.43216110e+01  1.41351347e+01
  1.39300108e+01  1.37062393e+01  1.34684820e+01  1.32190700e+01
  1.29649961e+01  1.27155841e+01  1.24731649e+01  1.22447315e+01
  1.20349457e+01  1.18461384e+01  1.16759788e+01  1.15267978e+01
  1.13916025e+01  1.12703929e+01  1.11608381e+01  1.10582762e+01
  1.09603761e+01  1.08671380e+01  1.07762308e+01  1.06876546e+01
  1.05990783e+01  1.05128331e+01  1.04312497e+01  1.03543282e+01]","[-0.97230494 -0.82869778 -0.6935381  -0.57104964 -0.4612324  -0.36408638
 -0.27961158 -0.20358427 -0.13600443 -0.07053646 -0.00506849  0.06673509
  0.14698615  0.23990843  0.3476138   0.46799039  0.6010382   0.74886909
  0.9030356   1.06353772  1.22192797  1.37609448  1.5154779   1.63585448
  1.7330005   1.80058034  1.83648213  1.83648213  1.80269221  1.73511237
  1.63796635  1.51336603  1.367647    1.20503301  1.03185967  0.84812698
  0.66228242  0.47643787  0.29270518  0.1153081  -0.0536415  -0.20991988
 -0.3556389  -0.48446297 -0.59639208 -0.69142623 -0.76956542 -0.83503339
 -0.88571827 -0.92795567 -0.96385746 -0.99764738 -1.0314373  -1.06522722
 -1.10324088 -1.14759015 -1.19193941 -1.24051242 -1.28697356 -1.33132283
 -1.36933649 -1.39890267 -1.41579763 -1.41579763 -1.39890267 -1.36511275
 -1.31020413 -1.23628868 -1.14547828 -1.04199665 -0.9258438  -0.80124347
 -0.67453127 -0.5457072  -0.418995   -0.30073028 -0.18880118 -0.08531955
  0.0097146   0.09630127  0.17655233  0.25257965  0.32438323  0.39618681
  0.46799039  0.5376821   0.60948568  0.68128925  0.74886909  0.81222519
  0.86713381  0.91148308  0.94738487  0.96850357  0.97906292  0.97906292
  0.97061544  0.95583235  0.94104926  0.92837804  0.92204243  0.92204243
  0.93260178  0.95372048  0.98328666  1.02552406  1.07832081  1.13745317
  1.20503301  1.27894846  1.35708765  1.43733871  1.51758977  1.59572895
  1.6696444   1.73511237  1.79213286  1.83437026  1.8597127   1.87027205
  1.86182457  1.838594    1.79846847  1.74778359  1.68865123  1.62529513
  1.5640509   1.50914229  1.46690489  1.44156245  1.43522684  1.45423367
  1.50069481  1.57672212  1.68020375  1.81113969  1.97164181  2.15326263
  2.35389028  2.56718914]",20.563088420056427,1.757940681393833,4.290090000000001,-0.2788599999999999
019,2,1,csm,29b.png,1,1,184,279,183,1,1,416,neu_feedback_onset,2,"[-0.16092462 -0.11362409 -0.06426702 -0.01490995  0.03033403  0.06735184
  0.09408692  0.11053928  0.11670891  0.11053928  0.09408692  0.06940838
  0.0426733   0.01182513 -0.01696649 -0.04370157 -0.06426702 -0.08071938
 -0.0910021  -0.09717174 -0.10334137 -0.10951101 -0.11979373 -0.13830263
 -0.16709426 -0.20616861 -0.25963877 -0.32750474 -0.40770999 -0.50231104
 -0.60719482 -0.72030478 -0.84369746 -0.97120323 -1.10282209 -1.2364975
 -1.37222945 -1.5079614  -1.6416368  -1.77325566 -1.90281798 -2.02826721
 -2.14960334 -2.26888294 -2.37993635 -2.48687667 -2.58559082 -2.67813533
 -2.76039712 -2.83443273 -2.90024216 -2.95782541 -3.00718248 -3.05036992
 -3.08738773 -3.12029244 -3.14702752 -3.16964951 -3.18815842 -3.20255423
 -3.21078041 -3.2148935  -3.2148935  -3.20872386 -3.20049768 -3.19227151
 -3.18610187 -3.18815842 -3.20255423 -3.2334024  -3.28687256 -3.36913435
 -3.48018776 -3.62620244 -3.80717837 -4.02311556 -4.27195747 -4.54753446
 -4.84778999 -5.16655441 -5.49354502 -5.82464872 -6.14752623 -6.45600794
 -6.7439242  -7.00510537 -7.23543838 -7.43286667 -7.5953337  -7.72489602
 -7.82566671 -7.89558923 -7.94288975 -7.96962483 -7.97990756 -7.97373792
 -7.95522902 -7.92438085 -7.88324996 -7.82772325 -7.76191382 -7.68376512
 -7.59327716 -7.49044992 -7.37733996 -7.25394728 -7.12438496 -6.98865301
 -6.84880798 -6.70896294 -6.5691179  -6.4313294  -6.30176709 -6.18043095
 -6.07143408 -5.97683302 -5.89868433 -5.84315762 -5.80819636 -5.79585709
 -5.80613981 -5.84110107 -5.89662778 -5.96860685 -6.05703827 -6.15780896
 -6.26269274 -6.37168961 -6.47862993 -6.57940062 -6.67194513 -6.75420692
 -6.82001635 -6.87142997 -6.90639123 -6.92490013 -6.92901322 -6.92078704
 -6.90227814 -6.8775996  -6.84880798 -6.8179598  -6.79122472 -6.76654619
 -6.74803729 -6.73364147 -6.72541529 -6.71924566 -6.71513257 -6.71307603
 -6.71101948 -6.70896294 -6.71101948 -6.71513257 -6.72747184 -6.75215037
 -6.79122472 -6.85086452 -6.93312631 -7.04006663 -7.16962895 -7.31975671
 -7.48839338 -7.67142585 -7.86062797 -8.04983008 -8.23286256 -8.40561231
 -8.56396625 -8.70381129 -8.82514743 -8.92591812 -9.00612336 -9.0678197
 -9.11100714 -9.13568568 -9.14391186 -9.13774222 -9.11717678 -9.08221552
 -9.03697153 -8.98144483 -8.91769194 -8.84982596 -8.77579036 -8.70175475
 -8.62771914 -8.55574007 -8.4878741  -8.42206467 -8.36242487 -8.30689817
 -8.253428   -8.20407093 -8.15882695 -8.11358296 -8.07039552 -8.02720809
 -7.9819641  -7.93672012 -7.88941959 -7.83800597 -7.78453581 -7.72695256
 -7.66525622 -7.60150333 -7.53158081 -7.45754521 -7.38145305 -7.29919126
 -7.21281639 -7.12438496 -7.02978391 -6.93518285 -6.83852525 -6.7439242
 -6.6472666  -6.55472208 -6.46629066 -6.38197233 -6.30382363 -6.23390111
 -6.17220477 -6.11873461 -6.07349062 -6.04058591 -6.01590737 -5.99739847
 -5.98917229 -5.98300266 -5.98300266 -5.98094611 -5.98094611 -5.97683302
 -5.97271993 -5.9665503  -5.96038067 -5.96038067 -5.97066339 -5.99534193
 -6.04058591 -6.11256497 -6.21333566 -6.34289798 -6.50330847 -6.69045403
 -6.8961085  -7.11615879 -7.33826561 -7.55420281 -7.75368764 -7.93055049
 -8.07656516 -8.18761857 -8.26165418 -8.30072853 -8.30689817 -8.28633272
 -8.24520182 -8.19584475]","[-8.14453744e-01 -7.14534701e-01 -6.19157433e-01 -5.26051052e-01
 -4.39757333e-01 -3.58005389e-01 -2.80795219e-01 -2.05855937e-01
 -1.35458430e-01 -6.27900349e-02  1.21492473e-02  9.16303041e-02
  1.73382248e-01  2.61946854e-01  3.52782348e-01  4.50430503e-01
  5.50349546e-01  6.52539477e-01  7.54729407e-01  8.56919337e-01
  9.52296605e-01  1.04540299e+00  1.13169670e+00  1.21344865e+00
  1.28611704e+00  1.35197278e+00  1.41101585e+00  1.46324626e+00
  1.50639312e+00  1.54272731e+00  1.56997796e+00  1.59041595e+00
  1.59949950e+00  1.59722861e+00  1.58133240e+00  1.55408175e+00
  1.51093489e+00  1.45189182e+00  1.37695254e+00  1.28384616e+00
  1.17484356e+00  1.04994476e+00  9.11420633e-01  7.63812956e-01
  6.07121730e-01  4.50430503e-01  2.98281052e-01  1.55215150e-01
  2.57745713e-02 -8.32280209e-02 -1.64979965e-01 -2.19481261e-01
 -2.44461022e-01 -2.33106585e-01 -1.87688838e-01 -1.05936894e-01
  1.21492473e-02  1.66569586e-01  3.57324123e-01  5.84412856e-01
  8.47835788e-01  1.14305114e+00  1.47460069e+00  1.83794267e+00
  2.22853529e+00  2.64183678e+00  3.07330538e+00  3.51385752e+00
  3.94759700e+00  4.36089850e+00  4.74013668e+00  5.06714446e+00
  5.32375473e+00  5.49634217e+00  5.57582323e+00  5.55084346e+00
  5.42367377e+00  5.19658504e+00  4.88093170e+00  4.49260996e+00
  4.05205782e+00  3.57971326e+00  3.09601425e+00  2.62594057e+00
  2.18311754e+00  1.78344137e+00  1.43372472e+00  1.13850937e+00
  8.95524422e-01  7.00228111e-01  5.45807772e-01  4.25450743e-01
  3.27802587e-01  2.50592418e-01  1.84736685e-01  1.30235389e-01
  8.25467547e-02  4.39416700e-02  1.66910219e-02  3.06569791e-03
  9.87835992e-03  3.93998953e-02  9.39011914e-02  1.77924023e-01
  2.93739277e-01  4.36805179e-01  6.11663504e-01  8.09230703e-01
  1.03177766e+00  1.27022083e+00  1.52228933e+00  1.77889960e+00
  2.03778075e+00  2.29212013e+00  2.53737597e+00  2.77127736e+00
  2.98928255e+00  3.19139152e+00  3.37306251e+00  3.53883728e+00
  3.68871585e+00  3.82269820e+00  3.94078434e+00  4.04751605e+00
  4.14062243e+00  4.22691615e+00  4.30639720e+00  4.37906560e+00
  4.44492133e+00  4.50850618e+00  4.56754925e+00  4.62432143e+00
  4.67882273e+00  4.73105314e+00  4.78101266e+00  4.82643040e+00
  4.87184815e+00  4.91272412e+00  4.95132921e+00  4.98766340e+00]",-0.05111982531121332,2.517051525298242,4.862525,-0.13792000000000026
019,2,1,csp,11a.png,1,1,176,222,177,1,0,566,neg_feedback_onset,3,"[ -0.08102231   0.0385363    0.16236487   0.28405846   0.39934712
   0.49969096   0.57868505   0.62992445   0.64700426   0.62351953
   0.55733529   0.44631658   0.29046339   0.09404566  -0.14080162
  -0.40553855  -0.69376021  -0.9969267   -1.31076807  -1.62247446
  -1.9299109   -2.22667246  -2.50635422  -2.77109115  -3.01661331
  -3.24505566  -3.45855319  -3.66137584  -3.85992854  -4.05421129
  -4.25276399  -4.45772162  -4.66908417  -4.88898662  -5.11742898
  -5.35014128  -5.58285359  -5.81556589  -6.03973829  -6.25110085
  -6.44965355  -6.62685649  -6.78697964  -6.92361806  -7.03890672
  -7.13284563  -7.20543479  -7.26307913  -7.30364366  -7.33139833
  -7.35061311  -7.35915301  -7.36342296  -7.36128799  -7.35701804
  -7.35061311  -7.34420819  -7.33566828  -7.32712838  -7.31858848
  -7.31004858  -7.29937371  -7.2908338   -7.2822939   -7.273754
  -7.2652141   -7.2566742   -7.25026927  -7.24599932  -7.24172937
  -7.24172937  -7.24599932  -7.25240425  -7.26734908  -7.28656385
  -7.31431853  -7.34847814  -7.39117764  -7.44028207  -7.49579143
  -7.55984069  -7.6281599   -7.70288403  -7.78401309  -7.8694121
  -7.96121604  -8.0594249   -8.16403869  -8.2750574   -8.38821109
  -8.50563473  -8.62732832  -8.74688694  -8.86858053  -8.98600417
  -9.09915786  -9.20377165  -9.30198051  -9.3895145   -9.46423863
  -9.53042286  -9.58593222  -9.63503665  -9.67773616  -9.72257064
  -9.77167507  -9.83145438  -9.90617851  -9.99798245 -10.11540609
 -10.25631446 -10.42284253 -10.6149903  -10.83275778 -11.07400999
 -11.33661194 -11.61415873 -11.90665034 -12.20981683 -12.51511829
 -12.82468971 -13.12999117 -13.42888771 -13.71710937 -13.99465616
 -14.25512314 -14.49851032 -14.72268272 -14.92550538 -15.10697827
 -15.26923639 -15.40800979 -15.52970338 -15.63218219 -15.71971618
 -15.79017036 -15.85208464 -15.90118907 -15.9417536  -15.97377823
 -15.99939794 -16.01647774 -16.02715262 -16.02715262 -16.01647774
 -15.99512799 -15.96310336 -15.91826888 -15.86062454 -15.78803539
 -15.69836642 -15.59375264 -15.47205904 -15.33328565 -15.17529748
 -14.99595956 -14.79740686 -14.57963938 -14.34265713 -14.08859507
 -13.81958818 -13.5420414  -13.26022466 -12.97840793 -12.70299612
 -12.44039416 -12.194872   -11.96856462 -11.76574197 -11.590674
 -11.43909076 -11.30885727 -11.2021085  -11.10816959 -11.0291755
 -10.95872132 -10.89253709 -10.82635285 -10.76016862 -10.69184941
 -10.62139523 -10.55094104 -10.48048686 -10.41216765 -10.34811839
 -10.28833909 -10.23282973 -10.17945535 -10.12821594 -10.07270658
 -10.01292728  -9.94247309  -9.86134403  -9.76313517  -9.64998148
  -9.52188296  -9.37883962  -9.22085145  -9.0521884   -8.87498546
  -8.68710763  -8.49495986  -8.29427218  -8.08931456  -7.88008698
  -7.66658945  -7.44882197  -7.22891952  -7.00688209  -6.78484466
  -6.56494221  -6.34930971  -6.14008213  -5.93725948  -5.74511171
  -5.56150383  -5.38643586  -5.21777282  -5.05764967  -4.90179647
  -4.75021323  -4.60503491  -4.46626152  -4.33175808  -4.20792951
  -4.09264085  -3.99016203  -3.90262805  -3.82790391  -3.76812461
  -3.72115515  -3.68699555  -3.65924087  -3.64002609  -3.62508126
  -3.61013644  -3.59305663  -3.57170688  -3.54608718  -3.51406255
  -3.47349802  -3.42439359  -3.36888423  -3.30910492  -3.24292069
  -3.17673646  -3.11055222  -3.04863794  -2.99312858  -2.9482941
  -2.91199952  -2.88851479  -2.87783992  -2.87570494  -2.88424484
  -2.89705469  -2.9141345   -2.93334927  -2.95042908  -2.9653739 ]","[-0.61726929 -0.63536108 -0.6511914  -0.66476024 -0.67154467 -0.66702172
 -0.64892993 -0.61048487 -0.55168655 -0.46348907 -0.3481539  -0.20341957
 -0.02702461  0.17650804  0.40717837  0.66272492  0.93636326  1.22583191
  1.52434646  1.82738396  2.12815999  2.41989011  2.70031287  2.96264384
  3.20462155  3.41946157  3.60942537  3.77451296  3.91246287  4.02553656
  4.11599552  4.18836268  4.24489953  4.28786753  4.32405111  4.3511888
  4.37606501  4.39641828  4.41677154  4.43712481  4.4552166   4.47556986
  4.49592313  4.51627639  4.53662966  4.55698292  4.57733619  4.59768945
  4.61804272  4.64065746  4.66101072  4.68136399  4.70171725  4.72207052
  4.74468525  4.76503852  4.78539178  4.80574505  4.82383684  4.84192863
  4.85775895  4.87132779  4.88037369  4.88263516  4.88037369  4.86680484
  4.83966716  4.79896063  4.74242378  4.66553367  4.56829029  4.45069365
  4.31048227  4.14991763  3.97126119  3.77451296  3.56871884  3.35161735
  3.13225438  2.90836847  2.68448256  2.46511959  2.25027957  2.0399625
  1.8409528   1.65325047  1.48137846  1.33212118  1.20547865  1.11049674
  1.05169842  1.03360663  1.05848285  1.12406559  1.22583191  1.3569974
  1.50625467  1.65777342  1.80024627  1.91558144  1.99473303  2.02639366
  2.00377892  1.92688881  1.7979848   1.61932836  1.39544245  1.13763443
  0.85268872  0.54738975  0.22626046 -0.10391472 -0.43635138 -0.76878804
 -1.09217881 -1.40200073 -1.69599233 -1.96284625 -2.19803953 -2.39478776
 -2.5463065  -2.65259578 -2.7113941  -2.72496294 -2.69782525 -2.64128841
 -2.5643983  -2.47846229 -2.39704923 -2.33146649 -2.29075996 -2.27945259
 -2.30206733 -2.35860417 -2.44454018 -2.55761387 -2.69330231 -2.84029811
 -2.9963398  -3.15690445]",-0.8148438120715416,4.33620653588563,4.683895,0.11629500000000004
019,2,1,csm,25b.png,1,1,328,76,328,1,1,553,neu_feedback_onset,4,"[-1.89591493e+00 -1.70452345e+00 -1.48806879e+00 -1.24427250e+00
 -9.84526910e-01 -7.13388974e-01 -4.37694097e-01 -1.68834631e-01
  8.40755450e-02  3.16479490e-01  5.16984855e-01  6.83313169e-01
  8.08629022e-01  8.95210884e-01  9.43058755e-01  9.54451105e-01
  9.36223345e-01  8.95210884e-01  8.35970662e-01  7.67616561e-01
  6.94705519e-01  6.24072947e-01  5.55718846e-01  4.89643214e-01
  4.28124523e-01  3.66605832e-01  3.05087140e-01  2.41289979e-01
  1.68378937e-01  9.09109551e-02  8.88603321e-03 -7.76958288e-02
 -1.66556161e-01 -2.53138023e-01 -3.32884475e-01 -4.03517046e-01
 -4.62757268e-01 -5.06048199e-01 -5.33389839e-01 -5.49339130e-01
 -5.51617600e-01 -5.47060660e-01 -5.37946779e-01 -5.31111369e-01
 -5.31111369e-01 -5.42503720e-01 -5.67566890e-01 -6.08579351e-01
 -6.67819573e-01 -7.43009084e-01 -8.34147886e-01 -9.36679039e-01
 -1.05288101e+00 -1.17591839e+00 -1.30351272e+00 -1.43566398e+00
 -1.57009371e+00 -1.70452345e+00 -1.84123165e+00 -1.97566138e+00
 -2.11009112e+00 -2.24452085e+00 -2.37895058e+00 -2.51565879e+00
 -2.65236699e+00 -2.78907519e+00 -2.92806187e+00 -3.06704854e+00
 -3.21059215e+00 -3.35185729e+00 -3.49540091e+00 -3.63666605e+00
 -3.77565272e+00 -3.90552552e+00 -4.02400596e+00 -4.13109405e+00
 -4.22223286e+00 -4.29286543e+00 -4.34299177e+00 -4.37033341e+00
 -4.37944729e+00 -4.37033341e+00 -4.34527024e+00 -4.30881472e+00
 -4.26096685e+00 -4.20628356e+00 -4.14704334e+00 -4.08552465e+00
 -4.02628443e+00 -3.97160115e+00 -3.91919634e+00 -3.87818388e+00
 -3.84172836e+00 -3.81666519e+00 -3.80071590e+00 -3.79160202e+00
 -3.78932355e+00 -3.78704507e+00 -3.78704507e+00 -3.78020966e+00
 -3.76426037e+00 -3.73919720e+00 -3.70046321e+00 -3.64805840e+00
 -3.58653971e+00 -3.51590714e+00 -3.43616069e+00 -3.35641423e+00
 -3.27894625e+00 -3.20831368e+00 -3.14907346e+00 -3.10806100e+00
 -3.08527630e+00 -3.08755477e+00 -3.11717488e+00 -3.16957969e+00
 -3.24476920e+00 -3.33818647e+00 -3.44755304e+00 -3.56375501e+00
 -3.67995698e+00 -3.79388049e+00 -3.89641164e+00 -3.98755044e+00
 -4.06046148e+00 -4.11514476e+00 -4.15160028e+00 -4.16982804e+00
 -4.16754957e+00 -4.14704334e+00 -4.10830935e+00 -4.04906913e+00
 -3.97387962e+00 -3.88274082e+00 -3.77793119e+00 -3.66172922e+00
 -3.53641337e+00 -3.40654058e+00 -3.27211084e+00 -3.13540264e+00
 -2.99869444e+00 -2.86198623e+00 -2.72299956e+00 -2.57945595e+00
 -2.43135539e+00 -2.27641943e+00 -2.11009112e+00 -1.93464892e+00
 -1.74781438e+00 -1.54730901e+00 -1.33768977e+00 -1.12123511e+00
 -8.95666578e-01 -6.70098043e-01 -4.42251037e-01 -2.18960972e-01
  2.05062305e-03  2.16226808e-01  4.23567583e-01  6.26351418e-01
  8.26856782e-01  1.02280521e+00  1.22103210e+00  1.42153747e+00
  1.62659977e+00  1.83394055e+00  2.04128132e+00  2.24634363e+00
  2.44229205e+00  2.62001271e+00  2.77722715e+00  2.90026453e+00
  2.98456792e+00  3.02558038e+00  3.02102344e+00  2.97089710e+00
  2.87747983e+00  2.74988551e+00  2.59039260e+00  2.41495041e+00
  2.23039433e+00  2.04355979e+00  1.86811760e+00  1.70862469e+00
  1.56963802e+00  1.45343605e+00  1.36457571e+00  1.30077855e+00
  1.25748762e+00  1.23470292e+00  1.22558904e+00  1.22786751e+00
  1.23470292e+00  1.23925986e+00  1.23925986e+00  1.23242445e+00
  1.21419669e+00  1.18229811e+00  1.14128565e+00  1.09115931e+00
  1.03419756e+00  9.77235806e-01  9.20274054e-01  8.67869243e-01
  8.22299842e-01  7.83565851e-01  7.56224211e-01  7.33439510e-01
  7.19768690e-01  7.08376339e-01  6.99262459e-01  6.90148579e-01
  6.78756229e-01  6.67363879e-01  6.51414588e-01  6.33186828e-01
  6.10402127e-01  5.80782016e-01  5.46604966e-01  5.07870975e-01
  4.62301574e-01  4.09896763e-01  3.52935011e-01  2.93694790e-01
  2.32176098e-01  1.68378937e-01  1.04581775e-01  4.07846139e-02
 -2.07340775e-02 -8.22527689e-02 -1.46049930e-01 -2.12125562e-01
 -2.82758134e-01 -3.60226115e-01 -4.51364917e-01 -5.60731480e-01
 -6.92882743e-01 -8.54654117e-01 -1.05060254e+00 -1.28528496e+00
 -1.56097983e+00 -1.88224411e+00 -2.24224238e+00 -2.64097464e+00
 -3.07388395e+00 -3.53185643e+00 -4.00577820e+00 -4.49337079e+00
 -4.98779879e+00 -5.47994832e+00 -5.96754092e+00 -6.44601963e+00
 -6.91538446e+00 -7.37107847e+00 -7.80626625e+00 -8.22094780e+00
 -8.60600924e+00 -8.95689363e+00 -9.26676555e+00 -9.52195420e+00]","[-0.64118839 -0.60656699 -0.57194558 -0.53501609 -0.4934704  -0.44961663
 -0.39653047 -0.33882813 -0.27420152 -0.19803443 -0.11494306 -0.02031122
  0.08355299  0.20126576  0.330519    0.4736208   0.62826307  0.7944458
  0.97216901  1.15681649  1.34838826  1.54457621  1.73845607  1.93002784
  2.11467532  2.29009043  2.45165698  2.59937497  2.7309363   2.84634098
  2.9478971   3.03560465  3.10946365  3.17178217  3.22256023  3.26641401
  3.3033435   3.33334872  3.35873775  3.3772025   3.39335915  3.40259153
  3.40489962  3.40489962  3.39797534  3.38643487  3.37027822  3.34950538
  3.32873253  3.3056516   3.27795448  3.25256545  3.22256023  3.19255501
  3.1602417   3.12331221  3.08176652  3.03329656  2.97559422  2.90635141
  2.82095195  2.71708774  2.59475878  2.44934889  2.28316615  2.09159438
  1.87924978  1.64613233  1.39224204  1.12219509  0.83599149  0.53824742
  0.23127097 -0.08262975 -0.39653047 -0.7081231  -1.01509955 -1.30822743
 -1.58750675 -1.84601323 -2.08143877 -2.29147529 -2.47612277 -2.63307313
 -2.76463447 -2.87311486 -2.95851433 -3.02314095 -3.06930282 -3.09930803
 -3.11315659 -3.11315659 -3.09699994 -3.06237854 -3.00929238 -2.93543339
 -2.84310965 -2.72539688 -2.58691126 -2.42303662 -2.24069723 -2.037585
 -1.81831611 -1.58289056 -1.34054074 -1.08895854 -0.83737634 -0.58579415
 -0.34113623 -0.10340259  0.12279058  0.33744328  0.53593932  0.71827872
  0.88215336  1.02987135  1.15912459  1.27222117  1.36454491  1.440712
  1.49610625  1.53534384  1.55842477  1.56304096  1.55150049  1.52380337
  1.47994959  1.42224725  1.34838826  1.2629888   1.16604887  1.05756847
  0.9375476   0.81291055  0.68134922  0.54978789  0.42053465  0.29820569
  0.18280101  0.08355299]",1.6317832901563036,3.033411962387304,4.388910000000001,0.13142999999999994
019,2,1,csp,64a.png,1,1,344,331,342,1,1,384,pos_feedback_onset,5,"[ 0.49898652  0.44918973  0.40165642  0.3586501   0.31790727  0.28169142
  0.24773906  0.2115232   0.17304386  0.13230103  0.08250424  0.02591697
