sub,run,cat_cond,trial_type,picture,old,response_old,target_pos,response_pos,dot_resp_loc,cat_corr,TN_corr,TN_rt,feedback_type,trial,SP_timeseries,FB_timeseries,SP_peak_response,FB_peak_response,preStim_bl,anticipation
048,1,2,csm,54a.png,1,1,148,33,146,1,1,582,neu_feedback_onset,1,"[  0.44367334   0.08691723  -0.2445967   -0.53235753  -0.76626837
  -0.93623237  -1.03215264  -1.0540292   -1.00354484  -0.8840652
  -0.70400433  -0.4717763   -0.20252641   0.09533129   0.41001711
   0.72975136   1.05116842   1.36585423   1.6738088    1.97503212
   2.26952419   2.56065064   2.84841147   3.13112386   3.40373938
   3.65952678   3.88670638   4.0751813    4.21148906   4.28384997
   4.28889841   4.21822031   4.07686411   3.86819545   3.60062836
   3.28762536   2.94096612   2.57243033   2.19211485   1.81179937
   1.43484952   1.06799654   0.71292324   0.36962962   0.03811569
  -0.27825294  -0.58452469  -0.87733395  -1.16004634  -1.43097905
  -1.6934977   -1.94591948  -2.18992719  -2.42552085  -2.65270045
  -2.86978318  -3.07845185  -3.27702364  -3.46549857  -3.64387663
  -3.810475    -3.9669765   -4.11338113  -4.24800608  -4.37421697
  -4.49033098  -4.59803094  -4.69563403  -4.78482306  -4.87064646
  -4.95310424  -5.04061046  -5.13989636  -5.25601037  -5.39904938
  -5.57574462  -5.79114454  -6.05029756  -6.35152088  -6.69313169
  -7.06671592  -7.46385951  -7.87278279  -8.28002326  -8.67380123
  -9.04401983  -9.3805822   -9.6784399   -9.9342273  -10.1479444
 -10.32295684 -10.45926459 -10.56359893 -10.63932546 -10.68980982
 -10.72178324 -10.73692855 -10.73692855 -10.72346605 -10.69654106
 -10.65783639 -10.60735204 -10.54172237 -10.46094741 -10.36502713
 -10.2472303  -10.10923973  -9.94768979  -9.75753206  -9.53876652
  -9.29139317  -9.01372922  -8.71082309  -8.38772321  -8.05284366
  -7.71123285  -7.3763533   -7.05661905  -6.75707854  -6.48446302
  -6.24213811  -6.02842101  -5.84331171  -5.68176177  -5.54040557
  -5.4158775   -5.3031291   -5.20047758  -5.10624012  -5.02041671
  -4.94132456  -4.8756949   -4.82184492  -4.78650587  -4.76967775
  -4.77472619  -4.80165117  -4.84540428  -4.90261989  -4.9615183
  -5.01368547  -5.04061046  -5.0321964   -4.97329798  -4.85045272
  -4.65692936  -4.38767946  -4.04606866  -3.640511    -3.18110337
  -2.6880395   -2.18151313  -1.68508364  -1.22231038  -0.81170429
  -0.47009349  -0.20420922  -0.01405148   0.10711097   0.17778907
   0.21817656   0.25519842   0.31577964   0.42516241   0.60522328
   0.86605912   1.21440117   1.64856662   2.15341018   2.71546933
   3.31455035   3.92541105   4.5295405    5.10337934   5.63514788
   6.10970082   6.51525848   6.84845522   7.10255981   7.27420662
   7.36171283   7.36171283   7.27420662   7.100877     6.85013803
   6.53208659   6.15850236   5.75294471   5.33560737   4.93173253
   4.56319674   4.25187655   4.01123445   3.85473295   3.78237204
   3.79246891   3.87829232   4.02806257   4.22999999   4.47064209
   4.73652636   5.02092156   5.31373082   5.6099057    5.90439778
   6.19047579   6.4614085    6.71383027   6.93596144   7.12275355
   7.26579256   7.36171283   7.40714875   7.40546594   7.36003002
   7.27925505   7.16818947   7.03693015   6.89220833   6.74075526
   6.58761938   6.43616632   6.28807888   6.14335706   6.00368368
   5.8656931    5.73106816   5.59644321   5.46518389   5.33392456
   5.20603086   5.07813716   4.95360908   4.83076382   4.71296699
   4.6002186    4.49420145   4.39491555   4.30404371   4.21990312
   4.14417659   4.07181568   4.00282039   3.93045948   3.84968451
   3.75039862   3.62755335   3.46936904   3.2657488    3.01164422
   2.70200684   2.33515386   1.91276808   1.44494639   0.94010284
   0.41506554  -0.11838581  -0.64510592  -1.14994947  -1.61777117]","[ 0.74704798  0.83059171  0.88573056  0.89909756  0.86902182  0.79049072
  0.67185863  0.51479643  0.33100024  0.12882442 -0.08170576 -0.2888942
 -0.48438651 -0.65648659 -0.79851092 -0.89876339 -0.94888962 -0.93886437
 -0.86200415 -0.70995457 -0.48104476 -0.17193298  0.2157099   0.67520038
  1.19484234  1.7612688   2.35442924  2.94926055  3.51902875  4.03867072
  4.48312333  4.83400697  5.07962552  5.21162461  5.23501685  5.1598275
  5.00610705  4.79390599  4.54661656  4.28596014  4.0336581   3.80474829
  3.61092685  3.45553552  3.34024518  3.26505583  3.22328397  3.21158785
  3.21994222  3.24500534  3.28176458  3.32353644  3.36697918  3.41209279
  3.45386465  3.49062389  3.5223705   3.54576275  3.56414237  3.57249674
  3.56915499  3.55244624  3.51902875  3.4638899   3.38201705  3.26672671
  3.11467713  2.92252656  2.68860413  2.41290984  2.09878544  1.75124355
  1.37529679  0.98097041  0.57160616  0.15890016 -0.25046409 -0.64980309
 -1.03243334 -1.39000048 -1.71749188 -2.01156579 -2.27222221 -2.49779027
 -2.69161171 -2.85702828 -2.99738174 -3.12102645 -3.22796242 -3.32487314
 -3.40841686 -3.48026447 -3.5370742  -3.57884606 -3.6022383  -3.60558005
 -3.59221306 -3.56213732 -3.52036545 -3.47191009 -3.42345473 -3.380012
 -3.34993626 -3.33656926 -3.33991101 -3.35661975 -3.38669549 -3.41844211
 -3.44851785 -3.46856834 -3.47023922 -3.4518596  -3.40841686 -3.34158188
 -3.25469641 -3.14776044 -3.02745748 -2.89712927 -2.76345931 -2.62978935
 -2.50280289 -2.38751255 -2.28893096 -2.21374161 -2.16528625 -2.15024838
 -2.17196974 -2.23045035 -2.32736107 -2.45601841 -2.61140973 -2.78852243
 -2.97733125 -3.16948181 -3.35661975 -3.53206158 -3.69079465 -3.82780636
 -3.94142582 -4.02998217]",5.842764792547155,2.6832155645299767,5.942435000000001,0.5130049999999997
048,1,2,csm,47a.png,1,1,276,321,277,1,1,290,neu_feedback_onset,2,"[-0.95147052 -0.98770715 -0.99115826 -0.9635494  -0.90142945 -0.80479842
 -0.67365631 -0.50972867 -0.31819217 -0.10594902  0.12009856  0.34442059
  0.55493819  0.73957248  0.88279346  0.97597339  1.00703336  0.97597339
  0.88106791  0.72576804  0.52215266  0.27884954  0.0096631  -0.27160221
 -0.55286753 -0.82205396 -1.07571041 -1.30693466 -1.5157267  -1.70381209
 -1.8763675  -2.03511848 -2.18351613 -2.32673712 -2.46305589 -2.594198
 -2.71843789 -2.82887335 -2.92550438 -3.00142876 -3.05492094 -3.08598091
 -3.09460868 -3.0825298  -3.05319538 -3.01350764 -2.96864323 -2.92205327
 -2.88063997 -2.84612889 -2.82197113 -2.8081667  -2.80471559 -2.8081667
 -2.82197113 -2.83922668 -2.86338443 -2.88926774 -2.91687661 -2.94793658
 -2.977271   -3.00833098 -3.03939095 -3.06872537 -3.09633423 -3.12221754
 -3.14292419 -3.15500307 -3.15327752 -3.13429642 -3.08943202 -3.01005653
 -2.88236553 -2.6994568  -2.45097701 -2.13002395 -1.73314651 -1.2637958
 -0.7305996  -0.14908787  0.45658161  1.06225109  1.6368606   2.14935016
  2.57383646  2.88271064  3.05871715  3.09150268  2.97243945  2.70670412
  2.30465002  1.78353269  1.16233323  0.46866049 -0.27332777 -1.03429711
 -1.79354091 -2.52517583 -3.21367191 -3.84349915 -4.40430422 -4.88745936
 -5.29123902 -5.61391763 -5.85722075 -6.0245995  -6.12123053 -6.15574161
 -6.13503496 -6.06773835 -5.96420511 -5.833063   -5.68466535 -5.52591437
 -5.36543784 -5.21013798 -5.06691699 -4.93577488 -4.82188831 -4.72698283
 -4.64760735 -4.58376185 -4.53199522 -4.49058193 -4.45434529 -4.41983421
 -4.38187202 -4.34045872 -4.29214321 -4.23519992 -4.16790331 -4.09543004
 -4.01950566 -3.94358128 -3.87283357 -3.81243917 -3.76757477 -3.74169146
 -3.73824035 -3.75722144 -3.79863474 -3.85902913 -3.93495351 -4.01778011
 -4.10233226 -4.17998219 -4.24382769 -4.28351544 -4.29214321 -4.26453434
 -4.19206107 -4.07472339 -3.90734465 -3.68819928 -3.42418951 -3.11531533
 -2.77365562 -2.40956371 -2.03339292 -1.66067324 -1.30348355 -0.97217717
 -0.67193076 -0.40274432 -0.16461786  0.05280195  0.261594    0.4755627
  0.7050614   0.9604434   1.24861093  1.56783843  1.91294925  2.27359005
  2.63423085  2.98106722  3.29856917  3.57465782  3.80243096  3.98016303
  4.10785403  4.18895507  4.23381948  4.24762391  4.2407217   4.2217406
  4.1993084   4.1803273   4.17169953  4.17860175  4.21138728  4.27523278
  4.37704047  4.52198701  4.71524907  4.95855219  5.25017083  5.58147721
  5.94384357  6.32346546  6.70481292  7.07408149  7.41574119  7.71943871
  7.97827182  8.18706387  8.34408929  8.45452475  8.5200958   8.54770467
  8.54080245  8.50284026  8.43726921  8.34408929  8.2233005   8.07145174
  7.8850919   7.66422098  7.40711342  7.11031812  6.77901174  6.41664538
  6.02839572  5.62116496  5.20358087  4.78599678  4.37358936  3.97326081
  3.59191336  3.22954701  2.89133841  2.57556201  2.28049227  2.00958028
  1.75937494  1.53505291  1.33661419  1.16750989  1.03464222  0.9414623
  0.89142124  0.88624457  0.92420676  1.00358225  1.11574327  1.25033648
  1.39528303  1.53677846  1.66446946  1.76800271  1.83702487  1.86808484
  1.85945707  1.81459267  1.73694273  1.62995838  1.50226738  1.35904639
  1.20374652  1.03809333]","[ 4.12120798e-01  3.50559185e-01  2.73607169e-01  1.88104928e-01
  9.74725538e-02  5.13013441e-03 -8.20821506e-02 -1.60744211e-01
 -2.25725914e-01 -2.75317213e-01 -3.02677930e-01 -3.09518109e-01
 -2.90707617e-01 -2.47956496e-01 -1.81264749e-01 -9.40524642e-02
  1.19703136e-02  1.36803584e-01  2.73607169e-01  4.20671022e-01
  5.76285099e-01  7.38739355e-01  9.02903656e-01  1.06877800e+00
  1.23294230e+00  1.39710660e+00  1.55614077e+00  1.71175485e+00
  1.86052875e+00  2.00588255e+00  2.14439618e+00  2.27948972e+00
  2.40945313e+00  2.53941653e+00  2.66595985e+00  2.79421321e+00
  2.92417661e+00  3.05585006e+00  3.18923356e+00  3.32774719e+00
  3.46626082e+00  3.60990458e+00  3.75354834e+00  3.90061220e+00
  4.04767605e+00  4.19644995e+00  4.34522384e+00  4.49570779e+00
  4.64619173e+00  4.79667567e+00  4.94373953e+00  5.09080338e+00
  5.23102705e+00  5.36270050e+00  5.48069359e+00  5.57816615e+00
  5.64656794e+00  5.67905879e+00  5.66708848e+00  5.60381682e+00
  5.48411368e+00  5.30626902e+00  5.07541298e+00  4.79496563e+00
  4.47860734e+00  4.13659838e+00  3.78261910e+00  3.42863983e+00
  3.08492082e+00  2.75830227e+00  2.45049420e+00  2.16320668e+00
  1.89301960e+00  1.63480283e+00  1.38513629e+00  1.13717979e+00
  8.87513253e-01  6.39556756e-01  3.89890215e-01  1.43643763e-01
 -9.57625090e-02 -3.23198468e-01 -5.33533979e-01 -7.21638907e-01
 -8.87513253e-01 -1.02602688e+00 -1.13546975e+00 -1.21755190e+00
 -1.26885324e+00 -1.28937378e+00 -1.27911351e+00 -1.23807244e+00
 -1.16454051e+00 -1.06193782e+00 -9.33684463e-01 -7.81490475e-01
 -6.13906084e-01 -4.39481514e-01 -2.63346900e-01 -9.57625090e-02
  5.64314785e-02  1.86394884e-01  2.94127706e-01  3.76209857e-01
  4.34351380e-01  4.71972366e-01  4.92492903e-01  5.02753172e-01
  5.06173262e-01  5.11303396e-01  5.18143575e-01  5.30113889e-01
  5.48924382e-01  5.71154964e-01  5.98515681e-01  6.29296488e-01
  6.60077294e-01  6.89148056e-01  7.18218817e-01  7.45579534e-01
  7.72940251e-01  8.02011013e-01  8.32791819e-01  8.68702760e-01
  9.11453880e-01  9.66175314e-01  1.03628715e+00  1.12520948e+00
  1.23636239e+00  1.37316598e+00  1.53562023e+00  1.72201512e+00
  1.93064058e+00  2.14952632e+00  2.37354219e+00  2.58729779e+00
  2.78053285e+00  2.93956702e+00  3.05242997e+00  3.11228154e+00]",6.506072224791386,3.9749136427374503,5.79524,0.02966999999999853
048,1,2,csm,55a.png,1,1,308,309,312,1,0,452,neu_feedback_onset,3,"[ 0.42549481  0.53535618  0.61731624  0.66963118  0.69055715  0.67835034
  0.63301072  0.55628215  0.45165228  0.3243526   0.17961461  0.01918214
 -0.14822565 -0.32086494 -0.49350423 -0.66265585 -0.82483216 -0.9782893
 -1.11605197 -1.23637632 -1.33751853 -1.41599093 -1.47179353 -1.50318249
 -1.51364548 -1.50143866 -1.46656204 -1.41075944 -1.33751853 -1.24858314
 -1.1456971  -1.03583573 -0.9224867  -0.816113   -0.72194612 -0.64696137
 -0.5981341  -0.57895196 -0.59115878 -0.63301072 -0.70102014 -0.79169936
 -0.89807307 -1.01142209 -1.13000262 -1.24683931 -1.36193216 -1.47179353
 -1.57816723 -1.68279711 -1.78917081 -1.89554451 -2.00714971 -2.12224257
 -2.24256692 -2.36812277 -2.49542244 -2.62795361 -2.76048479 -2.89475979
 -3.03077862 -3.16505362 -3.29932862 -3.4318598  -3.55915947 -3.68297149
 -3.80155201 -3.90966954 -4.00558026 -4.08754033 -4.15031825 -4.1921702
 -4.20786468 -4.1921702  -4.14508676 -4.0578952  -3.92885169 -3.75098091
 -3.52428285 -3.24526986 -2.9121981  -2.5320429  -2.10654809 -1.64792048
 -1.1683669  -0.68532566 -0.21449124  0.22495422  0.61731624  0.94690034
  1.20498736  1.38808963  1.49620717  1.53980295  1.52759613  1.47702502
  1.40378411  1.32356788  1.2520708   1.19975586  1.1735984   1.18057372
  1.21893801  1.28520359  1.37413898  1.47876886  1.58688639  1.69151626
  1.78045165  1.84846107  1.88508152  1.88682536  1.8502049   1.77347633
  1.66187113  1.51887697  1.34972535  1.16487924  0.97654547  0.79518703
  0.62952306  0.49350423  0.39236202  0.33132793  0.31388962  0.33655942
  0.39759351  0.49001657  0.60685326  0.74112826  0.88237859  1.02886041
  1.17185456  1.30961723  1.44389223  1.57467957  1.70721074  1.83974191
  1.97924841  2.12573023  2.27569971  2.42915686  2.582614    2.72735199
  2.86162699  2.97671985  3.07263057  3.14761531  3.20167408  3.2417822
  3.26968349  3.2923533   3.31676694  3.3429244   3.37256954  3.40221467
  3.43011596  3.44929811  3.45627343  3.44581045  3.42139681  3.38128869
  3.33420525  3.28886564  3.25398901  3.23829453  3.25224518  3.30107246
  3.38652018  3.5103322   3.66553318  3.84689162  4.0526637   4.27238643
  4.50257215  4.74147703  4.98735722  5.24195658  5.50527509  5.78080042
  6.06678873  6.36498387  6.6684105   6.97358096  7.27177609  7.55253291
  7.80364461  8.01464818  8.17159299  8.27099137  8.30412416  8.2727352
  8.18379981  8.04778097  7.88037318  7.7025024   7.53335077  7.39035661
  7.2892144   7.23689947  7.24038713  7.29793356  7.40430726  7.55427675
  7.73912285  7.9483826   8.17508065  8.41049786  8.64940274  8.88656378
  9.11849333  9.33995989  9.54921964  9.7427849   9.91716802 10.07236899
 10.206644   10.31476153 10.3967216  10.45078036 10.475194   10.46996251
 10.43508588 10.37230796 10.28337257 10.17176737 10.04098003  9.89449821
  9.7375534   9.57363327  9.40622548  9.23881768  9.07315372  8.91272125
  8.75752027  8.60755079  8.4628128   8.32156247  8.18205598  8.04080565
  7.89432383  7.74086668  7.58043421  7.40779493  7.22294882  7.02763972
  6.82186764  6.60737641  6.38590984  6.15746796  5.92379458  5.68837737
  5.44947249  5.20882379  4.96643125  4.72403871  4.48164618  4.23925364
  3.9968611   3.7562124 ]","[ 0.69114772  0.83950014  0.94421949  0.99657917  0.99483385  0.94247417
  0.83950014  0.69812901  0.52359676  0.32637531  0.11693661 -0.09773806
 -0.30892209 -0.51312483 -0.71034627 -0.89884111 -1.08209997 -1.26012287
 -1.43465512 -1.60744206 -1.77848366 -1.94777995 -2.11533091 -2.27764591
 -2.43647026 -2.59180397 -2.74364703 -2.89374476 -3.0438425  -3.19568556
 -3.35101927 -3.51158894 -3.67739458 -3.84843619 -4.02471377 -4.20273667
 -4.38075956 -4.55878246 -4.72807875 -4.89039374 -5.03874616 -5.16964535
 -5.27611003 -5.35639486 -5.40177325 -5.40700922 -5.36337615 -5.26214744
 -5.09808713 -4.86072326 -4.54656521 -4.15386763 -3.67739458 -3.12412734
 -2.49581123 -1.80117286 -1.05068417 -0.25132645  0.58293773  1.44163641
  2.31778833  3.19917621  4.07532812  4.93751745  5.77352695  6.57288467
  7.32511868  8.01975705  8.64807316  9.20308573  9.68479475 10.09320022
 10.43702876 10.72500698 10.97284278 11.19624407 11.40568277 11.61337615
 11.82456018 12.0427255  12.26263614 12.47731081 12.6780229  12.85430047
 12.99741692 13.10039095 13.15973192 13.18067579 13.16496789 13.12482547
 13.06722982 13.00614354 12.94854789 12.90142418 12.87000838 12.85080983
 12.83859257 12.81939402 12.78274225 12.71118403 12.58726613 12.39702597
 12.13173694 11.78790841 11.36728567 10.88208601 10.3549986   9.80696733
  9.27115331  8.77548171  8.35136833  8.02150237  7.80333706  7.70908964
  7.7370148   7.88362189  8.13669366  8.47703156  8.88543703  9.34271153
  9.82616588 10.32183748 10.81052779 11.28351019 11.73031276 12.14569953
 12.52617984 12.8717537  13.17718514 13.44596481 13.67634739 13.87007819
 14.02366657 14.13885786 14.21739738 14.25579447 14.25753979 14.22088802
 14.15107512 14.05333706]",9.171810968698235,12.243583030810768,5.7345,-0.30832499999999996
048,1,2,csp,59b.png,1,1,264,132,264,1,1,353,pos_feedback_onset,4,"[-2.86325407e+00 -2.62200918e+00 -2.33659269e+00 -2.01040241e+00
 -1.64853507e+00 -1.25608740e+00 -8.39855015e-01 -4.15128093e-01
  6.20101306e-03  4.05444320e-01  7.67311657e-01  1.07311504e+00
  1.31435993e+00  1.47915398e+00  1.57089499e+00  1.59467970e+00
  1.56240045e+00  1.49274524e+00  1.40440204e+00  1.32115556e+00
  1.25999489e+00  1.23281236e+00  1.24980144e+00  1.31266102e+00
  1.41459549e+00  1.55050810e+00  1.71020542e+00  1.88519292e+00
  2.06527713e+00  2.24875916e+00  2.43224119e+00  2.62081994e+00
  2.81619433e+00  3.02176216e+00  3.23922234e+00  3.46517706e+00
  3.69452960e+00  3.92218323e+00  4.13284779e+00  4.32142654e+00
  4.47772605e+00  4.59834849e+00  4.68329388e+00  4.73765892e+00
  4.77163708e+00  4.79712069e+00  4.82600212e+00  4.86847481e+00
  4.93303331e+00  5.02477432e+00  5.14199895e+00  5.27961047e+00
  5.43251217e+00  5.59220949e+00  5.74850900e+00  5.89631396e+00
  6.02712986e+00  6.13755886e+00  6.22760096e+00  6.29385836e+00
  6.33633106e+00  6.35162123e+00  6.33802996e+00  6.29215946e+00
  6.21570861e+00  6.10358070e+00  5.96257136e+00  5.79607841e+00
  5.61429529e+00  5.43081326e+00  5.25752467e+00  5.10802080e+00
  4.99419398e+00  4.92623768e+00  4.90585078e+00  4.93133440e+00
  4.99419398e+00  5.08253718e+00  5.18277274e+00  5.27961047e+00
  5.35776023e+00  5.40532964e+00  5.41892090e+00  5.39683510e+00
  5.34247006e+00  5.26601921e+00  5.18277274e+00  5.10292407e+00
  5.04346231e+00  5.01458088e+00  5.02307541e+00  5.07574155e+00
  5.16918147e+00  5.29829846e+00  5.45629687e+00  5.62788655e+00
  5.80287404e+00  5.96766809e+00  6.11207524e+00  6.22760096e+00
  6.31084744e+00  6.35671795e+00  6.36691139e+00  6.34652450e+00
  6.29895509e+00  6.22760096e+00  6.13925776e+00  6.03732330e+00
  5.92349649e+00  5.80457295e+00  5.67885378e+00  5.55143570e+00
  5.42231872e+00  5.29829846e+00  5.18107383e+00  5.07913937e+00
  4.99929071e+00  4.95002238e+00  4.93982894e+00  4.97720491e+00
  5.06894592e+00  5.21505198e+00  5.41212527e+00  5.65337017e+00
  5.92349649e+00  6.20211735e+00  6.46374913e+00  6.68290822e+00
  6.83241210e+00  6.88847605e+00  6.82901429e+00  6.64553226e+00
  6.33633106e+00  5.90990523e+00  5.38324384e+00  4.78352943e+00
  4.14813795e+00  3.51104757e+00  2.90963425e+00  2.38127396e+00
  1.95145032e+00  1.64394802e+00  1.46726162e+00  1.42309002e+00
  1.50633650e+00  1.69831307e+00  1.97863284e+00  2.32011328e+00
  2.69557188e+00  3.07952502e+00  3.44648908e+00  3.77437826e+00
  4.04790240e+00  4.25686805e+00  4.39108175e+00  4.44884462e+00
  4.43185554e+00  4.34011452e+00  4.17871829e+00  3.95786029e+00
  3.68263725e+00  3.36324260e+00  3.01156871e+00  2.64120684e+00
  2.26235042e+00  1.89028964e+00  1.53521793e+00  1.21072656e+00
  9.23611164e-01  6.80667365e-01  4.88690796e-01  3.44283643e-01
  2.47445905e-01  1.93080859e-01  1.72693966e-01  1.77790689e-01
  1.96478674e-01  2.18564474e-01  2.32155735e-01  2.27059012e-01
  1.93080859e-01  1.25124551e-01  1.29966438e-02 -1.43302863e-01
 -3.45472878e-01 -5.91814493e-01 -8.77230984e-01 -1.19662563e+00
 -1.54490171e+00 -1.91526358e+00 -2.29921672e+00 -2.69676112e+00
 -3.10110115e+00 -3.51053790e+00 -3.92167356e+00 -4.33111031e+00
 -4.73714925e+00 -5.13129583e+00 -5.50845334e+00 -5.86182614e+00
 -6.18122078e+00 -6.45814274e+00 -6.68409746e+00 -6.84889151e+00
 -6.94912706e+00 -6.97630958e+00 -6.93043907e+00 -6.81491335e+00
 -6.62973241e+00 -6.38508971e+00 -6.08608195e+00 -5.74460151e+00
 -5.36574509e+00 -4.96140506e+00 -4.54007596e+00 -4.10855341e+00
 -3.68042867e+00 -3.26079847e+00 -2.86155516e+00 -2.49459110e+00
 -2.17009973e+00 -1.89827450e+00 -1.68760995e+00 -1.54320280e+00
 -1.46675195e+00 -1.45825741e+00 -1.50752574e+00 -1.60436347e+00
 -1.74027609e+00 -1.89997341e+00 -2.07156309e+00 -2.24655058e+00
 -2.41304353e+00 -2.56934304e+00 -2.71205129e+00 -2.83946936e+00
 -2.95329618e+00 -3.05523064e+00 -3.14867056e+00 -3.23531485e+00
 -3.31516352e+00 -3.39161436e+00 -3.46636630e+00 -3.53941933e+00
 -3.61247236e+00 -3.68212758e+00 -3.75348170e+00 -3.82313691e+00
 -3.89279213e+00 -3.96244734e+00 -4.03040365e+00 -4.09496214e+00
 -4.15952064e+00 -4.21898241e+00 -4.27504636e+00 -4.32601359e+00
 -4.37358300e+00 -4.41605570e+00 -4.45343167e+00 -4.49080764e+00]","[-2.04854074 -1.80591504 -1.53036157 -1.23401162 -0.92899646 -0.62744738
 -0.34322871 -0.09020477  0.12469228  0.29453026  0.42104223  0.50942731
  0.57181677  0.62034191  0.67406617  0.752053    0.86643369  1.02933951
  1.24250352  1.50245962  1.80054262  2.11768906  2.4348355   2.7329185
  2.98940852  3.1887082   3.31868625  3.37760963  3.36547835  3.2909576
  3.16444563  3.00153981  2.81783749  2.62720302  2.44350071  2.27366272
  2.12288818  1.99464317  1.88719465  1.79880957  1.72948795  1.6722976
  1.62723855  1.59084469  1.56484908  1.54925172  1.54751868  1.56311604
  1.60297598  1.67403065  1.78147917  1.93398675  2.13675251  2.38977645
  2.68959248  3.02753542  3.393207    3.76234467  4.11241888  4.42090012
  4.6583267   4.80390211  4.83856293  4.75191089  4.53874689  4.202537
  3.75367946  3.20950469  2.59427525  1.93052067  1.2459696   0.56835069
 -0.07980652 -0.67597252 -1.20281688 -1.65340746 -2.02081209 -2.30329772
 -2.50952956 -2.64470673 -2.71922748 -2.74175701 -2.72615964 -2.67590146
 -2.59791463 -2.49566523 -2.36915326 -2.21837872 -2.04334161 -1.84577498
 -1.63261097 -1.41078177 -1.1906856  -0.9861868  -0.81288273 -0.68117164
 -0.59971873 -0.5771892  -0.61185001 -0.69676901 -0.82501402 -0.97925464
 -1.14909262 -1.31546453 -1.46970515 -1.60314928 -1.7105978  -1.79378376
 -1.85270714 -1.89083403 -1.90989748 -1.91163052 -1.89256708 -1.84750802
 -1.77125423 -1.6551405  -1.49570076 -1.29120196 -1.04857626 -0.7730228
 -0.47840588 -0.18378896  0.09523059  0.3430554   0.54408812  0.69139658
  0.77804861  0.80577726  0.77978165  0.70699395  0.59781238  0.46610129
  0.32052587  0.17495046  0.04150632 -0.07287436 -0.15779335 -0.20978457
 -0.22538194 -0.20805153]",4.593676495697087,1.6228192932486993,5.886135,0.2745500000000005
048,1,2,csm,43a.png,1,1,300,293,301,1,1,434,neu_feedback_onset,5,"[ 3.49638711  3.22270456  2.93052994  2.61061722  2.2611172   1.88202987
  1.47520445  1.04433935  0.59683138  0.1437758  -0.30373216 -0.74014489
 -1.15436713 -1.54085128 -1.89774813 -2.22690688 -2.53202594 -2.81680374
 -3.0923355  -3.35862123 -3.62120855 -3.87824825 -4.12604191 -4.35719272
 -4.56430384 -4.73812925 -4.87127212 -4.95818482 -5.00071657 -4.99886736
 -4.96003403 -4.89716101 -4.81949433 -4.73812925 -4.66416099 -4.60683559
 -4.56985146 -4.55875622 -4.56985146 -4.60128797 -4.65121655 -4.71224036
 -4.77881179 -4.84538322 -4.90270863 -4.94524037 -4.96743085 -4.96188323
 -4.91935148 -4.83983561 -4.71593877 -4.54766098 -4.33685145 -4.08535937
 -3.79873237 -3.48066886 -3.13671646 -2.77242278 -2.39518467 -2.00870052
 -1.62036716 -1.23388301 -0.85664489 -0.49235122 -0.15209723  0.16226787
  0.44149804  0.68189488  0.88160918  1.03879173  1.15714094  1.24220444
  1.29952984  1.34021238  1.36979968  1.39383937  1.41602985  1.44006953
  1.45856159  1.47150604  1.47520445  1.46226001  1.43452191  1.39753778
  1.35500603  1.31987111  1.30877587  1.33466476  1.41602985  1.56396636
  1.78587114  2.08544258  2.45528388  2.88614898  3.35954583  3.85883158
  4.36181574  4.84815703  5.30121262  5.70803804  6.05938727  6.35156189
  6.59010952  6.77687937  6.92666509  7.04686351  7.15226828  7.25212543
  7.3575302   7.47587941  7.61087148  7.76250641  7.928935    8.10830802
  8.29137946  8.47630011  8.65382393  8.8165541   8.9607922   9.08283983
  9.17899856  9.24372079  9.2751573   9.26960968  9.22522872  9.13646681
  8.99962554  8.81285568  8.57430805  8.28953026  7.96222071  7.60347466
  7.22808575  6.85639525  6.51059364  6.2110222   5.9835698   5.84487932
  5.80789519  5.88371265  6.06493488  6.34786347  6.71030794  7.1282286
  7.57388736  8.01399849  8.4171255   8.7610779   9.02181601  9.18824459
  9.25666523  9.23262555  9.13091919  8.96818903  8.77217314  8.56506202
  8.37274455  8.2174112   8.11755405  8.08426834  8.12310167  8.23220486
  8.40972868  8.63903028  8.91086363  9.20488745  9.5044589   9.79663352
 10.06291925 10.29776847 10.49378435 10.64726849 10.76191929 10.83958596
 10.89136374 10.91910184 10.93389549 10.94129232 10.94683994 10.95423676
 10.9634828  10.97642724 10.99676851 11.01895899 11.04669709 11.0781336
 11.11511773 11.15395106 11.19833202 11.24456218 11.29633996 11.34811774
 11.39989552 11.44612568 11.48680822 11.51454632 11.52564156 11.52009394
 11.49605426 11.4516733  11.39064949 11.31668123 11.22976853 11.135459
 11.03745105 10.9357447  10.83218914 10.72678437 10.61768119 10.50487959
 10.38837959 10.26633196 10.13873671 10.00374464  9.86505416  9.72266526
  9.57842716  9.43233985  9.28995095  9.15310967  9.02736363  8.91271283
  8.81470489  8.73703822  8.67971282  8.64272869  8.62793504  8.63163345
  8.64827631  8.67786361  8.71114933  8.74628425  8.77402235  8.79066521
  8.79436362  8.77956997  8.74628425  8.69265726  8.62053821  8.53362551
  8.43376836  8.32466518  8.21186358  8.09906199  7.9862604   7.87900642
  7.77914927  7.68668895  7.60347466  7.53135561  7.47033179  7.41855401
  7.37602226  7.33903814  7.30390321  7.26876829  7.22623654  7.17815717
  7.12083177  7.05795875]","[  0.0932281   -0.07550283  -0.26298163  -0.45557349  -0.63793923
  -0.79814839  -0.92256614  -1.00096637  -1.0214186   -0.98051414
  -0.87313991  -0.69759158  -0.45557349  -0.14708564   0.2193502
   0.63862097   1.10050057   1.58964981   2.09413822   2.59351357
   3.07073234   3.50534229   3.8802999    4.18197033   4.40012749
   4.52965829   4.57397147   4.53988441   4.43762325   4.28593585
   4.1001614    3.89563907   3.68770804   3.48659441   3.30081996
   3.13379339   2.98721906   2.86109696   2.75201838   2.65657463
   2.57306134   2.49806982   2.42989571   2.36513031   2.30377361
   2.24412126   2.18617327   2.12822527   2.07198163   2.0191467
   1.96801612   1.92029424   1.87938977   1.84871142   1.82655484
   1.81973743   1.82825919   1.85552884   1.89984201   1.95949435
   2.03278152   2.11118175   2.18787762   2.25605173   2.30718231
   2.3327476    2.32763455   2.29013879   2.21855597   2.1128861
   1.97824223   1.81632872   1.63396298   1.431145     1.21298785
   0.97949152   0.73065602   0.46477699   0.17844573  -0.13004211
  -0.46579961  -0.83223545  -1.23105399  -1.66566394  -2.13436094
  -2.64055371  -3.17912918  -3.74667864  -4.3397934   -4.95336039
  -5.58226655  -6.22139883  -6.86393982  -7.5064808   -8.14050002
  -8.75918007  -9.35740788  -9.9266617  -10.45671541 -10.94075159
 -11.37365718 -11.74861479 -12.06051134 -12.30934684 -12.49682564
 -12.6246521  -12.69964362 -12.72861762 -12.7183915  -12.67748703
 -12.61101728 -12.52409529 -12.42012977 -12.30082508 -12.16447686
 -12.01108511 -11.83383242 -11.62760574 -11.38558765 -11.1026651
 -10.77202066 -10.3885413   -9.95222699  -9.46307775  -8.92620664
  -8.34672671  -7.73656842  -7.10425355  -6.46171257  -5.81917158
  -5.19026542  -4.58181149  -4.00403591  -3.46375609  -2.96778944
  -2.51784031  -2.11902177  -1.77133381  -1.47136773  -1.21741917]",10.979154820187821,2.270453511222312,5.407724999999998,0.04252499999999948
048,1,2,csp,1b.png,1,1,164,36,163,1,1,311,pos_feedback_onset,6,"[ 0.24494467  0.2733877   0.30685009  0.35035119  0.40221789  0.45910394
  0.51766312  0.56952982  0.60466533  0.6113578   0.57956854  0.50260505
  0.37042862  0.17969302 -0.06960176 -0.37745572 -0.73717638 -1.14374437
 -1.587121   -2.05726753 -2.54749149 -3.04273481 -3.53965126 -4.0282021
 -4.50504111 -4.96514892 -5.40685243 -5.8284785  -6.2266809  -6.59644027
 -6.93441038 -7.23389874 -7.48653975 -7.68731407 -7.82952922 -7.90816583
 -7.92155078 -7.87303032 -7.76427756 -7.60198499 -7.39451819 -7.14856965
 -6.87417808 -6.5813822  -6.2785476  -5.97069364 -5.66953216 -5.38008252
 -5.10736407 -4.85639617 -4.63052506 -4.4347701  -4.26745816 -4.1319355
 -4.0198365  -3.93116118 -3.85587081 -3.78727292 -3.71867502 -3.64171153
 -3.55638245 -3.45934153 -3.35728125 -3.25689409 -3.171565   -3.10965959
 -3.0845628  -3.10129399 -3.15985317 -3.25522097 -3.37568556 -3.50451575
 -3.62330722 -3.71198255 -3.75213741 -3.7337331  -3.64840401 -3.49782327
 -3.29370271 -3.04942729 -2.78340132 -2.51904846 -2.27811928 -2.07734496
 -1.9334567  -1.85649321 -1.84812761 -1.90668679 -2.02715138 -2.19613643
 -2.40360323 -2.63282058 -2.8687304  -3.10129399 -3.32214574 -3.52124694
 -3.70027071 -3.86089017 -4.00310531 -4.13528174 -4.26243881 -4.38959587
 -4.51842606 -4.64892937 -4.77775956 -4.89655103 -4.99861131 -5.07390168
 -5.11572966 -5.11740278 -5.0755748  -4.99693819 -4.88651232 -4.75600901
 -4.62215946 -4.49834863 -4.39963459 -4.33940229 -4.32601734 -4.36115285
 -4.44480881 -4.56694652 -4.71920038 -4.88316608 -5.04211241 -5.18098132
 -5.27969536 -5.3265427  -5.31315775 -5.22950178 -5.07892104 -4.86141553
 -4.59037019 -4.27415064 -3.93116118 -3.578133   -3.23347042 -2.91557774
 -2.64118617 -2.41698818 -2.25636873 -2.15598157 -2.11749982 -2.13088478
 -2.19111707 -2.28313864 -2.40025699 -2.52908718 -2.66460985 -2.80180563
 -2.93900142 -3.07787032 -3.22008546 -3.36899308 -3.52793942 -3.69859759
 -3.87594824 -4.05497201 -4.23064954 -4.39294211 -4.53181102 -4.63889065
 -4.70748855 -4.73593158 -4.72421974 -4.6773724  -4.60040891 -4.50002175
 -4.38457652 -4.26076569 -4.13360862 -4.00310531 -3.86590952 -3.72369438
 -3.56642116 -3.39241675 -3.20000803 -2.989195   -2.76332389 -2.5307603
 -2.30154295 -2.0890568  -1.90166743 -1.75443293 -1.65404577 -1.60719843
 -1.61891026 -1.68750816 -1.81131899 -1.98699652 -2.20617515 -2.46550865
 -2.75495829 -3.0678316  -3.39910923 -3.73875246 -4.08508816 -4.43142386
 -4.77608644 -5.11238343 -5.44198793 -5.75988061 -6.0627152  -6.34547237
 -6.60480587 -6.8323501  -7.01973946 -7.15693525 -7.23724497 -7.25062993
 -7.19039763 -7.05487497 -6.84573505 -6.56632412 -6.2266809  -5.84019033
 -5.41856426 -4.980207   -4.54184973 -4.11855054 -3.72871374 -3.38405116
 -3.09962087 -2.88378848 -2.74993893 -2.69974535 -2.7382271  -2.86203793
 -3.06615848 -3.34055005 -3.67517392 -4.05497201 -4.46823248 -4.90157039
 -5.34494701 -5.78832363 -6.22835402 -6.65667257 -7.07160616 -7.47148168
 -7.85127977 -8.20598107 -8.53223934 -8.82168898 -9.07098376 -9.27008496
 -9.41731946 -9.50766791 -9.54113029 -9.51937974 -9.44743561 -9.33199038
 -9.18140964 -9.00573211 -8.81165026 -8.60752971 -8.40006291 -8.18924987
 -7.97676372 -7.76427756]","[-0.261123   -0.20721373 -0.1330885  -0.04548594  0.04211661  0.11624185
  0.16846645  0.19205175  0.18699776  0.15498913  0.10276453  0.04380128
 -0.01347732 -0.05896326 -0.08591789 -0.08928722 -0.07412524 -0.04380128
 -0.01010799  0.01516198  0.01853131 -0.00842332 -0.0758099  -0.18531309
 -0.33524824 -0.52056133 -0.73619839 -0.96868209 -1.21295844 -1.45723479
 -1.69645715 -1.92557152 -2.13952391 -2.33831432 -2.51857343 -2.68198588
 -2.82855169 -2.95995552 -3.07788204 -3.18570057 -3.28509577 -3.37606766
 -3.46367021 -3.54621877 -3.62708267 -3.70457723 -3.7820718  -3.85619704
 -3.93032228 -4.00107819 -4.07014943 -4.13416668 -4.19312994 -4.2470392
 -4.29420981 -4.33295709 -4.36328105 -4.38855102 -4.40876699 -4.42392897
 -4.44077562 -4.45762226 -4.47783824 -4.50479287 -4.53848616 -4.58060277
 -4.62945804 -4.68505197 -4.74569989 -4.80971714 -4.8737344  -4.93606698
 -4.99166091 -5.03714685 -5.06747081 -5.0775788  -5.06241682 -5.01356155
 -4.92932832 -4.80297849 -4.6361967  -4.4272983  -4.18302195 -3.90673697
 -3.61192069 -3.30868108 -3.0088108  -2.72578716 -2.46971816 -2.24397311
 -2.05360602 -1.89693223 -1.76384373 -1.64591722 -1.5279907  -1.39490221
 -1.23317441 -1.03101467 -0.78168433 -0.48181405 -0.13814249  0.24090702
  0.64017251  1.04112266  1.42522617  1.77058239  2.06371401  2.28945905
  2.44276352  2.52362742  2.53710474  2.49498812  2.41243956  2.30462103
  2.19174851  2.08898398  2.00475075  1.95252615  1.93231018  1.94747216
  1.9929581   2.06708334  2.15973989  2.26755842  2.38380027  2.50678077
  2.63313061  2.76116511  2.88919962  3.02060345  3.15369194  3.29014977
  3.42997692  3.57485807  3.72310854  3.87641301  4.03477148  4.20323793
  4.3801277   4.56881012]",-1.382423500657195,3.088792247976162,5.97686,-0.06551500000000132
048,1,2,csp,39b.png,1,1,284,50,283,1,1,446,pos_feedback_onset,7,"[ 1.46515032  1.56726807  1.61354017  1.59917987  1.52259156  1.38856201
  1.20187801  0.9689219   0.7024584   0.41046547  0.10411223 -0.20543219
 -0.51338101 -0.8133519  -1.10534483 -1.39255099 -1.67975715 -1.97175008
 -2.27331655 -2.58924333 -2.91953042 -3.25939104 -3.60403844 -3.94070788
 -4.25823025 -4.54384082 -4.78796606 -4.98103243 -5.11825315 -5.20281941
 -5.23632679 -5.22834884 -5.1884591  -5.13101787 -5.0640031  -4.99858391
 -4.94273827 -4.89965735 -4.87093673 -4.85498083 -4.84859847 -4.84859847
 -4.84859847 -4.84859847 -4.84540729 -4.84062052 -4.83423817 -4.82785581
 -4.82306904 -4.82306904 -4.82785581 -4.83742935 -4.85178965 -4.87253232
 -4.89965735 -4.92997355 -4.96507653 -5.00656186 -5.05602515 -5.11187079
 -5.17888556 -5.25866505 -5.35120926 -5.45811377 -5.57618742 -5.70543019
 -5.83786414 -5.96391574 -6.07720261 -6.16336446 -6.21282774 -6.21601892
 -6.16336446 -6.05167318 -5.88094507 -5.6575625  -5.38790782 -5.08474576
 -4.76243663 -4.43534072 -4.12100953 -3.83539896 -3.59286931 -3.4061853
 -3.28811166 -3.24343515 -3.27853812 -3.39342059 -3.58170018 -3.83380337
 -4.13696543 -4.47842164 -4.84062052 -5.20760618 -5.56820947 -5.91126127
 -6.23037923 -6.52396775 -6.78883566 -7.02976972 -7.24357875 -7.43664511
 -7.60577763 -7.7509763  -7.87224113 -7.96478533 -8.02541775 -8.05094718
 -8.03818246 -7.98393241 -7.88819702 -7.75257189 -7.5786526  -7.37122593
 -7.13188746 -6.86861515 -6.58460017 -6.29101164 -5.99423194 -5.7038346
 -5.43098875 -5.1884591  -4.98741479 -4.83902494 -4.75286309 -4.73371601
 -4.78317929 -4.90125294 -5.07995899 -5.30972392 -5.58097419 -5.87934948
 -6.19368067 -6.51120303 -6.82712981 -7.13029187 -7.41909363 -7.69034389
 -7.94085149 -8.16902083 -8.37166073 -8.54238884 -8.67801397 -8.77055818
 -8.8136391  -8.7976832  -8.71790371 -8.56951386 -8.35410924 -8.07488103
 -7.73661599 -7.35207885 -6.93084315 -6.49046037 -6.04209964 -5.60012126
 -5.18048115 -4.78956165 -4.43693631 -4.12898748 -3.86731075 -3.65190613
 -3.4843692  -3.35672202 -3.26896458 -3.21152335 -3.17801596 -3.16365566
 -3.16046448 -3.16365566 -3.16844243 -3.16844243 -3.16365566 -3.15089094
 -3.13014827 -3.10142765 -3.06951586 -3.03600847 -3.00569227 -2.98175842
 -2.97218488 -2.98175842 -3.01526581 -3.07589822 -3.16684684 -3.28651607
 -3.43490592 -3.60722962 -3.7971048  -3.99974471 -4.21036256 -4.422576
 -4.63478944 -4.84062052 -5.04166484 -5.23632679 -5.42460639 -5.60490803
 -5.77563614 -5.93679071 -6.08518056 -6.21761451 -6.32771021 -6.41227647
 -6.46493093 -6.48088683 -6.4537618  -6.38355585 -6.2670778  -6.10751882
 -5.90966568 -5.67830516 -5.4230108  -5.15495171 -4.88370145 -4.62202472
 -4.38109067 -4.17047281 -3.99655353 -3.86571516 -3.78274449 -3.74764152
 -3.76359742 -3.82582542 -3.93113434 -4.0795242  -4.26142143 -4.47363487
 -4.70818657 -4.96188535 -5.22356207 -5.48683439 -5.74691553 -5.99263635
 -6.2192101  -6.41706324 -6.5798134  -6.7042694  -6.79043125 -6.83510776
 -6.84787248 -6.83351217 -6.80479156 -6.77447535 -6.75373268 -6.75532827
 -6.78564448 -6.85265925 -6.95637259 -7.09678449 -7.27229936 -7.47813045
 -7.70949097 -7.95999856 -8.22646206 -8.5009035  -8.78013172 -9.05776434
 -9.32582342 -9.57792661]","[-1.31232408 -1.45336866 -1.5439158  -1.57525904 -1.54217451 -1.4446622
 -1.28098083 -1.05461298 -0.7760064  -0.45212625 -0.09864414  0.27050958
  0.63792201  0.98443895  1.29787136  1.5642889   1.77672642  1.92821875
  2.01876589  2.05533301  2.04314397  1.99612911  1.92125359  1.83418903
  1.74538318  1.66005992  1.58692569  1.5259805   1.47722435  1.44065723
  1.4075727   1.37622946  1.34140364  1.29961265  1.24737392  1.18468743
  1.10981191  1.02448865  0.93220022  0.83120533  0.72672786  0.61876781
  0.50732518  0.39588254  0.2861812   0.17822115  0.07548497 -0.02376862
 -0.11257447 -0.19093257 -0.25361906 -0.29889263 -0.32501199 -0.32675328
 -0.30237521 -0.25361906 -0.17874354 -0.07600736  0.0511069   0.20259923
  0.37672834  0.57175295  0.78419047  1.00881703  1.24215004  1.47374176
  1.69140316  1.88816906  2.04662655  2.15981048  2.21727309  2.21204921
  2.14588015  2.01876589  1.83593032  1.60956247  1.34662751  1.05931447
  0.75632981  0.44637999  0.13468887 -0.17351966 -0.47476303 -0.76904124
 -1.04938911 -1.31580666 -1.56307    -1.78769656 -1.98446246 -2.14640254
 -2.27003421 -2.35361618 -2.39192459 -2.38670071 -2.33968585 -2.25784517
 -2.14814383 -2.01754699 -1.87127853 -1.71804491 -1.56307    -1.40983638
 -1.26008534 -1.11207559 -0.96754843 -0.82127997 -0.67152893 -0.51481273
 -0.34590749 -0.16307192  0.03717657  0.25135538  0.48120581  0.7197627
  0.96006088  1.19687647  1.41802045  1.62001022  1.79588063  1.94214908
  2.06403946  2.16677564  2.25732278  2.34612863  2.44364094  2.55334228
  2.67697395  2.81279466  2.95383924  3.08443608  3.19587871  3.27075423
  3.2968736   3.26727165  3.17498322  3.02000831  2.80757079  2.54463582
  2.24165116  1.91080584]",-0.28086006641282174,2.293703329510368,6.2672750000000015,-0.15600499999999862
048,1,2,csm,1a.png,1,1,40,313,41,1,1,326,neu_feedback_onset,8,"[-4.61509862e-01 -4.00442202e-01 -3.32190111e-01 -2.54957482e-01
 -1.68744314e-01 -7.17545008e-02  2.70314202e-02  1.22225126e-01
  2.08438293e-01  2.74894277e-01  3.16204753e-01  3.28777506e-01
  3.09020322e-01  2.62321523e-01  1.92273324e-01  1.06060157e-01
  1.26625590e-02 -7.89389314e-02 -1.61559884e-01 -2.29811974e-01
 -2.76510774e-01 -3.05248496e-01 -3.14229034e-01 -3.05248496e-01
 -2.83695204e-01 -2.51365266e-01 -2.13647006e-01 -1.74132637e-01
 -1.34618269e-01 -9.86961156e-02 -6.63661779e-02 -4.30167783e-02
 -2.50557018e-02 -1.24829482e-02 -8.89073289e-03 -7.09462524e-03
 -7.09462524e-03 -3.50240993e-03  5.47812835e-03  2.34392049e-02
  5.57691427e-02  1.04264049e-01  1.67127817e-01  2.47952662e-01
  3.41350260e-01  4.47320612e-01  5.62271501e-01  6.84406822e-01
  8.08338250e-01  9.32269678e-01  1.05081278e+00  1.16217146e+00
  1.26095738e+00  1.34537444e+00  1.40644210e+00  1.44595647e+00
  1.45852922e+00  1.44236425e+00  1.39746156e+00  1.32382115e+00
  1.22144301e+00  1.09212326e+00  9.37658001e-01  7.59843343e-01
  5.56883178e-01  3.30573614e-01  7.91185422e-02 -1.99278144e-01
 -5.02820338e-01 -8.29711931e-01 -1.17995292e+00 -1.54635889e+00
 -1.92354149e+00 -2.30252021e+00 -2.67790671e+00 -3.04072045e+00
 -3.38557312e+00 -3.70887250e+00 -4.01061859e+00 -4.28901527e+00
 -4.54945088e+00 -4.79012931e+00 -5.01464277e+00 -5.22658347e+00
 -5.42235921e+00 -5.60196997e+00 -5.76361966e+00 -5.89832773e+00
 -5.99890976e+00 -6.05997742e+00 -6.07075407e+00 -6.02046305e+00
 -5.90730827e+00 -5.72410529e+00 -5.47265022e+00 -5.15653527e+00
 -4.78653710e+00 -4.37522844e+00 -3.93877428e+00 -3.48974737e+00
 -3.04610878e+00 -2.61863516e+00 -2.21810315e+00 -1.84990108e+00
 -1.51223284e+00 -1.20330232e+00 -9.17721206e-01 -6.46508950e-01
 -3.82481125e-01 -1.16657192e-01  1.58147279e-01  4.45524504e-01
  7.47270590e-01  1.06338554e+00  1.39027713e+00  1.72076094e+00
  2.04585642e+00  2.35119473e+00  2.62779530e+00  2.86128930e+00
  3.03910396e+00  3.15405485e+00  3.20254975e+00  3.18458868e+00
  3.10376383e+00  2.97085187e+00  2.80022164e+00  2.60624201e+00
  2.40687406e+00  2.21469054e+00  2.04585642e+00  1.91114835e+00
  1.81595464e+00  1.76386752e+00  1.75488698e+00  1.78362471e+00
  1.85008069e+00  1.94527440e+00  2.06561361e+00  2.20571001e+00
  2.36376748e+00  2.53978603e+00  2.72837733e+00  2.93313361e+00
  3.15225874e+00  3.38216052e+00  3.62463505e+00  3.87429402e+00
  4.12574909e+00  4.37720416e+00  4.62506702e+00  4.86574544e+00
  5.09923944e+00  5.33093733e+00  5.56443132e+00  5.81049807e+00
  6.07632200e+00  6.37267977e+00  6.70675579e+00  7.08753061e+00
  7.51320813e+00  7.98378833e+00  8.49208680e+00  9.02553077e+00
  9.57154750e+00  1.01157681e+01  1.06456199e+01  1.11449378e+01
  1.16047414e+01  1.20196422e+01  1.23878443e+01  1.27075515e+01
  1.29823559e+01  1.32158499e+01  1.34116257e+01  1.35678870e+01
  1.36864301e+01  1.37582744e+01  1.37744394e+01  1.37259445e+01
  1.35966248e+01  1.33757035e+01  1.30524041e+01  1.26195422e+01
  1.20807099e+01  1.14394995e+01  1.07138720e+01  9.92178849e+00
  9.09019065e+00  8.24781616e+00  7.42340274e+00  6.64568813e+00
  5.93802171e+00  5.31477236e+00  4.79210503e+00  4.37001973e+00
  4.04851646e+00  3.82041079e+00  3.67312996e+00  3.59589733e+00
  3.57434404e+00  3.59769344e+00  3.64978056e+00  3.72701319e+00
  3.81861468e+00  3.91919671e+00  4.02696317e+00  4.13832184e+00
  4.25147663e+00  4.36463141e+00  4.47958230e+00  4.59632929e+00
  4.71128018e+00  4.82623107e+00  4.94118196e+00  5.05792896e+00
  5.17287985e+00  5.28783074e+00  5.40278163e+00  5.51773252e+00
  5.63088730e+00  5.74224598e+00  5.85360465e+00  5.95957501e+00
  6.06195314e+00  6.15714685e+00  6.24336001e+00  6.31700043e+00
  6.37627198e+00  6.41578635e+00  6.43554353e+00  6.43374743e+00
  6.40860192e+00  6.36369923e+00  6.30263157e+00  6.23258337e+00
  6.15714685e+00  6.08709865e+00  6.03141931e+00  5.99549716e+00
  5.98651662e+00  6.00806991e+00  6.05656482e+00  6.13200134e+00
  6.22719505e+00  6.33136929e+00  6.43554353e+00  6.53253335e+00
  6.61156208e+00  6.66724142e+00  6.69597914e+00  6.69957136e+00
  6.67981417e+00  6.64568813e+00  6.60078544e+00  6.55947496e+00
  6.52534892e+00  6.50738784e+00  6.51098006e+00  6.53792167e+00]","[  0.45293763   0.01730919  -0.34709483  -0.6336489   -0.84069664
  -0.96989443  -1.0278678   -1.01958589  -0.95333061  -0.8357275
  -0.67340207  -0.47132347  -0.2311481    0.04215492   0.34858557
   0.68317472   1.04095321   1.41860829   1.80620166   2.19379503
   2.5714501    2.92260307   3.23565925   3.49902398   3.69944619
   3.82864398   3.88330458   3.86177162   3.76404508   3.59840689
   3.37148257   3.08989764   2.76359041   2.40084277   2.01159302
   1.60246668   1.17677653   0.74280447   0.3005505   -0.14501624
  -0.59223935  -1.04277523  -1.49331112  -1.94219061  -2.39107011
  -2.83829323  -3.2805472   -3.71783203  -4.14849133  -4.56589957
  -4.97005676  -5.35268098  -5.71211585  -6.04173586  -6.33657184
  -6.59496741  -6.81195345  -6.98918631  -7.12666601  -7.22439254
  -7.28567867  -7.31218078  -7.30721164  -7.274084    -7.20782872
  -7.11010219  -6.97593526  -6.80367154  -6.58502912  -6.3216644
  -6.0102646   -5.65911163  -5.27483103  -4.87233022  -4.46817304
  -4.0872052   -3.74599052  -3.46606198  -3.26067062  -3.13644198
  -3.09668881  -3.13644198  -3.24245042  -3.40311946  -3.60354168
  -3.82715323  -4.06235947  -4.2975657   -4.52449002  -4.73650691
  -4.93030359  -5.09925455  -5.24004701  -5.34771183  -5.41562349
  -5.44046922  -5.41727987  -5.34439907  -5.22348319  -5.05950138
  -4.86073555  -4.64043675  -4.4168252   -4.20646469  -4.03088821
  -3.9033468   -3.83709153  -3.84537344  -3.92819253  -4.0872052
  -4.3157859   -4.60565273  -4.94852379  -5.33114801  -5.74358711
  -6.17424641  -6.614844    -7.05378521  -7.48610089  -7.90185275
  -8.29772802  -8.66710119  -9.00665948  -9.31474652  -9.58970592
  -9.83153768 -10.0402418  -10.21913105 -10.36820542 -10.49243406
 -10.58684783 -10.65310311 -10.68788713 -10.68623075 -10.63985205
 -10.54709466 -10.39636391 -10.18765979  -9.91601315  -9.58473677]",10.040511208160817,1.105013785238489,5.567594999999999,0.39029999999999987
048,1,2,csm,25a.png,1,1,8,3,9,1,1,405,neu_feedback_onset,9,"[ 1.98945588e+00  1.98614012e+00  1.95464041e+00  1.88666733e+00
  1.78056302e+00  1.63135382e+00  1.43903976e+00  1.20196293e+00
  9.23439106e-01  6.05126165e-01  2.55313505e-01 -1.24340993e-01
 -5.22232170e-01 -9.33386385e-01 -1.34951424e+00 -1.76398422e+00
 -2.17182267e+00 -2.56474021e+00 -2.93776319e+00 -3.28591797e+00
 -3.60091515e+00 -3.87612321e+00 -4.09827912e+00 -4.25743559e+00
 -4.33867171e+00 -4.32872443e+00 -4.21930435e+00 -4.00212209e+00
 -3.67717763e+00 -3.24944461e+00 -2.73550184e+00 -2.15524387e+00
 -1.53851255e+00 -9.16807586e-01 -3.26602341e-01  1.98945588e-01
  6.31652243e-01  9.48307305e-01  1.13067409e+00  1.17377897e+00
  1.07596406e+00  8.50492390e-01  5.10627010e-01  7.95782354e-02
 -4.24417255e-01 -9.74833383e-01 -1.55177559e+00 -2.14032296e+00
 -2.72389668e+00 -3.29752313e+00 -3.85457077e+00 -4.39338174e+00
 -4.91229815e+00 -5.41132000e+00 -5.89210518e+00 -6.35465367e+00
 -6.79730760e+00 -7.21840910e+00 -7.61630028e+00 -7.98766537e+00
 -8.33416227e+00 -8.65081733e+00 -8.93763056e+00 -9.19625982e+00
 -9.42670513e+00 -9.62896648e+00 -9.80635963e+00 -9.95888458e+00
 -1.00898571e+01 -1.01959614e+01 -1.02788554e+01 -1.03302497e+01
 -1.03484864e+01 -1.03203024e+01 -1.02390663e+01 -1.00898571e+01
 -9.86106966e+00 -9.54607248e+00 -9.13491827e+00 -8.62594914e+00
 -8.02579661e+00 -7.34440797e+00 -6.59836201e+00 -5.80589542e+00
 -4.99353427e+00 -4.18283100e+00 -3.39699592e+00 -2.65426572e+00
 -1.96790345e+00 -1.34785636e+00 -8.00755993e-01 -3.28260221e-01
  7.12888358e-02  3.99549057e-01  6.56520442e-01  8.42202991e-01
  9.58254584e-01  1.00301734e+00  9.74833383e-01  8.73702709e-01
  7.02941079e-01  4.65864253e-01  1.77393150e-01 -1.49209191e-01
 -4.94048211e-01 -8.33913591e-01 -1.14393713e+00 -1.40422428e+00
 -1.59653835e+00 -1.70927418e+00 -1.73745814e+00 -1.68109022e+00
 -1.55343347e+00 -1.36940880e+00 -1.14559501e+00 -9.06860307e-01
 -6.69783481e-01 -4.52601214e-01 -2.71892304e-01 -1.32630392e-01
 -3.81312378e-02  1.32630392e-02  2.98418383e-02  2.32103186e-02
  4.97363971e-03 -9.94727942e-03 -1.16051593e-02  1.16051593e-02
  6.46573162e-02  1.50867071e-01  2.68576544e-01  4.12812096e-01
  5.73626447e-01  7.39414437e-01  9.00228787e-01  1.04612222e+00
  1.16548957e+00  1.25335721e+00  1.30972512e+00  1.33127756e+00
  1.32796180e+00  1.30143572e+00  1.26164661e+00  1.21688385e+00
  1.17046321e+00  1.13067409e+00  1.09751650e+00  1.07264830e+00
  1.05772738e+00  1.05109586e+00  1.05275374e+00  1.06435890e+00
  1.08756922e+00  1.12570045e+00  1.18372625e+00  1.26330449e+00
  1.36609304e+00  1.49540767e+00  1.64627474e+00  1.81372061e+00
  1.99442952e+00  2.17679631e+00  2.35418946e+00  2.51500381e+00
  2.65592360e+00  2.77197520e+00  2.86150071e+00  2.92284227e+00
  2.96263139e+00  2.98086807e+00  2.98584171e+00  2.97921019e+00
  2.96594715e+00  2.94936835e+00  2.93113167e+00  2.91455287e+00
  2.89631619e+00  2.87973739e+00  2.86315859e+00  2.84823767e+00
  2.83331675e+00  2.81839584e+00  2.80513280e+00  2.79021188e+00
  2.77694884e+00  2.76202792e+00  2.74876488e+00  2.73384396e+00
  2.72058092e+00  2.70566000e+00  2.69239696e+00  2.67747604e+00
  2.66421300e+00  2.64929209e+00  2.63602905e+00  2.62110813e+00
  2.60784509e+00  2.59458205e+00  2.57966113e+00  2.56639809e+00
  2.55147717e+00  2.53821413e+00  2.52329321e+00  2.51003017e+00
  2.49510925e+00  2.48184622e+00  2.46692530e+00  2.45366226e+00
  2.44039922e+00  2.42547830e+00  2.41221526e+00  2.39729434e+00
  2.38403130e+00  2.36911038e+00  2.35584734e+00  2.34092642e+00
  2.32766338e+00  2.31274246e+00  2.29947943e+00  2.28621639e+00
  2.27129547e+00  2.25803243e+00  2.24311151e+00  2.22984847e+00
  2.21492755e+00  2.20166451e+00  2.18674359e+00  2.17348055e+00
  2.15855963e+00  2.14529659e+00  2.13203356e+00  2.11711264e+00
  2.10384960e+00  2.08892868e+00  2.07566564e+00  2.06074472e+00
  2.04748168e+00  2.03256076e+00  2.01929772e+00  2.00437680e+00
  1.99111376e+00  1.97785072e+00  1.96292981e+00  1.94966677e+00
  1.93474585e+00  1.92148281e+00  1.90656189e+00  1.89329885e+00
  1.87837793e+00  1.86511489e+00  1.85019397e+00  1.83693093e+00
  1.82366789e+00  1.80874697e+00  1.79548394e+00  1.78056302e+00
  1.76729998e+00  1.75237906e+00  1.73911602e+00  1.72419510e+00]","[ 0.7507566   0.7955185   0.79717635  0.76070369  0.68775837  0.58165607
  0.44405467  0.28158553  0.09756437 -0.09640388 -0.29202998 -0.47107759
 -0.62194179 -0.72638623 -0.77446383 -0.7529118  -0.6600723  -0.50091886
 -0.28042504 -0.02014286  0.26169135  0.53689417  0.78059787  0.96959258
  1.08232626  1.10885183  1.0425379   0.88670016  0.64962785  0.34458377
 -0.00688007 -0.38818518 -0.77777953 -1.16074248 -1.52381126 -1.85869662
 -2.15876716 -2.42568073 -2.66109519 -2.86666838 -3.04903169 -3.21150083
 -3.36236502 -3.50328213 -3.63756784 -3.76688    -3.89453432 -4.01887294
 -4.14321157 -4.26589234 -4.38691527 -4.5046225  -4.61735618 -4.72511632
 -4.82624506 -4.91411102 -4.99037205 -5.05171243 -5.09647434 -5.12134206
 -5.13128915 -5.12299991 -5.10310573 -5.07326446 -5.03844965 -5.00529268
 -4.97545141 -4.95555723 -4.94892584 -4.95555723 -4.97876711 -5.01523977
 -5.06829092 -5.132947   -5.20755017 -5.29044259 -5.3799664  -5.4728059
 -5.56730325 -5.66345845 -5.75629796 -5.84747961 -5.93534557 -6.01823799
 -6.09449901 -6.16578649 -6.23210042 -6.29178296 -6.34980765 -6.40285879
 -6.45259424 -6.49901399 -6.5437759  -6.58522211 -6.62003692 -6.64987819
 -6.66977237 -6.67971946 -6.67640376 -6.65485173 -6.61340553 -6.5437759
 -6.4409893  -6.2967565  -6.10278825 -5.84913746 -5.53083059 -5.14289409
 -4.68532796 -4.15979005 -3.5745696  -2.9429294  -2.27979008 -1.60173013
 -0.93030157 -0.28042504  0.33132098  0.89001586  1.38902819  1.82006875
  2.18313753  2.47491883  2.6970705   2.85290824  2.94243205  2.97061547
  2.9374585   2.844619    2.69541265  2.49647086  2.25276716  1.97424864
  1.6741781   1.36747617  1.07072132  0.80546559  0.58662962  0.43244973
  0.35121516  0.35287301]",2.4050863755429632,0.15473645481694748,6.0318,-0.3530849999999983
048,1,2,csp,32b.png,1,1,52,310,50,1,1,371,pos_feedback_onset,10,"[ 0.09373261  0.5298496   0.892738    1.16937938  1.34675532  1.42323853
  1.4020836   1.28979974  1.09777808  0.84391893  0.53798612  0.19625265
 -0.16663575 -0.53928796 -0.90868556 -1.26343745 -1.5937798  -1.8883215
 -2.13567144 -2.3276931  -2.45787728 -2.52134207 -2.51808746 -2.45136807
 -2.32932041 -2.15845367 -1.95341359 -1.72233668 -1.47661404 -1.22438219
 -0.97215035 -0.7199185  -0.46931396 -0.22196402  0.02213131  0.26459934
  0.49730356  0.72024397  0.92365674  1.10265999  1.24423528  1.34512802
  1.39394709  1.39069248  1.3304823   1.21494384  1.04733171  0.83903703
  0.5981963   0.33945524  0.07583228 -0.17639956 -0.40259457 -0.58973433
 -0.72642771 -0.80779282 -0.82894775 -0.7915198  -0.70039088 -0.56369749
 -0.39771266 -0.21382751 -0.02994236  0.13766977  0.27436316  0.37037399
  0.41593845  0.41431115  0.36711938  0.28738157  0.18974344  0.09535991
  0.01887671 -0.02180585 -0.01529664  0.04816815  0.1637066   0.32969143
  0.5298496   0.75441731  0.98223962  1.20029812  1.39557439  1.55993191
  1.68686149  1.77636311  1.83331869  1.86098283  1.86586473  1.85284631
  1.82518218  1.78287232  1.72591674  1.64943354  1.5469135   1.41835662
  1.2556264   1.06197743  0.83740973  0.59005979  0.32969143  0.06932307
 -0.17639956 -0.39120346 -0.56369749 -0.68249055 -0.73944613 -0.73456422
 -0.66947214 -0.55718828 -0.40584918 -0.23335514 -0.05435189  0.11488754
  0.26134474  0.3768832   0.456621    0.49893086  0.50544007  0.48265784
  0.43709338  0.37525589  0.3069092   0.2353079   0.16696121  0.10186912
  0.04491354 -0.00878743 -0.0592338  -0.10805287 -0.15849924 -0.21220021
 -0.27078309 -0.33262057 -0.39933997 -0.46931396 -0.54091526 -0.61251656
 -0.67923595 -0.74107343 -0.7931471  -0.83382966 -0.8598665  -0.86800301
 -0.85335729 -0.81592934 -0.75246455 -0.66133562 -0.54254256 -0.39445806
 -0.22359133 -0.02994236  0.17997963  0.39966543  0.62260583  0.84391893
  1.05384092  1.25074449  1.42812043  1.58434145  1.71615293  1.82518218
  1.90980189  1.97326668  2.01557654  2.03835877  2.04161337  2.02859495
  2.00093082  1.95699366  1.89841078  1.82843678  1.74381707  1.64780623
  1.53552238  1.41022011  1.26864482  1.1107965   0.93504786  0.7446535
  0.53798612  0.31992762  0.090478   -0.14710812 -0.38794885 -0.63204418
 -0.87776682 -1.12023485 -1.36270288 -1.60191631 -1.84112974 -2.07708856
 -2.31304738 -2.5473789  -2.78008312 -3.01441464 -3.24711886 -3.47819578
 -3.70927269 -3.93709501 -4.16166271 -4.38134851 -4.5912705  -4.78654677
 -4.96229541 -5.10875261 -5.21940916 -5.27961934 -5.28124664 -5.21127265
 -5.05830624 -4.81583821 -4.48061395 -4.04937886 -3.52864215 -2.92816763
 -2.26097371 -1.54658804 -0.80453822 -0.0576065   0.6714249   1.35977374
  1.9879124   2.54282246  3.0147401   3.39552882  3.68844323  3.89673791
  4.03017669  4.10177799  4.12293292  4.1082872   4.06923195  4.01878558
  3.9634573   3.90812903  3.85930996  3.8153728   3.77794485  3.74702611
  3.72098927  3.70146164  3.68844323  3.68681592  3.69495243  3.71773467
  3.75841722  3.8186274   3.89673791  3.99600335  4.11316911  4.24660789
  4.39306509  4.5509134   4.71364363  4.87800115  5.04073137  5.19857969
  5.34503689  5.47847567]","[-2.36879923 -1.98153419 -1.56396145 -1.13460238 -0.71534588 -0.32808084
  0.01203889  0.28985946  0.49864584  0.638398    0.71416725  0.7377399
  0.72258605  0.68554331  0.64344929  0.60977406  0.59293645  0.60303902
  0.64008176  0.70406468  0.78488521  0.87917583  0.97178269  1.05428698
  1.11321862  1.1401588   1.12837247  1.07280835  0.97346645  0.83539805
  0.66365442  0.46833814  0.26291929  0.05750044 -0.13781584 -0.31461075
 -0.46783301 -0.59411509 -0.69682451 -0.77596128 -0.83489292 -0.87698694
 -0.90729464 -0.92918354 -0.94433739 -0.95275619 -0.95780747 -0.95780747
 -0.95275619 -0.9392861  -0.91571345 -0.88035447 -0.82984163 -0.76249119
 -0.67830314 -0.57727748 -0.46614925 -0.3516535  -0.24220903 -0.14791841
 -0.08056797 -0.05362779 -0.0704654  -0.14118336 -0.26409792 -0.43920907
 -0.66146553 -0.92413225 -1.2204742  -1.54207256 -1.88219229 -2.23578211
 -2.59779074 -2.96148312 -3.32685927 -3.6888679  -4.04077396 -4.38089369
 -4.70249205 -5.00051776 -5.27160329 -5.50732983 -5.7076974  -5.86933846
 -5.99225302 -6.07812483 -6.12863766 -6.14547527 -6.13200518 -6.08991116
 -6.02087695 -5.92321881 -5.79693673 -5.63866319 -5.4483982  -5.22614174
 -4.97526134 -4.69912453 -4.41120139 -4.12159449 -3.84545768 -3.59962856
 -3.39589348 -3.24603874 -3.15848317 -3.13659427 -3.17700454 -3.27466268
 -3.42451741 -3.61309865 -3.83198759 -4.07276542 -4.32364581 -4.57452621
 -4.8169878  -5.03924426 -5.23119302 -5.38273152 -5.48038966 -5.51406488
 -5.47533837 -5.35915886 -5.1672101  -4.90454338 -4.57957749 -4.21083382
 -3.81683374 -3.42283365 -3.0490387  -2.71565401 -2.44288472 -2.23914963
 -2.10950003 -2.05730344 -2.07077353 -2.14149149 -2.25261972 -2.38732061
 -2.52370525 -2.64830357]",4.256449192447404,0.2922588243811897,6.14514,-0.6244399999999999
048,1,2,csp,9b.png,1,1,312,306,302,1,1,411,pos_feedback_onset,11,"[-1.84325355 -1.4749544  -1.07149942 -0.65465174 -0.2461745   0.128821
  0.4519198   0.70303286  0.87211565  0.95582001  0.95247183  0.87044157
  0.72479599  0.53227598  0.31297058  0.090317   -0.1172698  -0.28970077
 -0.41525729 -0.48222078 -0.48556895 -0.4269759  -0.3114639  -0.14572928
  0.05850934  0.28953336  0.53729824  0.7884113   1.0345021   1.26552611
  1.47813517  1.66228474  1.81630075  1.93181276  2.00547259  2.03225798
  2.00714668  1.92511641  1.7844931   1.58192857  1.31742281  0.99599809
  0.61765442  0.19243631 -0.27295989 -0.77016375 -1.28745665 -1.81479407
 -2.33543515 -2.83598718 -3.30305747 -3.71823106 -4.06811525 -4.33931736
 -4.51844467 -4.60047494 -4.58373407 -4.47324432 -4.27905022 -4.01956673
 -3.71488289 -3.38676182 -3.05696667 -2.74726057 -2.4710362  -2.24001219
 -2.06255896 -1.9403506  -1.87171303 -1.85162399 -1.87171303 -1.92360973
 -2.00061774 -2.09101844 -2.18978958 -2.28521254 -2.37561324 -2.45596942
 -2.52125881 -2.57315551 -2.60831134 -2.6267263  -2.63007447 -2.62002995
 -2.59659273 -2.55976282 -2.51456246 -2.46266577 -2.40742089 -2.35385011
 -2.30530158 -2.27014575 -2.24838262 -2.24670854 -2.26512349 -2.30195341
 -2.35552419 -2.41746542 -2.48108072 -2.53967377 -2.58320003 -2.60328908
 -2.59826682 -2.5614369  -2.49447342 -2.39905046 -2.28353845 -2.15295966
 -2.01735861 -1.88677982 -1.76959372 -1.67584485 -1.61055545 -1.5787478
 -1.58377006 -1.62394815 -1.69760798 -1.80474955 -1.93867652 -2.09269253
 -2.26177532 -2.43588037 -2.60831134 -2.7690237  -2.9113211  -3.02850719
 -3.11221154 -3.16243416 -3.17415277 -3.15071555 -3.0921225  -3.00339589
 -2.88788388 -2.75228283 -2.59659273 -2.42248768 -2.22996767 -2.01735861
 -1.77963825 -1.5134584  -1.217145   -0.88902393 -0.5307693  -0.14907745
  0.24768118  0.64778799  1.03282801  1.38773447  1.6940924   1.93683502
  2.10256964  2.18459991  2.17957764  2.0941992   1.93850911  1.72924823
  1.48985378  1.24041481  1.00436853  0.80347808  0.65615842  0.57412816
  0.56073546  0.62100259  0.74823321  0.9307087   1.16005863  1.41954212
  1.69074422  1.96362041  2.21808165  2.44575749  2.63492932  2.7805749
  2.87599786  2.92454639  2.92454639  2.88102012  2.80066394  2.68850011
  2.54955088  2.39051261  2.21808165  2.03393207  1.84476023  1.64889205
  1.45134977  1.25045933  1.04956888  0.84700435  0.6461139   0.44354937
  0.24098483  0.0384203  -0.16414424 -0.36503468 -0.56759922 -0.77016375
 -0.97272828 -1.17361873 -1.37618327 -1.57707371 -1.77629007 -1.97550643
 -2.16970053 -2.36054646 -2.54134786 -2.71377882 -2.86946892 -3.00506997
 -3.11555972 -3.19424181 -3.23776807 -3.24111625 -3.20428633 -3.12393015
 -3.00506997 -2.85105396 -2.66690439 -2.4576435  -2.23331584 -2.00229183
 -1.76959372 -1.54359197 -1.332657   -1.14013699 -0.9710542  -0.82708271
 -0.70989662 -0.61447365 -0.53746565 -0.47217625 -0.41023503 -0.34494564
 -0.27128581 -0.18255919 -0.0787658   0.04176847  0.17402135  0.31631875
  0.46363841  0.61095807  0.75325547  0.88885652  1.01273897  1.12657689
  1.23037028  1.32244507  1.40614942  1.48315743  1.55346909  1.61708439
  1.67400335  1.72255188  1.76105588  1.7844931   1.79118945  1.77444858
  1.7325964   1.66061066]","[-0.41000089 -0.43288138 -0.45048177 -0.45752192 -0.45400184 -0.43640146
 -0.40296074 -0.35367967 -0.28679822 -0.20583646 -0.11255444 -0.00871219
  0.10217022  0.2165727   0.33097518  0.44361762  0.55626006  0.66714246
  0.78330498  0.91178777  1.05963097  1.23387475  1.44155925  1.6879646
  1.97661085  2.30397795  2.66478577  3.04847409  3.44624271  3.8422513
  4.22417958  4.57970729  4.89651416  5.16403996  5.37876461  5.53540801
  5.63045007  5.66213075  5.63221011  5.54244816  5.39636499  5.19924072
  4.95987553  4.68706962  4.39314324  4.09393676  3.80001038  3.52544443
  3.27727905  3.06431443  2.88831062  2.7492676   2.64366531  2.56622364
  2.51342249  2.47470165  2.45006112  2.43422077  2.42190051  2.41486035
  2.41134028  2.41486035  2.42542058  2.444781    2.47998177  2.52926283
  2.59438425  2.675346    2.76862802  2.86719016  2.96399226  3.04671405
  3.10655535  3.13119588  3.11007543  3.0396739   2.91471119  2.73870738
  2.51342249  2.24765673  1.95197032  1.63868353  1.31835658  1.00682983
  0.71818357  0.46297804  0.25881361  0.11273044  0.03352873  0.02824861
  0.09513006  0.230653    0.42249716  0.66010231  0.92410803  1.19867399
  1.46795983  1.71436517  1.92908982  2.10685368  2.24413665  2.34621887
  2.41662039  2.4676615   2.5046223   2.53630299  2.57150375  2.61198463
  2.65774562  2.70878673  2.76158787  2.8091089   2.84958978  2.87423031
  2.8830305   2.87599035  2.85134982  2.81438902  2.76862802  2.71406684
  2.65422554  2.59086417  2.52222268  2.44654104  2.36029917  2.25821696
  2.13677433  1.99597127  1.83404776  1.65628391  1.46619979  1.27083555
  1.08075143  0.90122754  0.74106407  0.60730117  0.50169888  0.42953731
  0.3872964   0.36969602]",1.5563987374035477,3.4498947937191047,5.973405,-0.15658999999999956
048,1,2,csm,38a.png,1,0,56,135,55,1,1,502,neu_feedback_onset,12,"[-1.15994104e-01 -5.66888480e-02  4.36068062e-03  6.36659370e-02
  1.17738377e-01  1.66577999e-01  2.03207717e-01  2.24138984e-01
  2.27627528e-01  2.10184806e-01  1.73555088e-01  1.17738377e-01
  4.97117590e-02 -2.52919476e-02 -1.00295654e-01 -1.70066544e-01
 -2.27627528e-01 -2.69490062e-01 -2.92165601e-01 -3.00886962e-01
 -2.93909873e-01 -2.79955695e-01 -2.64257245e-01 -2.50303067e-01
 -2.43325978e-01 -2.41581706e-01 -2.46814523e-01 -2.53791612e-01
 -2.55535884e-01 -2.48558795e-01 -2.25883256e-01 -1.80532177e-01
 -1.09017015e-01 -1.13377696e-02  1.09017015e-01  2.53791612e-01
  4.14264658e-01  5.86947611e-01  7.64863380e-01  9.46267693e-01
  1.12418346e+00  1.29686641e+00  1.46257228e+00  1.62130105e+00
  1.77130847e+00  1.91259452e+00  2.04515921e+00  2.17074681e+00
  2.28935732e+00  2.40099075e+00  2.50913563e+00  2.61902478e+00
  2.73065820e+00  2.84926871e+00  2.97485632e+00  3.11265382e+00
  3.25742842e+00  3.40918010e+00  3.55918752e+00  3.70396211e+00
  3.83129399e+00  3.93420605e+00  4.00572121e+00  4.04060666e+00
  4.03537384e+00  3.99176703e+00  3.91501906e+00  3.81036272e+00
  3.68651939e+00  3.55221043e+00  3.41441292e+00  3.28184823e+00
  3.15626063e+00  3.03939439e+00  2.92950524e+00  2.82833745e+00
  2.73240247e+00  2.64170032e+00  2.55971952e+00  2.48820436e+00
  2.43413192e+00  2.40099075e+00  2.39226939e+00  2.41668920e+00
  2.47250591e+00  2.56320807e+00  2.68879567e+00  2.84403590e+00
  3.02718448e+00  3.23475288e+00  3.46325254e+00  3.70396211e+00
  3.95688159e+00  4.21677815e+00  4.47493045e+00  4.72959420e+00
  4.97553658e+00  5.20229197e+00  5.40637183e+00  5.58079905e+00
  5.72208510e+00  5.82674144e+00  5.89302378e+00  5.92442068e+00
  5.92267641e+00  5.89476806e+00  5.84767270e+00  5.78836745e+00
  5.72557365e+00  5.66975694e+00  5.62266159e+00  5.59300896e+00
  5.58079905e+00  5.59126468e+00  5.61917304e+00  5.66277985e+00
  5.71510801e+00  5.76918045e+00  5.81627580e+00  5.84418416e+00
  5.84767270e+00  5.81453153e+00  5.73952783e+00  5.61917304e+00
  5.45172290e+00  5.23543315e+00  4.97379231e+00  4.67028894e+00
  4.33190012e+00  3.96560295e+00  3.58186306e+00  3.19114607e+00
  2.80566191e+00  2.43936474e+00  2.10620874e+00  1.82014809e+00
  1.58990415e+00  1.42245402e+00  1.32303050e+00  1.29163360e+00
  1.32477477e+00  1.41198838e+00  1.54629735e+00  1.71025894e+00
  1.89340752e+00  2.08178893e+00  2.26319324e+00  2.42366629e+00
  2.55797525e+00  2.65391022e+00  2.70798266e+00  2.71670402e+00
  2.67833003e+00  2.59286069e+00  2.46552882e+00  2.30156723e+00
  2.11318583e+00  1.91085025e+00  1.70851466e+00  1.52187753e+00
  1.36314876e+00  1.24279398e+00  1.17127881e+00  1.15383609e+00
  1.18523299e+00  1.26372524e+00  1.37884721e+00  1.51838899e+00
  1.67014068e+00  1.82014809e+00  1.95968987e+00  2.07655611e+00
  2.16900254e+00  2.23179634e+00  2.26493751e+00  2.26842606e+00
  2.24749479e+00  2.20214371e+00  2.13586137e+00  2.05213630e+00
  1.94922423e+00  1.82886945e+00  1.69281621e+00  1.54455307e+00
  1.38582430e+00  1.22186271e+00  1.05615684e+00  8.97428071e-01
  7.52653474e-01  6.28810145e-01  5.34619443e-01  4.73569915e-01
  4.50894376e-01  4.68337098e-01  5.27642354e-01  6.27065872e-01
  7.64863380e-01  9.32313515e-01  1.12592773e+00  1.33872895e+00
  1.56374007e+00  1.79223973e+00  2.01899512e+00  2.24051770e+00
  2.45331891e+00  2.65739877e+00  2.84926871e+00  3.03416157e+00
  3.21207734e+00  3.38476029e+00  3.55221043e+00  3.71791629e+00
  3.88362216e+00  4.04758375e+00  4.21154534e+00  4.37725120e+00
  4.54121279e+00  4.70517438e+00  4.87088025e+00  5.03484184e+00
  5.20054770e+00  5.36450929e+00  5.52847088e+00  5.69068820e+00
  5.85116125e+00  6.00640148e+00  6.15815316e+00  6.30118349e+00
  6.43200391e+00  6.54538160e+00  6.63608376e+00  6.69713329e+00
  6.72329737e+00  6.70585465e+00  6.63957230e+00  6.52096179e+00
  6.34827884e+00  6.12326772e+00  5.85116125e+00  5.54416933e+00
  5.21450188e+00  4.87785734e+00  4.55167843e+00  4.25689642e+00
  4.00920976e+00  3.82257263e+00  3.70570639e+00  3.66209958e+00
  3.69000794e+00  3.77722155e+00  3.91153051e+00  4.07200356e+00
  4.23596515e+00  4.37899547e+00  4.48016326e+00  4.52028153e+00
  4.48365181e+00  4.36504130e+00  4.16270572e+00  3.88362216e+00]","[-1.42731985 -1.47112506 -1.48025115 -1.45469811 -1.39081551 -1.28677813
 -1.14076075 -0.95276338 -0.72278601 -0.45265387 -0.15149303  0.17704607
  0.51836169  0.8596773   1.18456596  1.47660072  1.72117982  1.90552676
  2.02234066  2.06614587  2.04424326  1.96028327  1.83251807  1.67372417
  1.50215376  1.33423377  1.18274075  1.06045119  0.97284077  0.91808425
  0.89618165  0.89983208  0.9235599   0.96006425  1.00204424  1.04584946
  1.08782945  1.12615901  1.16083814  1.19186683  1.22289552  1.252099
  1.28130247  1.31233117  1.34518508  1.38168942  1.4218442   1.46747463
  1.52223115  1.58976418  1.67372417  1.77958677  1.91100241  2.07344674
  2.26874498  2.49872235  2.75972841  3.04811273  3.35657443  3.67051179
  3.97714828  4.26370738  4.51741257  4.72366212  4.87332993  4.96094035
  4.98101774  4.93538731  4.82404906  4.65430386  4.42980215  4.16149522
  3.85850916  3.52449441  3.17040228  2.80353362  2.42753888  2.04971892
  1.67189896  1.29955465  0.93451121  0.58224429  0.24640432 -0.07300869
 -0.36869387 -0.64247645 -0.89070599 -1.11338249 -1.31050595 -1.48390158
 -1.63539461 -1.77046068 -1.88727459 -1.99313718 -2.08804848 -2.1756589
 -2.25779368 -2.33262758 -2.40381105 -2.46769366 -2.52427539 -2.57173104
 -2.60641016 -2.62648755 -2.6319632  -2.6210119  -2.59545886 -2.55530408
 -2.50602322 -2.45309192 -2.40381105 -2.36548149 -2.34175367 -2.33992845
 -2.36000584 -2.40563627 -2.47134409 -2.55530408 -2.65386581 -2.75972841
 -2.86924144 -2.97692925 -3.0773162  -3.16310141 -3.23063445 -3.27261444
 -3.28356574 -3.25253705 -3.17405271 -3.04446229 -2.8546397  -2.60641016
 -2.30159889 -1.94020588 -1.53135723 -1.08417902 -0.60779733 -0.11316347
  0.39059648  0.89253121]",5.202291973731253,2.6957089143607815,5.73305,0.027000000000000135
048,1,2,csp,10b.png,1,1,124,123,124,1,1,292,pos_feedback_onset,13,"[ -1.91688759  -1.69662657  -1.43055126  -1.12923419  -0.80324788
  -0.47021322  -0.14951318   0.14123136   0.38968579   0.58527758
   0.72272045   0.80201442   0.83020783   0.81611112   0.77029683
   0.70157539   0.61523308   0.51831823   0.41083085   0.29277095
   0.16413851   0.01964728  -0.13894065  -0.3098632   -0.48607201
  -0.66228083  -0.82615503  -0.97064625  -1.08694407  -1.16976222
  -1.21910068  -1.23495948  -1.22614904  -1.2014798   -1.16976222
  -1.13980672  -1.11689957  -1.10456495  -1.10280287  -1.10808913
  -1.11513748  -1.11689957  -1.10456495  -1.07460946  -1.02527099
  -0.95478746  -0.86668305  -0.76976821  -0.66756709  -0.57065225
  -0.48607201  -0.42263684  -0.38915717  -0.38739508  -0.42439893
  -0.50016872  -0.6217528   -0.78738909  -0.99707758  -1.25081827
  -1.54684908  -1.87812165  -2.23758763  -2.61819867  -3.01114433
  -3.40585207  -3.79703564  -4.18117085  -4.55473354  -4.92124788
  -5.2895243   -5.66837325  -6.07012935  -6.50184094  -6.97584265
  -7.49389657  -8.05776477  -8.65863683  -9.28417812  -9.91324359
 -10.52645026 -11.09736682 -11.6066103  -12.03303563 -12.36254611
 -12.58809339 -12.70967748 -12.73258462 -12.66914945 -12.52994449
 -12.3343527  -12.0964708  -11.8286334  -11.54317512 -11.24714432
 -10.94582724 -10.63922391 -10.3273343  -10.01368261  -9.69650675
  -9.37756879  -9.06215502  -8.75555168  -8.46656922  -8.20578018
  -7.98375707  -7.81283452  -7.70534714  -7.66834329  -7.70887132
  -7.8304554   -8.03133345  -8.30445711  -8.64277804  -9.03043743
  -9.45510067  -9.89386062 -10.33085848 -10.74671128 -11.12556023
 -11.45683281 -11.72819438 -11.93612078 -12.08061201 -12.16343015
 -12.18809939 -12.16166806 -12.09118454 -11.98369716 -11.8444922
 -11.67709382 -11.48326413 -11.2647652  -11.02512121 -10.76433216
 -10.48416015 -10.18812934  -9.88328809  -9.58020893  -9.2877023
  -9.01634072  -8.78022091  -8.58815331  -8.44718625  -8.35908185
  -8.32384008  -8.33088844  -8.37317855  -8.43308955  -8.49300055
  -8.54233901  -8.56348407  -8.54762528  -8.49300055  -8.3960857
  -8.26392909  -8.10005489  -7.91327355  -7.70887132  -7.49389657
  -7.27011137  -7.04103991  -6.8049201   -6.56175194  -6.31153542
  -6.05250846  -5.78995733  -5.52211993  -5.25780671  -4.99877975
  -4.75032533  -4.5159676   -4.29923076  -4.10363898  -3.9362406
  -3.80055982  -3.70188288  -3.64902023  -3.64549606  -3.70012079
  -3.81465652  -3.98734116  -4.21465053  -4.48248793  -4.77675665
  -5.07631163  -5.35648365  -5.59260346  -5.76176392  -5.84986833
  -5.84458206  -5.74414304  -5.55383752  -5.2895243   -4.96530008
  -4.60935827  -4.24108185  -3.88514005  -3.55739165  -3.27369546
  -3.04109982  -2.86489101  -2.74154484  -2.66577505  -2.6287712
  -2.61996076  -2.62700911  -2.64462999  -2.66048879  -2.67458549
  -2.68692011  -2.69925472  -2.72216187  -2.76445199  -2.84022178
  -2.96180586  -3.13977676  -3.38118284  -3.68778617  -4.05430051
  -4.47015331  -4.91596161  -5.36881826  -5.80405404  -6.1952376
  -6.51769973  -6.75205746  -6.88597616  -6.91416957  -6.84192395
  -6.67452558  -6.42959533  -6.1212299   -5.76881227  -5.38820123
  -4.9917314   -4.59526157  -4.20760218  -3.83580158  -3.48867021
  -3.17325644  -2.89837069  -2.67106131  -2.50190085  -2.39793765
  -2.36445798  -2.40674809  -2.52304591  -2.70982725  -2.96180586
  -3.26664711  -3.60673012  -3.97148237  -4.34152088  -4.70098686
  -5.03930778  -5.34414903  -5.61022434  -5.82872327  -6.00317   ]","[-2.36764724 -2.37115409 -2.34134589 -2.26770212 -2.13093512 -1.92578461
 -1.64699034 -1.29455229 -0.88249786 -0.42134758  0.06785747  0.56232279
  1.03750046  1.47585624  1.8598559   2.17722549  2.4209513   2.59454019
  2.701499    2.75234827  2.75936196  2.73656746  2.69273189  2.63837577
  2.57700596  2.51037588  2.43673211  2.34906095  2.24210214  2.10884199
  1.94577364  1.74763682  1.51618497  1.2531715   0.96561011  0.65876107
  0.3431449   0.02928217 -0.27406003 -0.559868   -0.82112805 -1.0525799
 -1.25247013 -1.42255218 -1.5610726  -1.67329168 -1.76271626 -1.83285319
 -1.88545588 -1.92403119 -1.94682569 -1.95208596 -1.939812   -1.90123669
 -1.83285319 -1.72940122 -1.58036026 -1.38222345 -1.13148394 -0.82638832
 -0.47044342 -0.07241637  0.35717229  0.79903492  1.23563727  1.64418486
  2.00539002  2.29645826  2.50160877  2.61207442  2.61908811  2.52440327
  2.33854042  2.07026668  1.74237655  1.37065085  0.97788407  0.58336387
  0.19761079 -0.16359438 -0.49499135 -0.7948267  -1.06310044 -1.30331941
 -1.51723703 -1.71011357 -1.88545588 -2.04501739 -2.1905515  -2.32556508
 -2.45181155 -2.5692909  -2.68150998 -2.78846879 -2.8954276  -3.00413983
 -3.11635891 -3.23208484 -3.35482446 -3.48457777 -3.61783792 -3.7528515
 -3.88786508 -4.0176184  -4.14035801 -4.24731682 -4.3367414  -4.40512491
 -4.45071391 -4.47350841 -4.47526183 -4.46474129 -4.45071391 -4.44194679
 -4.45246733 -4.48928921 -4.55942614 -4.6698918  -4.81717934 -4.9960285
 -5.19767216 -5.40983635 -5.62200055 -5.82189079 -6.00073994 -6.15328776
 -6.27602737 -6.3689588  -6.43558888 -6.47942446 -6.50397238 -6.51449292
 -6.5127395  -6.50397238 -6.489945   -6.47241076 -6.44961626 -6.42331492
 -6.39350672 -6.36019168]",-0.2475293321597854,0.8169198317415065,5.675085,-0.12241999999999997
048,1,2,csp,15b.png,1,1,252,125,253,1,1,263,pos_feedback_onset,14,"[ 3.10462678e+00  2.80260407e+00  2.46537625e+00  2.09850202e+00
  1.71309880e+00  1.31472528e+00  9.14498851e-01  5.21684027e-01
  1.41839504e-01 -2.17623118e-01 -5.52998039e-01 -8.62432358e-01
 -1.14222027e+00 -1.38865599e+00 -1.59803370e+00 -1.76479471e+00
 -1.87967452e+00 -1.93340862e+00 -1.91673252e+00 -1.82038172e+00
 -1.63694460e+00 -1.36271539e+00 -1.00325277e+00 -5.65968339e-01
 -6.75382091e-02  4.75361524e-01  1.03864316e+00  1.60007189e+00
  2.14297163e+00  2.64696046e+00  3.10647968e+00  3.51226481e+00
  3.86246293e+00  4.15892695e+00  4.40165686e+00  4.59065267e+00
  4.72776728e+00  4.80929489e+00  4.83338259e+00  4.79261879e+00
  4.68329768e+00  4.50171347e+00  4.25157195e+00  3.93287313e+00
  3.55488151e+00  3.13242029e+00  2.68031266e+00  2.22079343e+00
  1.76868580e+00  1.34066588e+00  9.53409753e-01  6.12476132e-01
  3.23423715e-01  8.43996001e-02 -1.06449111e-01 -2.58386921e-01
 -3.73266728e-01 -4.58500133e-01 -5.19645837e-01 -5.56703839e-01
 -5.71527040e-01 -5.62262539e-01 -5.25204537e-01 -4.56647233e-01
 -3.54737727e-01 -2.12064418e-01 -2.67744066e-02  1.99279407e-01
  4.67949924e-01  7.75531342e-01  1.11646496e+00  1.48148629e+00
  1.86133081e+00  2.24488113e+00  2.62101985e+00  2.97862958e+00
  3.30103420e+00  3.57526341e+00  3.79205273e+00  3.93657893e+00
  3.99957754e+00  3.97548984e+00  3.86061003e+00  3.66049682e+00
  3.38441470e+00  3.04718688e+00  2.66919526e+00  2.27082173e+00
  1.87615401e+00  1.50557399e+00  1.17205197e+00  8.84852449e-01
  6.49534135e-01  4.64244123e-01  3.17865014e-01  2.04838107e-01
  1.12193102e-01  2.88125968e-02 -5.08621081e-02 -1.36095513e-01
 -2.28740519e-01 -3.28797125e-01 -4.32559531e-01 -5.36321938e-01
 -6.34525644e-01 -7.21611949e-01 -7.92022153e-01 -8.40197556e-01
 -8.66138158e-01 -8.66138158e-01 -8.42050456e-01 -7.97580854e-01
 -7.36435150e-01 -6.66024946e-01 -5.91908941e-01 -5.23351637e-01
 -4.67764634e-01 -4.28853731e-01 -4.12177630e-01 -4.21442131e-01
 -4.54794333e-01 -5.08528436e-01 -5.80791540e-01 -6.66024946e-01
 -7.60522851e-01 -8.56873657e-01 -9.56930263e-01 -1.05698687e+00
 -1.15704348e+00 -1.25710008e+00 -1.35530379e+00 -1.45536039e+00
 -1.55171120e+00 -1.64435621e+00 -1.72773671e+00 -1.79629401e+00
 -1.84632232e+00 -1.87411582e+00 -1.87596872e+00 -1.85188102e+00
 -1.80185271e+00 -1.72773671e+00 -1.63694460e+00 -1.53688800e+00
 -1.43497849e+00 -1.33677479e+00 -1.25339428e+00 -1.19224858e+00
 -1.15704348e+00 -1.15704348e+00 -1.19410148e+00 -1.27377618e+00
 -1.39977339e+00 -1.57579890e+00 -1.79999981e+00 -2.07608193e+00
 -2.40219235e+00 -2.77091947e+00 -3.17670460e+00 -3.60472452e+00
 -4.04200895e+00 -4.47002888e+00 -4.86654950e+00 -5.21118892e+00
 -5.48541814e+00 -5.67441395e+00 -5.76335316e+00 -5.74852996e+00
 -5.62438565e+00 -5.39647893e+00 -5.07407431e+00 -4.66458339e+00
 -4.18468226e+00 -3.64548833e+00 -3.06553059e+00 -2.45592645e+00
 -1.83335202e+00 -1.20707178e+00 -5.90056041e-01  2.87199518e-03
  5.64300729e-01  1.08125986e+00  1.54633779e+00  1.95027001e+00
  2.28935073e+00  2.55987415e+00  2.75998736e+00  2.89154327e+00
  2.95824768e+00  2.96195348e+00  2.90821937e+00  2.80445697e+00
  2.65437206e+00  2.46722915e+00  2.24673403e+00  2.00215122e+00
  1.73718650e+00  1.46295728e+00  1.18502227e+00  9.10793051e-01
  6.45828334e-01  3.93833919e-01  1.60368505e-01 -5.27150082e-02
 -2.43563720e-01 -4.14030530e-01 -5.62262539e-01 -6.93818447e-01
 -8.10551154e-01 -9.12460661e-01 -1.00510567e+00 -1.08663327e+00
 -1.16074928e+00 -1.22560078e+00 -1.28118778e+00 -1.32751029e+00
 -1.35900959e+00 -1.37753859e+00 -1.37939149e+00 -1.36271539e+00
 -1.32751029e+00 -1.27192328e+00 -1.19780728e+00 -1.10701517e+00
 -9.99546966e-01 -8.80961359e-01 -7.54964151e-01 -6.23408243e-01
 -4.89999435e-01 -3.60296427e-01 -2.38005020e-01 -1.24978113e-01
 -2.30686064e-02  6.77234991e-02  1.45545304e-01  2.12249708e-01
  2.69689611e-01  3.17865014e-01  3.62334617e-01  4.03098420e-01
  4.40156422e-01  4.75361524e-01  5.08713726e-01  5.36507228e-01
  5.60594929e-01  5.75418130e-01  5.82829731e-01  5.80976830e-01
  5.68006530e-01  5.47624628e-01  5.17978227e-01  4.80920224e-01
  4.36450622e-01  3.80863618e-01  3.16012114e-01  2.32631609e-01
  1.32575003e-01  8.43069551e-03 -1.41654214e-01 -3.21385525e-01]","[ 0.54564643  0.28815417  0.0425201  -0.17431549 -0.35218843 -0.48262859
 -0.55716582 -0.5741061  -0.53683749 -0.45213608 -0.33186009 -0.18786771
 -0.03540519  0.11197525  0.24410944  0.35422126  0.44231072  0.50668379
  0.55411657  0.59477325  0.63373589  0.67947465  0.73368355  0.79975064
  0.87259384  0.94713108  1.01150414  1.06063096  1.08604138  1.07926527
  1.04030262  0.96915344  0.86751176  0.73876563  0.58799713  0.42028836
  0.24072138  0.05268427 -0.14043492 -0.33694218 -0.53344943 -0.73165071
 -0.92646394 -1.11788911 -1.30253816 -1.47702305 -1.63626169 -1.77347796
 -1.88020172 -1.94457479 -1.95812701 -1.9090002  -1.78703018 -1.5888289
 -1.30931427 -0.95187436 -0.52836735 -0.05234547  0.45416892  0.96576539
  1.45703352  1.9025629   2.27524906  2.55815175  2.73771872  2.8088679
  2.77159928  2.63607704  2.41585339  2.12786862  1.79583913  1.43839921
  1.07587721  0.72860146  0.40843016  0.12552748 -0.10994242 -0.2962855
 -0.43180775 -0.51650915 -0.55716582 -0.55885985 -0.52667332 -0.47077039
 -0.39962122 -0.31830787 -0.23360647 -0.14721104 -0.05912158  0.03404996
  0.1390797   0.26274375  0.4169003   0.60663144  0.84040731  1.11822791
  1.43670518  1.78398093  2.14142085  2.49039063  2.80378581  3.05619599
  3.22729282  3.298442    3.25947936  3.11040489  2.85968874  2.52427119
  2.12786862  1.6975855   1.26222029  0.8454894   0.4711092   0.1509379
 -0.10655436 -0.30475564 -0.45044206 -0.55377777 -0.628315   -0.68760598
 -0.74181488 -0.79771781 -0.85362073 -0.90952366 -0.95695644 -0.98575492
 -0.98914297 -0.95865047 -0.89258338 -0.79263572 -0.66558362 -0.52159123
 -0.37590482 -0.24377064 -0.13535284 -0.06589769 -0.03540519 -0.04726338
 -0.09300214 -0.16245729]",1.8792576170407596,0.8803016725139073,5.396945,0.12555499999999942
048,2,2,csm,30a.png,1,1,60,41,63,1,1,503,neu_feedback_onset,1,"[ 0.50826371  0.52473103  0.53296469  0.53790488  0.54119834  0.54284507
  0.53955161  0.52473103  0.49014966  0.42922059  0.33535689  0.20361836
  0.03400501 -0.17018971 -0.39908541 -0.63950822 -0.87169738 -1.07753883
 -1.24056526 -1.34595608 -1.3887711  -1.36571686 -1.28667374 -1.16810907
 -1.03307707 -0.90792547 -0.8157085  -0.78277387 -0.82229543 -0.9458003
 -1.14834829 -1.41841227 -1.73623147 -2.07216472 -2.39821758 -2.68145541
 -2.89882399 -3.03220925 -3.07337754 -3.02068213 -2.88729687 -2.68968907
 -2.45255972 -2.19566959 -1.94207292 -1.70823703 -1.50239558 -1.32948876
 -1.18622311 -1.06271824 -0.95238723 -0.84370294 -0.73007846 -0.60328012
 -0.46166121 -0.30192824 -0.12737469  0.06035271  0.25960724  0.46874215
  0.68117053  0.8985391   1.11920114  1.33986317  1.55887848  1.77789378
  1.99361562  2.20275054  2.40365179  2.58973246  2.75605236  2.89437781
  2.99976863  3.06234444  3.07716502  3.03929019  2.94871995  2.80710104
  2.62102036  2.40035833  2.15499532  1.89810519  1.64286179  1.39585205
  1.17024982  0.9660551   0.78985482  0.64164897  0.51979083  0.42098694
  0.34523728  0.28924841  0.24808012  0.22337914  0.21020529  0.20855856
  0.21514548  0.2316128   0.25466704  0.28266148  0.31559611  0.34688401
  0.37817191  0.40287289  0.42098694  0.43086733  0.43416079  0.43416079
  0.43416079  0.44404118  0.47038888  0.51979083  0.60048068  0.71575189
  0.86231101  1.03521783  1.22623869  1.42055302  1.60498696  1.76471993
  1.8882248   1.96891465  2.00184928  1.99196889  1.9458604   1.87011075
  1.77954051  1.68073662  1.57863926  1.4765419   1.36785761  1.24105928
  1.08297304  0.87548486  0.60542088  0.25960724 -0.16689625 -0.67079612
 -1.23891853 -1.85150268 -2.48055416 -3.09807851 -3.67114111 -4.16845406
 -4.56696311 -4.85020094 -5.01158064 -5.05604239 -4.99676006 -4.85514114
 -4.66412027 -4.45169189 -4.25243737 -4.0927044  -4.00048743 -3.98896031
 -4.06965016 -4.24091025 -4.49615365 -4.82055977 -5.19766131 -5.60605075
 -6.02596731 -6.43600348 -6.81639848 -7.15562519 -7.44215649 -7.66775872
 -7.82913842 -7.92464886 -7.95593676 -7.92629559 -7.83737208 -7.69410643
 -7.50143883 -7.26101602 -6.97777818 -6.65501879 -6.29603129 -5.9057559
 -5.49242627 -5.06592278 -4.6344791  -4.21291581 -3.81440676 -3.457066
 -3.15242065 -2.91693803 -2.75555834 -2.67651522 -2.67651522 -2.74897141
 -2.88235667 -3.05691022 -3.25781148 -3.46365293 -3.65796726 -3.82922735
 -3.9675528  -4.07129689 -4.13881289 -4.17504098 -4.18492137 -4.17668771
 -4.1552802  -4.12563903 -4.0927044  -4.05812304 -4.02518841 -3.99225377
 -3.95767241 -3.91815085 -3.87039564 -3.80781983 -3.72383652 -3.6135055
 -3.46859312 -3.28251245 -3.05197003 -2.76873219 -2.43444567 -2.05075721
 -1.6176668  -1.14176136 -0.62962783 -0.08949986  0.47203562  1.04180475
  1.61322062  2.1747561   2.71817753  3.23031106  3.7012763   4.12119286
  4.48018035  4.77000511  4.98737369  5.12734587  5.1915684   5.18333475
  5.11252529  4.98408022  4.8111734   4.59874503  4.35832221  4.09813862
  3.82478117  3.5398966   3.25007184  2.95695361  2.66218865  2.36413023
  2.06771854  1.76966012  1.47324843  1.17519001  0.87877832  0.5807199
  0.28266148 -0.01375021]","[ 4.38170440e-01  3.63126978e-01  2.76410088e-01  1.81355035e-01
  8.62999821e-02 -3.75217313e-03 -7.87956358e-02 -1.33827508e-01
 -1.65512526e-01 -1.75518321e-01 -1.63844894e-01 -1.35495141e-01
 -9.88072259e-02 -6.04516783e-02 -3.04342932e-02 -1.54256007e-02
 -1.87608657e-02 -4.37753532e-02 -8.37985333e-02 -1.37162773e-01
 -1.92194646e-01 -2.42223621e-01 -2.75576271e-01 -2.83914434e-01
 -2.62235211e-01 -2.10538604e-01 -1.30492243e-01 -2.54313957e-02
  9.79734096e-02  2.31384010e-01  3.64794610e-01  4.96537578e-01
  6.18274751e-01  7.28338496e-01  8.25061181e-01  9.10110439e-01
  9.83486269e-01  1.05019157e+00  1.10855871e+00  1.16359058e+00
  1.21361955e+00  1.26364853e+00  1.31034224e+00  1.35870358e+00
  1.40539729e+00  1.45209100e+00  1.49878471e+00  1.54547842e+00
  1.59383977e+00  1.64220111e+00  1.69056245e+00  1.74059143e+00
  1.79062040e+00  1.84231701e+00  1.89568125e+00  1.94571022e+00
  1.99573920e+00  2.03743001e+00  2.06911503e+00  2.08579135e+00
  2.08078846e+00  2.04910344e+00  1.98573340e+00  1.88901072e+00
  1.75726775e+00  1.59383977e+00  1.40206203e+00  1.18860507e+00
  9.60139414e-01  7.23335599e-01  4.86531783e-01  2.54730865e-01
  3.29357420e-02 -1.73850689e-01 -3.63960794e-01 -5.32391677e-01
 -6.74140440e-01 -7.85871817e-01 -8.65918178e-01 -9.09276623e-01
 -9.15947153e-01 -8.90932665e-01 -8.39236058e-01 -7.70863125e-01
 -6.97487295e-01 -6.34117260e-01 -5.95761712e-01 -5.95761712e-01
 -6.45790687e-01 -7.52519167e-01 -9.20950050e-01 -1.14774807e+00
 -1.42957796e+00 -1.75976920e+00 -2.13165125e+00 -2.53355068e+00
 -2.95546170e+00 -3.38904616e+00 -3.82429824e+00 -4.25121216e+00
 -4.65644686e+00 -5.03166417e+00 -5.36185541e+00 -5.63534714e+00
 -5.84046594e+00 -5.96720601e+00 -6.00222629e+00 -5.94385915e+00
 -5.78543406e+00 -5.53028629e+00 -5.18508636e+00 -4.75650481e+00
 -4.25621506e+00 -3.70089343e+00 -3.10554863e+00 -2.48518934e+00
 -1.85982715e+00 -1.24613839e+00 -6.55796482e-01 -1.05477756e-01
  3.94811995e-01  8.33399344e-01  1.20361376e+00  1.50378761e+00
  1.73058563e+00  1.88567545e+00  1.97239234e+00  1.99907446e+00
  1.97239234e+00  1.90568704e+00  1.80729673e+00  1.69223008e+00
  1.56882528e+00  1.45042337e+00  1.34369489e+00  1.25531037e+00
  1.18526980e+00  1.13357319e+00  1.09521765e+00  1.06186500e+00]",2.238361106834183,1.188730139539148,6.072635,-0.14369000000000032
048,2,2,csm,15a.png,1,1,48,93,45,1,0,208,neu_feedback_onset,2,"[  1.41757905   1.24421566   1.04418099   0.81747503   0.56909864
   0.30571966   0.04234067  -0.21103658  -0.43774254  -0.62277461
  -0.75446411  -0.82280929  -0.82447624  -0.76113193  -0.64277808
  -0.48108339  -0.28771654  -0.07768013   0.13735714   0.34572659
   0.54409431   0.72745943   0.89915585   1.0625175    1.21921133
   1.37090429   1.51926334   1.66428848   1.80097884   1.92433355
   2.02935175   2.11103258   2.16437516   2.18437863   2.16770907
   2.10769867   2.00101351   1.83931882   1.61594676   1.32256258
   0.95249843   0.50075346  -0.0376732   -0.65611373  -1.34956726
  -2.10469815  -2.90150293  -3.72164509  -4.54012029  -5.33525811
  -6.08705509  -6.78050862  -7.40395002  -7.95237841  -8.4257938
  -8.82919706  -9.16758905  -9.44930455  -9.68434529  -9.88104605
 -10.0444077  -10.1794311  -10.29111713 -10.38113273 -10.45114487
 -10.50448744 -10.54116047 -10.56449785 -10.57116567 -10.55949698
 -10.52949178 -10.47281529 -10.38446664 -10.26111193 -10.09274941
  -9.87604518  -9.60933228  -9.29427767  -8.93254831  -8.53247896
  -8.10407137  -7.66066118  -7.21725099  -6.79051036  -6.39544188
  -6.05038207  -5.77033352  -5.57196581  -5.46861456  -5.47528238
  -5.60030405  -5.85201435  -6.23541414  -6.74716951  -7.38061264
  -8.11907397  -8.944217    -9.82770347 -10.73786123 -11.64135117
 -12.50150026 -13.28330244 -13.95508555 -14.48684439 -14.85690853
 -15.04860843 -15.04860843 -14.85690853 -14.4751757  -13.91841252
 -13.20495553 -12.35980903 -11.41797912 -10.41447184  -9.3909611
  -8.38912078  -7.44562391  -6.59881046  -5.87368477  -5.29358422
  -4.86684359  -4.59679678  -4.47510902  -4.48511075  -4.6034646
  -4.80850014  -5.07187913  -5.37026418  -5.68365183  -5.99703949
  -6.29875845  -6.58380786  -6.85385467  -7.10723192  -7.34894048
  -7.58064731  -7.7990185   -8.00572099  -8.19075306  -8.34911385
  -8.46913465  -8.5424807   -8.56081721  -8.52081027  -8.41912598
  -8.2607652   -8.0540627   -7.81068719  -7.54397429  -7.26725966
  -6.99221198  -6.73049995  -6.48712443  -6.26708629  -6.07038553
  -5.89202128  -5.72699268  -5.57196581  -5.41693894  -5.25524424
  -5.08688173  -4.90351661  -4.70348194  -4.48844466  -4.25507088
  -4.00669449  -3.74164855  -3.46326697  -3.17154974  -2.86816382
  -2.55644312  -2.23638764  -1.91466521  -1.59627669  -1.28622295
  -0.98950485  -0.71779108  -0.47274861  -0.26437916  -0.09268273
   0.03733981   0.12735541   0.17736408   0.19403363   0.18069799
   0.14402496   0.08901543   0.02400416  -0.04434102  -0.11101924
  -0.16769573  -0.21270354  -0.24104178  -0.25104351  -0.24604265
  -0.23104005  -0.21437049  -0.21103658  -0.23104005  -0.29605132
  -0.41607212  -0.60277115  -0.86448318  -1.1978743   -1.59460973
  -2.04302079  -2.52143705  -3.00818809  -3.48160348  -3.92167976
  -4.31008041  -4.64013762  -4.9001827   -5.0952165   -5.22190513
  -5.29025031  -5.30025204  -5.26191206  -5.17689733  -5.0502087
  -4.88851401  -4.69681411  -4.48844466  -4.27507435  -4.07170576
  -3.90000933  -3.77998853  -3.72997986  -3.76498593  -3.89500847
  -4.12338139  -4.44343686  -4.84350621  -5.30358595  -5.80200568
  -6.31542801  -6.82218251  -7.30559964  -7.7540107   -8.15908091
  -8.52247723  -8.84753357  -9.14258471  -9.41596543  -9.67601051
  -9.9277208  -10.17776415 -10.42280662 -10.66284823 -10.88955419
 -11.09792364 -11.2796218  -11.43131476 -11.54966861 -11.63134943
 -11.6813581  -11.70302852 -11.70302852 -11.68969288 -11.66968941]","[-1.04918714 -1.00628963 -0.93593773 -0.83641552 -0.71630251 -0.5790305
 -0.43832669 -0.29933878 -0.17236217 -0.06254456  0.03011405  0.10904545
  0.17939736  0.25489696  0.35098737  0.48482758  0.6752925   0.94125702
  1.30159604  1.76832088  2.34829512  3.04151878  3.83941234  4.72653271
  5.67199368  6.64490905  7.60409723  8.5049448   9.30627016  9.96517581
 10.45077554 10.73904677 10.82140997 10.69614926 10.38042364  9.8965398
  9.27709985  8.5564218   7.77225544  6.96063468  6.15072982  5.36999526
  4.6373059   3.96124125  3.3486649   2.80300866  2.32255662  1.90902469
  1.55898106  1.27928934  1.07166543  0.94468882  0.90865491  0.96871142
  1.13343783  1.40111825  1.76832088  2.22131851  2.74123625  3.3023356
  3.87373034  4.42625018  4.92557712  5.34597265  5.66513008  5.87103809
  5.9551172   5.9207992   5.77494769  5.52957397  5.20012114  4.80203231
  4.35075058  3.86171904  3.3435172   2.80815636  2.26078422  1.70826438
  1.15574453  0.60494059  0.06443205 -0.46578109 -0.97711933 -1.46443497
 -1.9242962  -2.34812353 -2.73248516 -3.07223339 -3.36393641 -3.60931013
 -3.80663865 -3.95935376 -4.07088727 -4.14981867 -4.19786388 -4.22531828
 -4.23389778 -4.23218188 -4.22188648 -4.20987518 -4.19614798 -4.18585258
 -4.18242077 -4.18585258 -4.19786388 -4.22017058 -4.25448858 -4.30081788
 -4.35744259 -4.42607859 -4.5032941  -4.58908911 -4.68174771 -4.78126992
 -4.88422393 -4.99060974 -5.10042734 -5.21024495 -5.32177846 -5.43331197
 -5.54656138 -5.65981079 -5.7713443  -5.8845937  -5.99612721 -6.10766072
 -6.21747833 -6.32386414 -6.42681815 -6.52119265 -6.60698766 -6.67562367
 -6.72366887 -6.74597557 -6.73224837 -6.67905547 -6.58296506 -6.44054535
 -6.25694403 -6.03559292]",-0.22391381172737096,4.962940846916844,5.99896,0.08772999999999964
048,2,2,csm,42a.png,1,1,76,24,79,1,0,403,neu_feedback_onset,3,"[ 2.08036591  1.70142253  1.31915509  0.94685984  0.59284695  0.2670886
 -0.02709113 -0.27972005 -0.49246019 -0.65866343 -0.77832976 -0.84979715
 -0.86974154 -0.83816292 -0.75838537 -0.63373294 -0.4725158  -0.28304411
 -0.0819382   0.11584366  0.29201909  0.42830574  0.50808329  0.51805549
  0.44991216  0.30199128  0.07263081 -0.22819704 -0.5905201  -0.99938006
 -1.43649457 -1.88690535 -2.33233002 -2.76113437 -3.16168417 -3.52733129
 -3.85475167 -4.14726936 -4.40820845 -4.64089298 -4.85529515 -5.053077
 -5.2375626  -5.40875193 -5.566645   -5.70625572 -5.82093596 -5.90902367
 -5.96553277 -5.98880123 -5.98049106 -5.93894025 -5.8691349  -5.77772312
 -5.66802898 -5.54337655 -5.41041396 -5.27246528 -5.13451659 -4.99822994
 -4.87025344 -4.75391118 -4.6525272  -4.57274965 -4.51790258 -4.49463413
 -4.50626836 -4.55280526 -4.63756891 -4.75889727 -4.91180425 -5.09130375
 -5.29573373 -5.515122   -5.7461445  -5.9821531  -6.21982372 -6.45583232
 -6.68851685 -6.91621529 -7.13892762 -7.3533298  -7.55942181 -7.75554163
 -7.93504113 -8.0929342  -8.22257273 -8.31398451 -8.36052141 -8.34888719
 -8.2724337  -8.12451282 -7.90013845 -7.60097262 -7.2303394  -6.79654896
 -6.31123551 -5.79101937 -5.25085886 -4.7090363  -4.18217204 -3.6868864
 -3.23647563 -2.84423599 -2.51515358 -2.25753856 -2.07305297 -1.9616968
 -1.91848396 -1.93676632 -2.00657168 -2.11792784 -2.2592006  -2.4187557
 -2.58329691 -2.74451405 -2.89575899 -3.03536971 -3.16002214 -3.27470237
 -3.38107244 -3.48910455 -3.60046072 -3.72178908 -3.85475167 -4.00267255
 -4.15890359 -4.32510683 -4.4929721  -4.66083737 -4.8270406  -4.98825774
 -5.14781285 -5.30736796 -5.47024713 -5.63977443 -5.81927392 -6.00542155
 -6.19987934 -6.39766119 -6.59211897 -6.78159066 -6.95942813 -7.1223073
 -7.26690412 -7.39488061 -7.50457474 -7.59764856 -7.67576408 -7.73892131
 -7.78878228 -7.82368496 -7.83864325 -7.83365715 -7.8054026  -7.7488935
 -7.66246782 -7.54778759 -7.4048528  -7.23864957 -7.05083991 -6.84973399
 -6.64364198 -6.43754996 -6.24309218 -6.06193065 -5.90237554 -5.76775092
 -5.65805678 -5.57329313 -5.515122   -5.47855729 -5.463599   -5.4685851
 -5.49351558 -5.53672842 -5.59988565 -5.68132524 -5.78104718 -5.90237554
 -6.04198626 -6.1982173  -6.36608257 -6.54558207 -6.7267436  -6.90956716
 -7.08574259 -7.25526989 -7.414825   -7.56440791 -7.7023566  -7.82867106
 -7.94667535 -8.05470746 -8.15110533 -8.23420695 -8.30401231 -8.35387328
 -8.38378987 -8.38711393 -8.36052141 -8.30235028 -8.21260053 -8.08961014
 -7.93670316 -7.75554163 -7.55277368 -7.33504744 -7.10901104 -6.87965057
 -6.65693824 -6.44752216 -6.2597125  -6.09849536 -5.96885684 -5.87744506
 -5.82426002 -5.8126258  -5.83921831 -5.90403758 -6.00375952 -6.13339804
 -6.28796705 -6.46580452 -6.65693824 -6.85804415 -7.06247413 -7.26358005
 -7.45471377 -7.62922717 -7.77881008 -7.90013845 -7.98656413 -8.03808713
 -8.05470746 -8.03808713 -7.99487429 -7.93504113 -7.86357374 -7.79210634
 -7.72728708 -7.67576408 -7.63919937 -7.61759295 -7.60928278 -7.61426888
 -7.62922717 -7.65083359 -7.67908814 -7.71399082 -7.7538796  -7.80041651
 -7.85027748 -7.90346251 -7.95498552 -8.00318445 -8.03974917 -8.06135559
 -8.06301762 -8.03974917]","[-3.30921142 -2.92045897 -2.49493265 -2.03788585 -1.55632314 -1.06600474
 -0.57918861 -0.11338613  0.31914474  0.70089264  1.02135074  1.27001221
  1.44337479  1.5379362   1.56070098  1.51517141  1.4153566   1.27176335
  1.10190305  0.91978479  0.73766652  0.56780622  0.4207107   0.2981311
  0.20707197  0.14227989  0.10550601  0.09149692  0.09675033  0.1142617
  0.14403103  0.17730264  0.21407652  0.25260153  0.28587314  0.31564247
  0.34015839  0.35591862  0.36467431  0.36642545  0.3594209   0.3454118
  0.32439816  0.2981311   0.2701129   0.24209471  0.21757879  0.20006742
  0.19656514  0.2088231   0.24734812  0.31564247  0.42246184  0.5765619
  0.78494723  1.05287121  1.3873384   1.79009995  2.26290698  2.79875494
  3.38713702  4.01754639  4.66721827  5.31338788  5.93329043  6.50065887
  6.99447954  7.39724108  7.6949344   7.88405721  7.96285838  7.94184474
  7.82977196  7.64240028  7.39198767  7.09604549  6.76683171  6.41485315
  6.05061662  5.68462896  5.32039243  4.96666273  4.62343985  4.29947947
  3.99828389  3.71985308  3.47119161  3.25580174  3.07893688  2.94234819
  2.84953792  2.80400835  2.80400835  2.84253337  2.91082772  2.99663344
  3.08243916  3.14898237  3.1787517   3.15423578  3.06667892  2.90907658
  2.67967762  2.38898885  2.04751711  1.67102262  1.27351449  0.87600636
  0.49075618  0.13002193 -0.19919185 -0.49163175 -0.74904891 -0.96969219
 -1.16056614 -1.32517303 -1.47051742 -1.59835043 -1.71392548 -1.81899371
 -1.92055966 -2.01512107 -2.1061802  -2.1954882  -2.28479619 -2.37235305
 -2.4599099  -2.5492179  -2.63852589 -2.72958502 -2.82239529 -2.91520556
 -3.00801583 -3.1008261  -3.19188523 -3.28119322 -3.36875008 -3.45280467
 -3.53160584 -3.6051536 ]",1.6246032297217995e-14,4.547177823599194,6.016729999999999,-0.09788500000000067
048,2,2,csp,12b.png,1,1,324,310,326,1,1,285,pos_feedback_onset,4,"[ 1.95500803  1.71755044  1.44617033  1.14443849  0.8266381   0.50348152
  0.18925192 -0.10355294 -0.36243528 -0.57846813 -0.74450991 -0.85341903
 -0.9069809  -0.90876629 -0.86056061 -0.77129084 -0.64988395 -0.50526692
 -0.34815212 -0.18925192 -0.0374933   0.10176754  0.21960364  0.31244421
  0.38207463  0.42670952  0.45170505  0.46241743  0.46598822  0.4713444
  0.48741296  0.52133548  0.58025353  0.6677379   0.785574    0.93376183
  1.10515979  1.29084092  1.48009284  1.66220318  1.82110337  1.94251027
  2.01214069  2.02285306  1.96214962  1.82824496  1.61935369  1.3390466
  0.99625067  0.60167827  0.16782717 -0.28923407 -0.75522228 -1.21763971
 -1.66041778 -2.07998572 -2.46741653 -2.82092483 -3.14229602 -3.43153008
 -3.69755401 -3.94215319 -4.1742546  -4.39564364 -4.61346188 -4.83128013
 -5.04731298 -5.26334583 -5.47937868 -5.69362614 -5.90073201 -6.09712551
 -6.27923585 -6.43635065 -6.56489913 -6.65595429 -6.69523299 -6.67559364
 -6.58453848 -6.41135512 -6.14890198 -5.79182289 -5.34190323 -4.80628459
 -4.20103553 -3.54758079 -2.87091591 -2.2049634  -1.57828959 -1.02124621
 -0.5516872  -0.18389573  0.0803428   0.24816997  0.33565435  0.36422067
  0.36064988  0.34636672  0.34279593  0.36064988  0.40349938  0.46420282
  0.53026245  0.58382432  0.60524906  0.57311194  0.47670059  0.31065881
  0.076772   -0.21603285 -0.5499018  -0.90341011 -1.24977683 -1.56757722
 -1.83717193 -2.04427781 -2.17818247 -2.2424567  -2.2442421  -2.19603642
 -2.11747902 -2.02820925 -1.95322264 -1.91394394 -1.92465631 -1.99964292
 -2.14783074 -2.36743439 -2.65488306 -3.00303517 -3.39582217 -3.8207463
 -4.25638279 -4.68844849 -5.10266024 -5.48116408 -5.81681843 -6.09712551
 -6.31315836 -6.46134619 -6.53276201 -6.52383503 -6.43099447 -6.25066952
 -5.98107481 -5.62756651 -5.1955008  -4.69737547 -4.14925906 -3.57079093
 -2.98696661 -2.42278165 -1.90680236 -1.46045349 -1.10515979 -0.85520443
 -0.72129977 -0.70523121 -0.80164256 -1.00339225 -1.29262632 -1.6550616
 -2.06927334 -2.51383681 -2.96911266 -3.41367613 -3.83145867 -4.20103553
 -4.50455276 -4.72772719 -4.85449027 -4.87234422 -4.77414747 -4.55632923
 -4.22067488 -3.7778968  -3.24584896 -2.64774147 -2.01035529 -1.36225674
 -0.72844135 -0.12676308  0.42670952  0.92483485  1.37475451  1.78003928
  2.15675772  2.519193    2.88162828  3.25656133  3.65113373  4.06713087
  4.49919657  4.93661846  5.36868416  5.77753973  6.14711659  6.4577754
  6.69880379  6.85591859  6.92554901  6.90055347  6.78271737  6.5756115
  6.28816283  5.93108374  5.51687199  5.06159614  4.58132476  4.08855562
  3.60292805  3.13515444  2.70130334  2.31030173  1.97107659  1.6943403
  1.48366363  1.34440279  1.27655776  1.27834315  1.34797358  1.47473665
  1.6532762   1.87109445  2.11569363  2.37636136  2.64059989  2.90305303
  3.151223    3.3851098   3.60292805  3.80110695  3.98143189  4.14211748
  4.27959293  4.39385824  4.47598643  4.52062132  4.52240671  4.47063024
  4.36350652  4.19567934  3.96357793  3.67255847  3.32440636  2.92983396
  2.49598286  2.04070702  1.5747188   1.11587217  0.68023567  0.28030709
 -0.06963042 -0.36422067 -0.59810748 -0.77129084 -0.88555615 -0.94983039
 -0.96946974 -0.95161578]","[-1.14092555 -0.97965759 -0.81838962 -0.65893366 -0.49585369 -0.33096173
 -0.16788176 -0.0102378   0.14015817  0.27605814  0.39383811  0.48806209
  0.55148208  0.58228607  0.57503807  0.52973808  0.4500101   0.33947813
  0.20901415  0.06767819 -0.07365778 -0.20049776 -0.30559373 -0.38350972
 -0.43243371 -0.4523657  -0.4487417  -0.42880971 -0.40162971 -0.37263772
 -0.34726972 -0.32914973 -0.31827773 -0.31646573 -0.31827773 -0.32552573
 -0.33458573 -0.34183373 -0.34908172 -0.35632972 -0.35995372 -0.36357772
 -0.36538972 -0.36538972 -0.36357772 -0.36176572 -0.35814172 -0.35089372
 -0.34183373 -0.32371373 -0.30015773 -0.26210574 -0.20955775 -0.13707777
 -0.04285379  0.07855018  0.22894615  0.40833411  0.61309007  0.84321402
  1.08964596  1.34332591  1.59338185  1.8289418   2.03732176  2.20221372
  2.3145577   2.35804569  2.32542969  2.21127372  2.00832976  1.72022182
  1.35057391  0.91207     0.41377011 -0.12801777 -0.70060965 -1.28950952
 -1.88384539 -2.47455726 -3.05258513 -3.61068101 -4.1452209  -4.64533279
 -5.10558069 -5.5114686  -5.85574852 -6.12211247 -6.30150043 -6.38304041
 -6.36310841 -6.23626844 -6.00976849 -5.69085656 -5.29584065 -4.84102874
 -4.34816485 -3.83899296 -3.33525707 -2.85688918 -2.42200927 -2.04330135
 -1.72801342 -1.48339348 -1.30944151 -1.20072154 -1.14998555 -1.14817355
 -1.18441354 -1.24602153 -1.32574951 -1.41272549 -1.50332547 -1.58848945
 -1.66640544 -1.73344942 -1.78418541 -1.8149894  -1.8204254  -1.79505741
 -1.72982542 -1.61385745 -1.44352949 -1.21159354 -0.9126136  -0.54840168
 -0.12258177  0.35759812  0.88126601  1.43211389  1.99564576  2.55555364
  3.09734152  3.61013741  4.08306931  4.50888922  4.88216114  5.20469707
  5.47106101  5.68850096]",3.709382253169062,1.6376464144216676,5.601000000000001,-0.7192599999999993
048,2,2,csp,45b.png,1,1,280,134,276,1,1,414,pos_feedback_onset,5,"[-5.92215083e-01 -3.38813656e-01 -9.60444569e-02  1.25460287e-01
  3.16840385e-01  4.67463611e-01  5.72013850e-01  6.25174989e-01
  6.19858875e-01  5.61381623e-01  4.49743232e-01  2.95575930e-01
  1.14828059e-01 -8.00961153e-02 -2.66160100e-01 -4.25643516e-01
 -5.46142096e-01 -6.11707500e-01 -6.20567690e-01 -5.70950627e-01
 -4.73488540e-01 -3.37041618e-01 -1.79330241e-01 -1.45307112e-02
  1.43180666e-01  2.81399626e-01  3.98354131e-01  4.88728067e-01
  5.57837547e-01  6.16314799e-01  6.74792051e-01  7.47445607e-01
  8.44907695e-01  9.77810541e-01  1.15147026e+00  1.36234278e+00
  1.60688401e+00  1.86737359e+00  2.12786317e+00  2.36531626e+00
  2.56024043e+00  2.69314328e+00  2.74807645e+00  2.71795181e+00
  2.59922527e+00  2.39721294e+00  2.11900298e+00  1.77699966e+00
  1.38715131e+00  9.61862199e-01  5.17080674e-01  6.16669207e-02
 -3.95518870e-01 -8.43844472e-01 -1.27976581e+00 -1.69442269e+00
 -2.08427104e+00 -2.44222270e+00 -2.76473361e+00 -3.04825968e+00
 -3.29457296e+00 -3.50544547e+00 -3.68973742e+00 -3.85276491e+00
 -3.99984406e+00 -4.13806302e+00 -4.26919383e+00 -4.38614833e+00
 -4.48183838e+00 -4.54740379e+00 -4.56866824e+00 -4.53322748e+00
 -4.43753743e+00 -4.27982606e+00 -4.06718150e+00 -3.81378008e+00
 -3.53911419e+00 -3.26622035e+00 -3.01636300e+00 -2.81435067e+00
 -2.67435967e+00 -2.60347816e+00 -2.60347816e+00 -2.66727152e+00
 -2.78422603e+00 -2.94016537e+00 -3.11559712e+00 -3.29811703e+00
 -3.47709287e+00 -3.64366443e+00 -3.79074358e+00 -3.91301420e+00
 -4.01047629e+00 -4.07781373e+00 -4.11502653e+00 -4.11325449e+00
 -4.07249762e+00 -3.98566776e+00 -3.84922083e+00 -3.66138481e+00
 -3.42215969e+00 -3.13331750e+00 -2.80017437e+00 -2.42804640e+00
 -2.02756582e+00 -1.61113690e+00 -1.19116391e+00 -7.83595181e-01
 -4.00834984e-01 -6.06036979e-02  2.26466450e-01  4.44427118e-01
  5.89734230e-01  6.53527596e-01  6.37579254e-01  5.48977357e-01
  3.93038017e-01  1.89253653e-01 -5.17435081e-02 -3.06916973e-01
 -5.60318400e-01 -7.97771485e-01 -1.00687196e+00 -1.17875964e+00
 -1.30989045e+00 -1.39849235e+00 -1.44633737e+00 -1.45519756e+00
 -1.42861700e+00 -1.36836770e+00 -1.27622173e+00 -1.15217908e+00
