sub,run,cat_cond,trial_type,picture,old,response_old,target_pos,response_pos,dot_resp_loc,cat_corr,TN_corr,TN_rt,feedback_type,trial,SP_timeseries,FB_timeseries,SP_peak_response,FB_peak_response,preStim_bl,anticipation
046,1,2,csm,47a.png,1,1,112,177,114,1,1,497,neu_feedback_onset,1,"[-1.34838272 -1.2206508  -1.09697387 -0.97126944 -0.83948254 -0.70161317
 -0.55360635 -0.39546207 -0.22920783 -0.05687112  0.1154656   0.28780231
  0.45202906  0.60611836  0.74804271  0.87171965  0.97512167  1.06027629
  1.12515599  1.17178828  1.19814566  1.20625562  1.20017315  1.17787075
  1.14137592  1.09474363  1.03797389  0.97512167  0.90821448  0.84130729
  0.77845507  0.72574031  0.68113552  0.65275065  0.6405857   0.64666817
  0.67099806  0.71560286  0.77440009  0.85144474  0.94065433  1.04405636
  1.15759584  1.28127278  1.41305968  1.55092905  1.6928534   1.83680524
  1.98481207  2.1307914   2.27677073  2.4166676   2.55250948  2.68429637
  2.80797331  2.92759526  3.03910726  3.14859176  3.25199378  3.35539581
  3.45677035  3.55814489  3.66154691  3.76900392  3.88051592  3.99811038
  4.12178731  4.25154672  4.3873886   4.53134045  4.67731978  4.82329911
  4.97130594  5.11525778  5.25109966  5.37883158  5.49237106  5.59171811
  5.67281774  5.73364246  5.77419227  5.79243969  5.7904122   5.76405482
  5.71945002  5.65457032  5.57549818  5.4842611   5.38491405  5.28151202
  5.17810999  5.07673546  4.9794159   4.88817882  4.80302421  4.72192458
  4.64487993  4.57189026  4.49890059  4.42591093  4.35089377  4.27384912
  4.19680447  4.11975982  4.04677016  3.97580798  3.91498326  3.8622685
  3.82171868  3.7953613   3.78319636  3.78725134  3.80549876  3.83793861
  3.88051592  3.92917569  3.98189045  4.03055023  4.07110005  4.09948492
  4.11367735  4.10759488  4.08529248  4.04474267  3.98797292  3.92106573
  3.84402108  3.76292145  3.68182182  3.60274968  3.52976002  3.4669078
  3.41622053  3.3797257   3.35945079  3.3574233   3.37567072  3.41013806
  3.46285282  3.52773253  3.60072219  3.67776684  3.752784    3.8176637
  3.86835097  3.89673584  3.90079082  3.87646093  3.82374617  3.74061905
  3.62707957  3.48515522  3.314846    3.11817939  2.89921039  2.65996649
  2.40653014  2.14903882  1.89560247  1.65635857  1.44347204  1.26708034
  1.14137592  1.06838625  1.0562213   1.09879861  1.19206318  1.32790506
  1.49010432  1.66244104  1.83275026  1.98683956  2.11254398  2.20580856
  2.2625783   2.29096317  2.29501815  2.28893568  2.28690819  2.29907313
  2.33962295  2.42072258  2.546427    2.72484619  2.95192515  3.22969139
  3.55003492  3.9068733   4.28804156  4.68745723  5.09092789  5.49237106
  5.87962179  6.24862511  6.58924355  6.90350462  7.18532583  7.43673469
  7.65975867  7.85642527  8.02876198  8.18285128  8.32072065  8.4423701
  8.5518546   8.64917415  8.73432876  8.80934592  8.87422563  8.92896788
  8.97154518  9.00195754  9.02425994  9.0323699   9.02831492  9.00601252
  8.96546271  8.89855551  8.80326345  8.67350404  8.50522231  8.29639076
  8.04498191  7.75505073  7.42862472  7.07381384  6.69872805  6.31350481
  5.92625408  5.54508582  5.18013748  4.83546406  4.51714801  4.22518934
  3.96161555  3.72642662  3.51556758  3.33106592  3.16481168  3.02085984
  2.89110043  2.77958844  2.68024139  2.5910318   2.50993217  2.43491501
  2.36192535  2.28893568  2.21189103  2.12876391  2.04158181  1.94628974
  1.8469427   1.74354067  1.63608366  1.53268163  1.4292796   1.32993256
  1.23869547  1.15354086]","[-3.31999123 -3.13787539 -2.93030251 -2.69139787 -2.41528676 -2.10001097
 -1.74752871 -1.35588175 -0.92898657 -0.47075964  0.00900788  0.50639951
  1.00966585  1.51097395  1.99857441  2.46071781  2.88565476  3.2655523
  3.59257751  3.85889744  4.06255385  4.20550499  4.29166732  4.32495731
  4.31516614  4.27012674  4.19767205  4.10759325  4.00772328  3.90393684
  3.79819216  3.69832218  3.60432692  3.51816459  3.43787696  3.36346404
  3.29296759  3.22442937  3.15784939  3.08931117  3.01685648  2.93852709
  2.84844829  2.74270362  2.61933483  2.47442545  2.30210079  2.09844438
  1.86345621  1.59321981  1.28969342  0.95679351  0.59843655  0.218539
 -0.17114972 -0.56083844 -0.94073598 -1.30105118 -1.63003462 -1.9218116
 -2.16659095 -2.36437266 -2.5131985  -2.61502671 -2.67377375 -2.69923081
 -2.69531434 -2.67377375 -2.64048376 -2.60523554 -2.57194555 -2.54453026
 -2.52690615 -2.51907321 -2.51711497 -2.52103144 -2.52298968 -2.51907321
 -2.50536556 -2.47599204 -2.42507794 -2.35458149 -2.26058622 -2.14309213
 -2.00797393 -1.85718985 -1.69465637 -1.52428994 -1.34804881 -1.17180769
 -0.99556656 -0.82520013 -0.66070841 -0.50404963 -0.35718202 -0.22598029
 -0.10848621 -0.01057447  0.06579669  0.11866903  0.14804255  0.15195902
  0.13433491  0.09517021  0.03642317 -0.03798975 -0.12611032 -0.22402206
 -0.33172497 -0.44530259 -0.56083844 -0.68029076 -0.79778484 -0.9133207
 -1.02298184 -1.12676829 -1.22272179 -1.30888412 -1.38525528 -1.45183526
 -1.5105823  -1.55757994 -1.5947864  -1.62024345 -1.63395109 -1.63003462
 -1.61241051 -1.57520405 -1.51841524 -1.44596055 -1.35588175 -1.25405355
 -1.1443924  -1.03277302 -0.92311187 -0.82128366 -0.72924663 -0.648959
 -0.58237902 -0.52559021]",7.773196775073226,2.351595178042694,4.932205,-0.381594999999999
046,1,2,csp,5b.png,1,1,88,133,93,1,1,571,neg_feedback_onset,2,"[ 0.46331466  0.44946665  0.43561865  0.41781407  0.39407464  0.36044377
  0.31692147  0.26152945  0.19426772  0.11909284  0.03402652 -0.05697465
 -0.1499541  -0.24095527 -0.32997816 -0.4110879  -0.48230621 -0.54561137
 -0.59506853 -0.63463425 -0.66035198 -0.67419998 -0.67815655 -0.67222169
 -0.66233026 -0.64650397 -0.63265597 -0.61880796 -0.61089482 -0.61089482
 -0.61880796 -0.63463425 -0.66233026 -0.69793942 -0.74344    -0.79487545
 -0.85224575 -0.91555091 -0.97885608 -1.04413952 -1.10942297 -1.17470642
 -1.24196816 -1.30725161 -1.37649163 -1.44968822 -1.52684139 -1.60795113
 -1.69697401 -1.79193176 -1.89084607 -1.99173868 -2.09263128 -2.18956731
 -2.28056848 -2.36167822 -2.43091824 -2.48433197 -2.5238977  -2.54961542
 -2.55950685 -2.55555028 -2.54170228 -2.51994113 -2.49026683 -2.45465768
 -2.42102681 -2.38541766 -2.35376507 -2.33002564 -2.31815592 -2.31815592
 -2.33398221 -2.36959137 -2.42696167 -2.50609312 -2.60302915 -2.71974805
 -2.84833666 -2.9868167  -3.12529674 -3.25982021 -3.38445225 -3.49127971
 -3.57634603 -3.63569462 -3.67130377 -3.67921692 -3.6673472  -3.63569462
 -3.59217232 -3.54271516 -3.49127971 -3.44380084 -3.40225683 -3.36862596
 -3.34092995 -3.31521223 -3.28751622 -3.25586364 -3.21431963 -3.15694932
 -3.08573102 -2.99670813 -2.89581553 -2.78305321 -2.66237774 -2.54170228
 -2.42498338 -2.31815592 -2.2192416  -2.13417529 -2.06295698 -2.00360839
 -1.95415124 -1.91458551 -1.88293293 -1.85919349 -1.84138892 -1.83149748
 -1.8295192  -1.83743234 -1.85523692 -1.88491121 -1.92447694 -1.97591239
 -2.03526098 -2.10252271 -2.17374102 -2.24693761 -2.31617763 -2.38146108
 -2.4368531  -2.4803754  -2.50807141 -2.51598455 -2.50213655 -2.4665274
 -2.40520052 -2.32013421 -2.21330675 -2.08867471 -1.95019466 -1.80182319
 -1.65345171 -1.50705853 -1.37055677 -1.2498813  -1.14503213 -1.0619441
 -1.00061723 -0.9610515  -0.94126864 -0.93929035 -0.95511664 -0.98479093
 -1.02435666 -1.07183553 -1.12327098 -1.17272814 -1.21427215 -1.24394644
 -1.25581616 -1.24592473 -1.206359   -1.13711898 -1.03226981 -0.89378976
 -0.71772228 -0.50802393 -0.26469471  0.01028709  0.31494318  0.645317
  0.99943025  1.37134808  1.75513563  2.14881461  2.54447188  2.932216
  3.31006869  3.66616023  3.99851233  4.29723356  4.56034565  4.78191372
  4.96193777  5.09843953  5.1894407   5.23691957  5.23889786  5.19735384
  5.11822239  5.00348178  4.8570886   4.68893426  4.50693192  4.31899471
  4.13897066  3.97279461  3.8283797   3.7136391   3.63055107  3.58109391
  3.56131105  3.5692242   3.59889849  3.64439908  3.70176938  3.76507454
  3.8283797   3.88377172  3.92927231  3.95696832  3.96092489  3.93520717
  3.87388029  3.77496597  3.63055107  3.44261387  3.21115437  2.93815086
  2.62558162  2.28333808  1.91735511  1.53950242  1.15571487  0.77786218
  0.4138575   0.06765739 -0.25480328 -0.54956794 -0.81861488 -1.0619441
 -1.28153388 -1.47540594 -1.64751685 -1.79391004 -1.9165638  -2.01349983
 -2.07878327 -2.11439243 -2.118349   -2.09263128 -2.03723926 -1.95612952
 -1.85721521 -1.74445289 -1.62179913 -1.49716709 -1.37451334 -1.25383788
 -1.13711898 -1.02435666 -0.91555091 -0.80674517 -0.69793942 -0.59111196
 -0.48032792 -0.36954389]","[-2.26543855 -2.13002799 -1.9547908  -1.74370963 -1.50275849 -1.2399027
 -0.96509892 -0.68033849 -0.39159539 -0.10683495  0.17394283  0.44874661
  0.71359373  0.97047552  1.21939199  1.45835179  1.68934628  1.90640143
  2.10951727  2.29072846  2.450035    2.5754889   2.66709016  2.71687345
  2.72284745  2.68501214  2.60336754  2.48388764  2.33652909  2.16925722
  1.99402003  1.82674817  1.67341562  1.54796172  1.45835179  1.40657717
  1.39462918  1.42051649  1.48025644  1.56588371  1.67142429  1.78891286
  1.9103841   2.029864    2.14137858  2.2429365   2.33254643  2.41219969
  2.47990497  2.53765359  2.58942822  2.63522885  2.67505548  2.71488212
  2.75072609  2.78457873  2.81644004  2.84232735  2.86224067  2.87219733
  2.86821466  2.84830134  2.80648338  2.7387781   2.64319418  2.51375761
  2.35046841  2.15133524  1.91635809  1.64752831  1.34882855  1.02623281
  0.68372375  0.3292667  -0.03116434 -0.39159539 -0.74605243 -1.08657016
 -1.41115723 -1.71383966 -1.9926261  -2.24154257 -2.46058906 -2.64578291
 -2.79911545 -2.91461269 -2.99625729 -3.04205792 -3.05599724 -3.04006659
 -2.99625729 -2.92855201 -2.84292475 -2.74335816 -2.62985225 -2.50838102
 -2.37894445 -2.2435339  -2.10414068 -1.96076479 -1.81141491 -1.65808237
 -1.50076716 -1.34146062 -1.18016275 -1.02284754 -0.869515   -0.72613912
 -0.59471122 -0.48120531 -0.38960405 -0.31791611 -0.27410681 -0.2541935
 -0.26016749 -0.28804614 -0.33185543 -0.38960405 -0.45332667 -0.51704928
 -0.57081524 -0.60865054 -0.62856386 -0.6245812  -0.59471122 -0.54094527
 -0.46726599 -0.37765606 -0.27410681 -0.1665749  -0.05904299  0.0464976
  0.14208152  0.22970012  0.30935338  0.37905     0.44277261  0.50052123
  0.55826985  0.61402714]",3.5298562972810474,1.8715531292284813,5.05488,
046,1,2,csp,52b.png,1,1,348,349,355,1,1,329,pos_feedback_onset,3,"[ 1.20295577  1.12383996  1.01901153  0.89044835  0.74408412  0.58585251
  0.42366512  0.25949983  0.10324612 -0.04311811 -0.17563708 -0.29431078
 -0.39716133 -0.49012239 -0.57714977 -0.66219926 -0.75516033 -0.85801087
 -0.97866247 -1.12107091 -1.28325831 -1.46720254 -1.66894784 -1.88651629
 -2.11199633 -2.34341005 -2.57284587 -2.79832591 -3.01787226 -3.22555124
 -3.42531864 -3.61321867 -3.79518501 -3.96923978 -4.13538296 -4.29757035
 -4.45382406 -4.60809988 -4.756442   -4.90082834 -5.04323679 -5.18168944
 -5.32014209 -5.45661685 -5.5950695  -5.73352216 -5.8739527  -6.01833904
 -6.16470328 -6.3130454  -6.46336543 -6.61566335 -6.76993916 -6.92223708
 -7.07651289 -7.22881081 -7.37715294 -7.51758349 -7.65010245 -7.76877616
 -7.8716267  -7.95469829 -8.01205725 -8.04172567 -8.04370357 -8.01403514
 -7.95667619 -7.8716267  -7.76284247 -7.63625719 -7.49780454 -7.3534182
 -7.20903186 -7.06860131 -6.94003813 -6.82729812 -6.73235915 -6.65719914
 -6.60379598 -6.57017176 -6.5563265  -6.55830439 -6.57412755 -6.60181808
 -6.6354423  -6.6730223  -6.71060231 -6.74422652 -6.76993916 -6.78576232
 -6.78971811 -6.77587285 -6.74620442 -6.69675704 -6.62753072 -6.53852544
 -6.42776332 -6.29920014 -6.15283591 -5.99064851 -5.82054954 -5.64253898
 -5.46255054 -5.28651788 -5.11444101 -4.95423151 -4.80588938 -4.67337041
 -4.5586525  -4.46173564 -4.38064195 -4.3193272  -4.27383561 -4.24416719
 -4.22834403 -4.22438824 -4.22834403 -4.24218929 -4.25603456 -4.27383561
 -4.28768088 -4.29954825 -4.30350404 -4.29757035 -4.28372509 -4.25603456
 -4.21449876 -4.1610956  -4.08989137 -4.0008861  -3.89605766 -3.77342817
 -3.63299762 -3.47674391 -3.30862283 -3.13061228 -2.94864593 -2.76667959
 -2.58866903 -2.42252585 -2.27220583 -2.14166475 -2.03288053 -1.94585315
 -1.8825605  -1.84102471 -1.81728997 -1.80937839 -1.81531207 -1.82717944
 -1.84695839 -1.87069313 -1.89442787 -1.92014051 -1.94585315 -1.97156578
 -1.99530052 -2.01903526 -2.04079211 -2.05859316 -2.07046053 -2.07441632
 -2.06848264 -2.04672579 -2.00914579 -1.95178683 -1.87267103 -1.77179838
 -1.6452131  -1.49687097 -1.326772   -1.13689407 -0.92921509 -0.70966874
 -0.48023292 -0.2468413  -0.01147179  0.22191982  0.45135565  0.670902
  0.88451466  1.09219364  1.29393894  1.49568423  1.70138532  1.91499798
  2.14443381  2.3877149   2.65077494  2.92570235  3.21051924  3.49533612
  3.76828564  4.01552252  4.22913519  4.39330047  4.5020847   4.55350997
  4.54757629  4.49021733  4.39725626  4.27858256  4.15397517  4.03925726
  3.94827409  3.89091513  3.87113618  3.89289303  3.95025198  4.03530147
  4.13419622  4.23704677  4.33000783  4.40318995  4.44868154  4.4625268
  4.44274785  4.39330047  4.32011836  4.23111308  4.13221833  4.03530147
  3.9443183   3.86915829  3.81179933  3.77421932  3.75444037  3.75444037
  3.76630774  3.7860867   3.81179933  3.83355618  3.85333513  3.86124671
  3.85729092  3.84146776  3.81377723  3.77224143  3.72279405  3.6654351
  3.60609825  3.54676139  3.49138033  3.44391085  3.40830874  3.38259611
  3.37270663  3.37666242  3.39446348  3.4261098   3.47160138  3.52500455
  3.58829719  3.65752352  3.73268353  3.80982144  3.88893724  3.97200883
  4.05705832  4.1421078 ]","[-5.00691008e-01 -3.53996649e-01 -2.09232480e-01 -7.60494437e-02
  3.97618919e-02  1.26620394e-01  1.80665684e-01  2.03827951e-01
  1.98037384e-01  1.69084550e-01  1.22760016e-01  6.87147258e-02
  1.65996248e-02 -2.58645316e-02 -5.09569877e-02 -5.48173655e-02
 -3.74456652e-02  1.15811336e-03  5.71335922e-02  1.24690205e-01
  1.96107195e-01  2.63663807e-01  3.17709097e-01  3.54382687e-01
  3.64033632e-01  3.44731742e-01  2.96477019e-01  2.17339273e-01
  1.15039260e-01 -6.56264235e-03 -1.39745678e-01 -2.80649470e-01
 -4.17692884e-01 -5.50875920e-01 -6.72477822e-01 -7.82498591e-01
 -8.79008037e-01 -9.63936350e-01 -1.03535334e+00 -1.09325901e+00
 -1.14151373e+00 -1.17818732e+00 -1.20520997e+00 -1.22065148e+00
 -1.22644204e+00 -1.22451186e+00 -1.21293072e+00 -1.19941940e+00
 -1.18204770e+00 -1.16660619e+00 -1.15888543e+00 -1.15888543e+00
 -1.17046657e+00 -1.19555902e+00 -1.23609299e+00 -1.29206847e+00
 -1.35962508e+00 -1.44069302e+00 -1.52948171e+00 -1.62792134e+00
 -1.72829117e+00 -1.83059118e+00 -1.93289119e+00 -2.03326102e+00
 -2.12977046e+00 -2.22048934e+00 -2.30348747e+00 -2.37876483e+00
 -2.44439126e+00 -2.49457617e+00 -2.53124976e+00 -2.54862146e+00
 -2.54862146e+00 -2.53124976e+00 -2.49650636e+00 -2.44825163e+00
 -2.38648559e+00 -2.31699879e+00 -2.24558180e+00 -2.17223462e+00
 -2.10081763e+00 -2.03133083e+00 -1.96184403e+00 -1.89042703e+00
 -1.81128929e+00 -1.72250060e+00 -1.61827040e+00 -1.49666849e+00
 -1.35576470e+00 -1.19748921e+00 -1.02377221e+00 -8.40404259e-01
 -6.51245744e-01 -4.62087229e-01 -2.76789092e-01 -1.01141900e-01
  6.29241590e-02  2.17339273e-01  3.62103443e-01  4.99146856e-01
  6.28469515e-01  7.53931795e-01  8.75533697e-01  9.91345033e-01
  1.10329599e+00  1.20559600e+00  1.29438469e+00  1.36773187e+00
  1.42177716e+00  1.45459038e+00  1.46810170e+00  1.46231113e+00
  1.44300924e+00  1.41598660e+00  1.38896395e+00  1.36773187e+00
  1.36194131e+00  1.37545263e+00  1.41405641e+00  1.47775264e+00
  1.56461114e+00  1.67270172e+00  1.79237344e+00  1.91783572e+00
  2.04329800e+00  2.15717914e+00  2.25561878e+00  2.33475653e+00
  2.39459238e+00  2.43319616e+00  2.45635843e+00  2.46600937e+00
  2.46986975e+00  2.46986975e+00  2.47179994e+00  2.47759051e+00
  2.49110183e+00  2.50847353e+00  2.52970561e+00  2.55093769e+00]",3.2989311455176917,2.235030098079333,5.05588,-0.19238999999999962
046,1,2,csm,34a.png,1,1,320,127,321,1,1,268,neu_feedback_onset,4,"[ 2.72853870e-01  2.84175608e-01  2.84175608e-01  2.74740827e-01
  2.48323439e-01  2.08697359e-01  1.55862584e-01  9.17060726e-02
  2.18886922e-02 -5.35895568e-02 -1.23406937e-01 -1.85676493e-01
 -2.36624311e-01 -2.66815610e-01 -2.74363435e-01 -2.59267786e-01
 -2.19641705e-01 -1.57372149e-01 -7.81199878e-02  1.24539111e-02
  1.03027810e-01  1.89827796e-01  2.59645177e-01  3.04932126e-01
  3.20027776e-01  2.95497345e-01  2.33227790e-01  1.33219110e-01
 -6.41565117e-03 -1.78128668e-01 -3.76259072e-01 -5.95145994e-01
 -8.29128566e-01 -1.06877201e+00 -1.31030240e+00 -1.54805889e+00
 -1.77826755e+00 -1.99715447e+00 -2.20471965e+00 -2.39718919e+00
 -2.57456308e+00 -2.73495435e+00 -2.88024998e+00 -3.00667605e+00
 -3.11423256e+00 -3.20291950e+00 -3.26896297e+00 -3.30858905e+00
 -3.31991078e+00 -3.30292818e+00 -3.25009340e+00 -3.16329342e+00
 -3.04064126e+00 -2.88591085e+00 -2.69910219e+00 -2.48776309e+00
 -2.25755443e+00 -2.01602403e+00 -1.77449364e+00 -1.53673715e+00
 -1.31218936e+00 -1.10839809e+00 -9.27250290e-01 -7.72519879e-01
 -6.44206856e-01 -5.44198176e-01 -4.70606883e-01 -4.21546021e-01
 -3.95128634e-01 -3.91354721e-01 -4.08337327e-01 -4.44189496e-01
 -4.98911226e-01 -5.70615563e-01 -6.55528593e-01 -7.53650317e-01
 -8.59319865e-01 -9.68763327e-01 -1.08009374e+00 -1.18387634e+00
 -1.27822415e+00 -1.35936327e+00 -1.41974586e+00 -1.45937195e+00
 -1.47635455e+00 -1.46691977e+00 -1.43295456e+00 -1.37445892e+00
 -1.29143284e+00 -1.19142416e+00 -1.07443288e+00 -9.46119852e-01
 -8.10259004e-01 -6.74398155e-01 -5.44198176e-01 -4.23432977e-01
 -3.17763429e-01 -2.30963442e-01 -1.68693887e-01 -1.32841718e-01
 -1.25293893e-01 -1.46050412e-01 -1.95111274e-01 -2.68702567e-01
 -3.63050378e-01 -4.76267752e-01 -6.04580775e-01 -7.40441623e-01
 -8.81963340e-01 -1.02348506e+00 -1.16123286e+00 -1.29143284e+00
 -1.41031108e+00 -1.51220672e+00 -1.59523279e+00 -1.65561539e+00
 -1.68769365e+00 -1.69146756e+00 -1.66127626e+00 -1.59900671e+00
 -1.50277194e+00 -1.37445892e+00 -1.21784155e+00 -1.03669375e+00
 -8.40450303e-01 -6.34772075e-01 -4.32867758e-01 -2.38511267e-01
 -6.49112942e-02  8.22712915e-02  2.01149534e-01  2.86062564e-01
  3.40784294e-01  3.65314725e-01  3.65314725e-01  3.44558207e-01
  3.14366907e-01  2.76627783e-01  2.37001702e-01  1.95488665e-01
  1.55862584e-01  1.14349547e-01  6.34017292e-02  3.01912996e-03
 -7.62330315e-02 -1.78128668e-01 -3.08328647e-01 -4.68719927e-01
 -6.57415549e-01 -8.74415515e-01 -1.11405896e+00 -1.37257196e+00
 -1.64240670e+00 -1.91601535e+00 -2.18962401e+00 -2.45568483e+00
 -2.71042392e+00 -2.94818041e+00 -3.16518037e+00 -3.35953687e+00
 -3.53124988e+00 -3.67654551e+00 -3.79542375e+00 -3.88599765e+00
 -3.95204112e+00 -3.98978025e+00 -4.00110198e+00 -3.98789329e+00
 -3.95204112e+00 -3.89354548e+00 -3.81618027e+00 -3.71805855e+00
 -3.60295422e+00 -3.46898033e+00 -3.31613687e+00 -3.14442386e+00
 -2.95006736e+00 -2.73306740e+00 -2.49153700e+00 -2.22547617e+00
 -1.93299796e+00 -1.61976322e+00 -1.28577197e+00 -9.36685071e-01
 -5.78163388e-01 -2.17754749e-01  1.35106066e-01  4.72871230e-01
  7.86105964e-01  1.07292331e+00  1.32388849e+00  1.54088845e+00
  1.72014930e+00  1.86921884e+00  1.98998404e+00  2.09187967e+00
  2.18056662e+00  2.26170573e+00  2.34473181e+00  2.42775788e+00
  2.51644482e+00  2.60324481e+00  2.68627088e+00  2.75797522e+00
  2.81269695e+00  2.84288825e+00  2.84666216e+00  2.81835782e+00
  2.75986218e+00  2.67683610e+00  2.57116655e+00  2.45417527e+00
  2.33152311e+00  2.21264487e+00  2.10508837e+00  2.01262751e+00
  1.93903622e+00  1.88242753e+00  1.84280145e+00  1.81261015e+00
  1.78996668e+00  1.76354929e+00  1.72769712e+00  1.67863626e+00
  1.60504497e+00  1.50126237e+00  1.36540153e+00  1.19180155e+00
  9.78575499e-01  7.23836408e-01  4.31358193e-01  1.04914766e-01
 -2.49833004e-01 -6.21563381e-01 -1.00461549e+00 -1.38200674e+00
 -1.74430234e+00 -2.07829359e+00 -2.37077180e+00 -2.61230220e+00
 -2.79722391e+00 -2.91987606e+00 -2.97837171e+00 -2.97837171e+00
 -2.92553693e+00 -2.83118912e+00 -2.70476305e+00 -2.55946743e+00
 -2.41039788e+00 -2.26698921e+00 -2.13867619e+00 -2.03678055e+00
 -1.96130230e+00 -1.91412840e+00 -1.89525883e+00 -1.90091970e+00
 -1.92356318e+00 -1.95752839e+00 -1.99526751e+00 -2.02923273e+00]","[-2.33510872 -2.234906   -2.12506841 -2.00174199 -1.85721884 -1.68186408
 -1.46796982 -1.2116821  -0.90914697 -0.5622914  -0.17304239  0.24703824
  0.68446164  1.12766597  1.55930845  1.96397327  2.33009858  2.64419556
  2.90241026  3.10088872  3.24155792  3.32827181  3.36488434  3.36103039
  3.32634484  3.26853558  3.19531051  3.11245057  3.02766366  2.94287674
  2.86387075  2.78871872  2.72127458  2.66153834  2.60372908  2.55170075
  2.49967241  2.44957106  2.39561575  2.33780649  2.27614327  2.21062611
  2.141255    2.06995691  1.99865883  1.93121469  1.8676245   1.81366919
  1.77127573  1.74429808  1.73080925  1.7346632   1.75393296  1.78861851
  1.83293895  1.88496728  1.93892259  1.98709697  2.02756346  2.05261413
  2.06032204  2.04490623  2.0082937   1.95048444  1.87340543  1.78283759
  1.68070789  1.57279727  1.46295968  1.35697604  1.25677332  1.16235153
  1.07371066  0.9927777   0.91762566  0.8444006   0.77310251  0.70180442
  0.63436028  0.56884312  0.50910689  0.45900553  0.42431997  0.40697719
  0.41083114  0.43973577  0.48983713  0.56113522  0.64784911  0.74612485
  0.84825455  0.94460331  1.02746325  1.09105344  1.12959295  1.1411548
  1.12959295  1.09683436  1.05251393  1.00241257  0.96001912  0.93496844
  0.92918751  0.95231121  1.00433955  1.07756461  1.17005943  1.2664082
  1.35890301  1.4302011   1.47259456  1.47452153  1.43212807  1.34541418
  1.21437986  1.04865998  0.86174337  0.66326491  0.4686404   0.2894317
  0.13527367  0.01194725 -0.07669362 -0.1325759  -0.15762658 -0.16148053
 -0.14991868 -0.1325759  -0.11523313 -0.10559825 -0.1094522  -0.124868
 -0.15762658 -0.20387399 -0.2655372  -0.33683529 -0.41776825 -0.50640912
 -0.60083091 -0.69717968]",2.019231857859372,1.6774802099632395,5.2995399999999995,-0.048804999999999765
046,1,2,csp,35b.png,1,1,8,131,7,1,1,501,pos_feedback_onset,5,"[ 1.55065558  1.46943672  1.38613531  1.29450377  1.19037702  1.06958999
  0.93006014  0.77387002  0.594772    0.39901371  0.18243007 -0.05081385
 -0.30280059 -0.57144761 -0.85467238 -1.15455742 -1.46902021 -1.79806074
 -2.14167902 -2.49779251 -2.86223614 -3.23292738 -3.60778368 -3.98263999
 -4.35124869 -4.70736218 -5.04681539 -5.36336071 -5.65075055 -5.90690235
 -6.12556853 -6.30466654 -6.44003132 -6.53582793 -6.58789131 -6.60246905
 -6.58372624 -6.5337454  -6.46085667 -6.37130767 -6.26926345 -6.1651367
 -6.06100995 -5.96521333 -5.8798294  -5.80694067 -5.74654716 -5.69864885
 -5.66116322 -5.63200773 -5.60493478 -5.57994435 -5.55495393 -5.52371591
 -5.48831281 -5.44666211 -5.40084634 -5.35294804 -5.3029672  -5.25298636
 -5.20717058 -5.16551988 -5.12595172 -5.09263116 -5.06347567 -5.03432018
 -5.00724722 -4.97809173 -4.94685371 -4.90936808 -4.86771738 -4.81773653
 -4.75942555 -4.6907019  -4.61573064 -4.5303467  -4.43663262 -4.33667094
 -4.23046166 -4.11800476 -3.99930027 -3.8764307  -3.74939606 -3.61611382
 -3.47866651 -3.33288906 -3.18294654 -3.02467388 -2.86015361 -2.69146827
 -2.51861786 -2.34160239 -2.16458691 -1.98965397 -1.82096863 -1.66061343
 -1.51275344 -1.37738867 -1.25660164 -1.15455742 -1.06917348 -1.00253236
 -0.95463406 -0.92339603 -0.90673575 -0.90465322 -0.91506589 -0.93589124
 -0.9629642  -0.99628476 -1.02960532 -1.06292588 -1.09208137 -1.11707179
 -1.13373207 -1.13997967 -1.13789714 -1.12331939 -1.09624644 -1.05876081
 -1.0108625  -0.95046899 -0.88174533 -0.80469153 -0.72139013 -0.63184113
 -0.53604452 -0.43816537 -0.33820369 -0.23615947 -0.13411526 -0.03207104
  0.06789064  0.16785232  0.267814    0.36777569  0.4698199   0.57394665
  0.68640355  0.80302551  0.92797761  1.06334239  1.20495477  1.35281475
  1.50692235  1.66102994  1.813055    1.96091498  2.10044483  2.229562
  2.34618396  2.45239325  2.54818986  2.6335738   2.7168752   2.79601153
  2.87514786  2.9605318   3.05424587  3.15420755  3.26249938  3.38120387
  3.50615597  3.63735568  3.77272046  3.91016777  4.04761508  4.18506239
  4.31834463  4.45162688  4.58074405  4.70569615  4.82856572  4.94935275
  5.06805724  5.18676174  5.3033837   5.4220882   5.54287523  5.66782733
  5.7969445   5.93230928  6.07392166  6.22178165  6.37797178  6.54249204
  6.71325992  6.89235793  7.07770355  7.2713793   7.4733852   7.68372124
  7.90238742  8.13146627  8.36679273  8.60628426  8.85202339  9.09984506
  9.34766673  9.58924079  9.82456725 10.0473985  10.25773454 10.45141029
 10.62842577 10.78253336 10.9158156  11.02410743 11.10740883 11.16363727
 11.19071023 11.18862769 11.15114206 11.08241841 10.97620912 10.8325142
 10.65133366 10.43475001 10.18276327  9.90162105  9.5954884   9.27061293
  8.93948986  8.61044933  8.293904    8.00026656  7.73994969  7.51920097
  7.33802043  7.20057311  7.10061143  7.03397031  6.99231961  6.96732919
  6.94858638  6.92984356  6.90068807  6.85695483  6.79864385  6.72367259
  6.63412359  6.5341619   6.42795262  6.32174333  6.21969912  6.12806757
  6.05309631  5.9989504   5.96562984  5.95521717  5.96979491  6.00311547
  6.05309631  6.11557236  6.18429602  6.25093714  6.31341319  6.36339403
  6.40087966  6.41962248]","[-2.58150032 -2.52226006 -2.41647387 -2.26414176 -2.06949518 -1.83041839
 -1.55325858 -1.23801575 -0.88892133 -0.5123225  -0.11033499  0.30857831
  0.74018595  1.17814077  1.61397986  2.04347178  2.45815363  2.85379397
  3.22404562  3.56679287  3.87780426  4.15284835  4.39615658  4.6034975
  4.77698685  4.91874034  5.03298942  5.1197341   5.18320581  5.22763601
  5.25725614  5.27841338  5.29533917  5.31226496  5.33342219  5.36727377
  5.41805114  5.4857543   5.57249898  5.68251661  5.80946004  5.95332925
  6.10566136  6.26222492  6.41667275  6.56054196  6.69171684  6.80173447
  6.89059487  6.9561823   6.99849678  7.01965402  7.02176974  7.01119112
  6.98791816  6.95829803  6.92444645  6.88847914  6.85462756  6.82500743
  6.80385019  6.79115585  6.7869244   6.7953873   6.81654454  6.84828039
  6.88636342  6.93290934  6.98157099  7.02811691  7.07043139  7.10216724
  7.12332448  7.1254402   7.11063014  7.07677856  7.01965402  6.94348796
  6.84404895  6.72979986  6.59862499  6.4568715   6.30665511  6.15432301
  6.00622234  5.86446885  5.73329398  5.61692918  5.51325871  5.42439831
  5.35034798  5.288992    5.24033035  5.2001316   5.17051147  5.14935423
  5.13877561  5.13877561  5.15358568  5.18320581  5.22552028  5.28476055
  5.35669515  5.4413241   5.53441595  5.63597069  5.73964115  5.84331162
  5.94698208  6.05065254  6.15009156  6.24953057  6.34685387  6.44629288
  6.54361617  6.64305519  6.74037848  6.83558605  6.92656217  7.0090754
  7.08312573  7.14236599  7.18679619  7.21218488  7.22064777  7.20795343
  7.17621757  7.12332448  7.0535056   6.96676092  6.86732191  6.75518855
  6.63670802  6.51188032  6.38705262  6.26434064  6.14586011  6.03584248
  5.93428774  5.84119589]",9.533897422654642,6.538738255235483,4.80184,-0.1723699999999999
046,1,2,csp,58b.png,1,1,220,44,216,1,0,357,neg_feedback_onset,6,"[ 1.32090589  1.1339902   0.94287415  0.74755776  0.55854189  0.37582655
  0.20571227  0.04609887 -0.09461294 -0.22062352 -0.32773251 -0.41804009
 -0.48734591 -0.53564997 -0.56505244 -0.57765349 -0.57135297 -0.5503512
 -0.5146482  -0.46844433 -0.41383974 -0.35293463 -0.28782916 -0.21852335
 -0.1513177  -0.08201188 -0.01480624  0.04819905  0.10910416  0.16580892
  0.21621315  0.26031685  0.29812003  0.3275225   0.34852426  0.36112532
  0.36532567  0.36322549  0.35272461  0.34012355  0.32332214  0.30442056
  0.28971932  0.27711826  0.27081774  0.27081774  0.28131862  0.30442056
  0.34012355  0.39052778  0.45353307  0.5312396   0.62154718  0.72445582
  0.83576516  0.95547521  1.08148579  1.21169672  1.34190765  1.47421876
  1.60442969  1.7367408   1.87115208  2.00766354  2.15047553  2.29958805
  2.4550011   2.61671467  2.78472878  2.95694324  3.12915769  3.30137215
  3.4651859   3.62269913  3.76761129  3.90202257  4.0238328   4.13304197
  4.23175026  4.32625819  4.41656577  4.50687335  4.60138129  4.70218975
  4.80719856  4.92060809  5.04241831  5.16632871  5.29233929  5.41624969
  5.53385957  5.64096856  5.73337632  5.80898266  5.86148707  5.88668919
  5.88668919  5.8593869   5.80268214  5.72077526  5.61366627  5.48345534
  5.33434282  5.17262924  5.00251496  4.82610015  4.65178552  4.47957106
  4.31785748  4.16664479  4.02803315  3.90412275  3.79701376  3.704606
  3.62689948  3.56389419  3.51559013  3.47778696  3.45048467  3.43158308
  3.4210822   3.41688185  3.41688185  3.41898202  3.4210822   3.42528255
  3.42318238  3.41898202  3.40638097  3.38747938  3.36017709  3.32447409
  3.28037039  3.22786598  3.16906104  3.10605575  3.04305046  2.98004517
  2.92334041  2.87713654  2.84563389  2.83093266  2.83933336  2.86873583
  2.92124024  2.99474641  3.08505399  3.1816621   3.27827021  3.36437744
  3.42948291  3.46308573  3.46098555  3.41688185  3.33077462  3.20056369
  3.03674994  2.84143354  2.62721555  2.40039651  2.17357747  1.95725931
  1.75774256  1.58342793  1.44271612  1.33980748  1.27890236  1.26000078
  1.28730307  1.35870906  1.47001841  1.61913093  1.79974609  2.00556337
  2.2239817   2.44870057  2.67131926  2.88553724  3.08715417  3.27196968
  3.44628432  3.61009807  3.77391182  3.94192592  4.12674144  4.33675907
  4.57617917  4.85130227  5.16212836  5.50865745  5.88248883  6.27732198
  6.68055583  7.08588986  7.48072301  7.85665457  8.20528383  8.52661081
  8.81223479  9.06635612  9.28897481  9.48219103  9.64600478  9.78461642
  9.89592576  9.98203299 10.04503828 10.08074128 10.09334234 10.08284145
 10.05133881 10.00303475  9.94002947  9.87072365  9.79931765  9.72791166
  9.66280619  9.60610143  9.5556972   9.51369367  9.4758905   9.44228768
  9.40658468  9.36878151  9.32467781  9.27637375  9.22176917  9.16086405
  9.09785877  9.03485348  8.96974801  8.9088429   8.85003796  8.79543338
  8.74502915  8.69672509  8.65052121  8.60851769  8.56861434  8.53081116
  8.49720834  8.46990605  8.44470393  8.42580235  8.41110111  8.40270041
  8.39639988  8.3942997   8.39639988  8.40270041  8.41320129  8.4300027
  8.45520481  8.49090781  8.53711169  8.59591663  8.66732262  8.75132967
  8.84583761  8.94664607]","[-1.6503135  -1.49208776 -1.33958103 -1.19088696 -1.0479119  -0.9030305
 -0.75624277 -0.59992337 -0.43407229 -0.25487688 -0.06043079  0.14926597
  0.37230706  0.60678617  0.84698427  1.09099505  1.33309949  1.56567226
  1.78299436  1.98125311  2.15663585  2.30342359  2.4216163   2.50549501
  2.55696603  2.5722167   2.55124703  2.494057    2.39492763  2.25576523
  2.07085082  1.83827805  1.55804692  1.23015744  0.85842228  0.4466541
  0.00438457 -0.45504197 -0.92018751 -1.37580138 -1.80853923 -2.20315041
 -2.55010323 -2.84558503 -3.0838768  -3.26688488 -3.3965156  -3.48230064
 -3.52995899 -3.54520967 -3.535678   -3.50327032 -3.45370563 -3.38317126
 -3.29166722 -3.17728717 -3.04003111 -2.87608637 -2.68926562 -2.47956886
 -2.2527151  -2.01442332 -1.77613155 -1.54165245 -1.32623669 -1.13560327
 -0.97928387 -0.86490382 -0.79818212 -0.78293145 -0.8191518  -0.90684317
 -1.04409923 -1.22710731 -1.45014841 -1.70750352 -1.98964098 -2.28893545
 -2.59585525 -2.90086872 -3.19444418 -3.4632373  -3.7034354  -3.90360049
 -4.05801356 -4.16667461 -4.2276773  -4.24292798 -4.2162393  -4.15333027
 -4.06182623 -3.94935251 -3.82162812 -3.68818473 -3.55092867 -3.41557894
 -3.28404189 -3.1563175  -3.03431211 -2.91611939 -2.80173934 -2.68735929
 -2.5710729  -2.45288018 -2.3308748  -2.20505674 -2.07542602 -1.94198263
 -1.80853923 -1.67890851 -1.55690312 -1.45014841 -1.3605507  -1.29764167
 -1.26332766 -1.26332766 -1.29764167 -1.37198871 -1.47874342 -1.61790582
 -1.78185055 -1.96485864 -2.15549205 -2.34612547 -2.52913355 -2.69307829
 -2.83224069 -2.94280807 -3.0228741  -3.07434513 -3.10103381 -3.10865914
 -3.10294014 -3.09150213 -3.0838768  -3.08578313 -3.10103381 -3.13344149
 -3.18491251 -3.25544687]",8.933362455778191,0.5924410037230784,4.761504999999999,0.036430000000000184
046,1,2,csp,23b.png,1,1,284,317,287,1,1,535,pos_feedback_onset,7,"[  2.61385187   2.46400517   2.28107543   2.06895478   1.82764321
   1.55908679   1.26328552   0.94802363   0.61135507   0.26301015
  -0.09506508  -0.45508637  -0.81510766  -1.16734471  -1.50595933
  -1.82705939  -2.12675279  -2.4011474   -2.64635109  -2.8604178
  -3.03945541  -3.18540999  -3.29633547  -3.37612397  -3.43061368
  -3.4598046   -3.47537308  -3.48315733  -3.48899551  -3.50067188
  -3.52597067  -3.56683795  -3.62521978  -3.70111616  -3.79452709
  -3.90156045  -4.01637805  -4.13508777  -4.25185143  -4.36472297
  -4.46591815  -4.55932908  -4.63911758  -4.71112184  -4.77534185
  -4.8376158   -4.89794369  -4.96410977  -5.03806009  -5.12174071
  -5.21515164  -5.322185    -5.43894866  -5.55960444  -5.68220629
  -5.79896995  -5.90600331  -5.99162999  -6.05390394  -6.08504092
  -6.08309486  -6.04417364  -5.96827726  -5.85735178  -5.71528933
  -5.54598202  -5.3572141   -5.15287769  -4.9427031   -4.73058245
  -4.52429998  -4.32774781  -4.14481808  -3.97745683  -3.82371801
  -3.68360161  -3.55321553  -3.43061368  -3.3099579   -3.18540999
  -3.0550239   -2.91296145  -2.75727657  -2.58796926  -2.40309346
  -2.21043342  -2.00998913  -1.80954485  -1.61493874  -1.43395507
  -1.272432    -1.13426167  -1.02528225  -0.94549375  -0.89684222
  -0.87543555  -0.87738161  -0.8929501   -0.91630283  -0.93381738
  -0.93965557  -0.92214102  -0.87543555  -0.79370099  -0.67888339
  -0.53098275  -0.3538912   -0.1592851    0.04699737   0.25133378
   0.44399382   0.61330113   0.75147147   0.85072058   0.90910241
   0.92661696   0.90131816   0.83904421   0.74757934   0.62886962
   0.49264535   0.34474471   0.19295195   0.04115919  -0.10674145
  -0.24296572  -0.36556756  -0.47260092  -0.56211973  -0.63023186
  -0.67499127  -0.70029006  -0.70029006  -0.67888339  -0.63996217
  -0.58547246  -0.51930638  -0.44730213  -0.37724393  -0.31496998
  -0.26631845  -0.23518148  -0.22739723  -0.24491178  -0.28577906
  -0.35194514  -0.43951788  -0.54460518  -0.6633149   -0.79370099
  -0.9279792   -1.06420347  -1.19848168  -1.32886777  -1.45341568
  -1.57407146  -1.686943    -1.79592242  -1.89906365  -1.9963667
  -2.09172369  -2.1812425   -2.26686919  -2.35054981  -2.42839225
  -2.50039651  -2.56461652  -2.62299835  -2.67359594  -2.71251716
  -2.74170808  -2.76116869  -2.76895293  -2.76895293  -2.76116869
  -2.7456002   -2.72419353  -2.69694867  -2.66775776  -2.63662078
  -2.60353774  -2.56656258  -2.52374924  -2.47704378  -2.41866195
  -2.35054981  -2.26686919  -2.16372795  -2.04112611  -1.89517153
  -1.72781028  -1.5370963   -1.32692171  -1.09728651  -0.85208282
  -0.59714883  -0.33637665  -0.07365841   0.18322165   0.43426352
   0.66779084   0.88380362   1.07840972   1.24187884   1.37615705
   1.47346011   1.53184194   1.54741043   1.51627345   1.44037707
   1.31582916   1.14457579   0.92856302   0.6697369    0.37198957
   0.04310525  -0.31691604  -0.70029006  -1.10312469  -1.51958175
  -1.94771518  -2.38363285  -2.82928082  -3.27882092  -3.73614526
  -4.19736173  -4.66441637  -5.13536314  -5.60825597  -6.0811488
  -6.55209557  -7.01720415  -7.47258243  -7.91628435  -8.34247171
  -8.75114453  -9.13646461  -9.4964859   -9.83315446 -10.13868604
 -10.41697277 -10.66412252 -10.87818923 -11.0591729  -11.20318142
 -11.31021478 -11.37638085 -11.39973358 -11.37638085 -11.30826872
 -11.19345112 -11.02998199 -10.8198074  -10.56681946 -10.27491031
  -9.946026    -9.58989683  -9.21041493  -8.8173106   -8.41836809]","[-3.93943613 -3.70633951 -3.42373563 -3.09781291 -2.73063416 -2.32632496
 -1.89107374 -1.42694329 -0.94012201 -0.43060992  0.09127899  0.62554471
  1.16187323  1.69613895  2.22009066  2.72547715  3.20817282  3.65992646
  4.07454966  4.44997963  4.78209075  5.07088303  5.31635647  5.51851107
  5.67734682  5.79698934  5.87537582  5.91456905  5.91456905  5.87537582
  5.80111494  5.69178644  5.5515159   5.39061735  5.21527917  5.0316898
  4.85222602  4.67895065  4.5201149   4.37778156  4.25401344  4.14674773
  4.05185884  3.96934676  3.89096029  3.81463661  3.73625014  3.65373806
  3.56297477  3.46396027  3.35669457  3.24117765  3.12359794  3.00601822
  2.89256411  2.79148682  2.70484913  2.63883947  2.59552063  2.57489261
  2.58108101  2.60996024  2.65946749  2.72753995  2.80798923  2.89875252
  2.99364141  3.09059311  3.1896076   3.28243369  3.37113418  3.44952066
  3.51759312  3.56916317  3.6001052   3.61041921  3.5959796   3.55059795
  3.47633708  3.36907138  3.23498925  3.07615349  2.89668972  2.70484913
  2.50475734  2.30879115  2.12313897  1.9539892   1.80959306  1.69407615
  1.60950127  1.55793122  1.5373032   1.5434916   1.57237083  1.61981528
  1.68169934  1.75389741  1.83022108  1.90860756  1.98699403  2.06538051
  2.14376699  2.22009066  2.29847714  2.37892641  2.46143849  2.54601338
  2.63471386  2.72753995  2.82036604  2.91319213  3.00395542  3.09059311
  3.16897958  3.24117765  3.29893611  3.34638056  3.37938539  3.39795061
  3.40207621  3.393825    3.37319698  3.34431775  3.30718732  3.26799408
  3.22673804  3.1896076   3.15866557  3.13184915  3.11534673  3.10709552
  3.10503272  3.10709552  3.10915833  3.10503272  3.09265591  3.06377668
  3.01426943  2.94000856]",-1.6497914145929826e-14,3.895807870621051,5.138585000000001,-0.14094500000000032
046,1,2,csp,36b.png,1,1,56,52,54,1,0,399,neg_feedback_onset,8,"[ 3.04736433e-01  1.75593174e-01  7.76942513e-02  8.95670993e-03
 -3.68683176e-02 -6.60296988e-02 -8.26933452e-02 -9.10251684e-02
 -9.51910800e-02 -9.51910800e-02 -9.51910800e-02 -9.10251684e-02
 -8.06103894e-02 -6.60296988e-02 -4.52001408e-02 -1.81217154e-02
  1.52055773e-02  5.26987817e-02  9.43578976e-02  1.33934058e-01
  1.71427262e-01  2.04754555e-01  2.29750024e-01  2.48496627e-01
  2.58911406e-01  2.63077317e-01  2.58911406e-01  2.48496627e-01
  2.33915936e-01  2.13086378e-01  1.88090909e-01  1.54763616e-01
  1.15187456e-01  6.31135607e-02  6.24886739e-04 -7.64444778e-02
 -1.70177489e-01 -2.82657102e-01 -4.13883317e-01 -5.68022046e-01
 -7.42990333e-01 -9.38788178e-01 -1.15124967e+00 -1.38245776e+00
 -1.62824655e+00 -1.88445011e+00 -2.15106845e+00 -2.42185271e+00
 -2.69888583e+00 -2.97800190e+00 -3.26336685e+00 -3.55081475e+00
 -3.84659447e+00 -4.14862306e+00 -4.46106643e+00 -4.78392458e+00
 -5.11719751e+00 -5.46296817e+00 -5.82123657e+00 -6.18783679e+00
 -6.56276883e+00 -6.93978383e+00 -7.32096474e+00 -7.70214565e+00
 -8.07707770e+00 -8.44784383e+00 -8.81236109e+00 -9.16646358e+00
 -9.51223424e+00 -9.84967308e+00 -1.01787801e+01 -1.04995553e+01
 -1.08140816e+01 -1.11223591e+01 -1.14243877e+01 -1.17201674e+01
 -1.20117812e+01 -1.22950632e+01 -1.25720963e+01 -1.28387146e+01
 -1.30970012e+01 -1.33469559e+01 -1.35844128e+01 -1.38135380e+01
 -1.40322483e+01 -1.42467928e+01 -1.44530054e+01 -1.46508862e+01
 -1.48425181e+01 -1.50237353e+01 -1.51882888e+01 -1.53320127e+01
 -1.54444924e+01 -1.55173958e+01 -1.55465572e+01 -1.55257276e+01
 -1.54507412e+01 -1.53215980e+01 -1.51424638e+01 -1.49175045e+01
 -1.46529691e+01 -1.43551065e+01 -1.40343313e+01 -1.36968924e+01
 -1.33490388e+01 -1.29928534e+01 -1.26366679e+01 -1.22825655e+01
 -1.19284630e+01 -1.15806093e+01 -1.12348387e+01 -1.08932339e+01
 -1.05537121e+01 -1.02162733e+01 -9.88091742e+00 -9.54972745e+00
 -9.22062043e+00 -8.89567932e+00 -8.57907004e+00 -8.27079259e+00
 -7.97292991e+00 -7.68756496e+00 -7.41886366e+00 -7.16890897e+00
 -6.93561792e+00 -6.72523938e+00 -6.53777336e+00 -6.37530281e+00
 -6.23991068e+00 -6.12951403e+00 -6.04827875e+00 -5.99620485e+00
 -5.96912643e+00 -5.96912643e+00 -5.99412190e+00 -6.03994693e+00
 -6.10035264e+00 -6.17117314e+00 -6.24824251e+00 -6.32114596e+00
 -6.38780054e+00 -6.44195740e+00 -6.47945060e+00 -6.49819720e+00
 -6.49611425e+00 -6.47320173e+00 -6.43362557e+00 -6.38155168e+00
 -6.31906300e+00 -6.25032546e+00 -6.18158792e+00 -6.11493333e+00
 -6.05244466e+00 -5.99620485e+00 -5.94829687e+00 -5.90663776e+00
 -5.87122751e+00 -5.83998317e+00 -5.81290474e+00 -5.78374336e+00
 -5.75458198e+00 -5.72333765e+00 -5.68376148e+00 -5.63793646e+00
 -5.58169665e+00 -5.51295911e+00 -5.42964088e+00 -5.32757604e+00
 -5.20468165e+00 -5.05887475e+00 -4.88807237e+00 -4.68810861e+00
 -4.46314939e+00 -4.20902878e+00 -3.92782975e+00 -3.62371820e+00
 -3.29669414e+00 -2.95092348e+00 -2.59265508e+00 -2.22188895e+00
 -1.84487395e+00 -1.46369304e+00 -1.08042917e+00 -7.01331217e-01
 -3.26399173e-01  4.22840027e-02  4.00552400e-01  7.48406018e-01
  1.08376190e+00  1.40245414e+00  1.70239977e+00  1.97943289e+00
  2.23355350e+00  2.46059568e+00  2.65639353e+00  2.82302999e+00
  2.95842212e+00  3.05840400e+00  3.12505858e+00  3.15838588e+00
  3.15838588e+00  3.12714154e+00  3.06465287e+00  2.97716872e+00
  2.86260615e+00  2.72513107e+00  2.57099234e+00  2.39810701e+00
  2.20855803e+00  2.00651132e+00  1.78988392e+00  1.55867582e+00
  1.31080408e+00  1.04626870e+00  7.58820797e-01  4.52626295e-01
  1.23519279e-01 -2.26417295e-01 -5.95100471e-01 -9.78364338e-01
 -1.37412594e+00 -1.77405345e+00 -2.16981505e+00 -2.55724483e+00
 -2.92801096e+00 -3.27794754e+00 -3.60080569e+00 -3.89450245e+00
 -4.15695489e+00 -4.38816298e+00 -4.59229265e+00 -4.76726093e+00
 -4.92139966e+00 -5.05887475e+00 -5.18593505e+00 -5.30882944e+00
 -5.43380679e+00 -5.56503300e+00 -5.70667400e+00 -5.86289568e+00
 -6.03369806e+00 -6.21908112e+00 -6.41696193e+00 -6.62109159e+00
 -6.82938717e+00 -7.03768275e+00 -7.23556355e+00 -7.42302958e+00
 -7.59591491e+00 -7.75213659e+00 -7.88961167e+00 -8.01042311e+00
 -8.11248794e+00 -8.20205504e+00 -8.27704145e+00 -8.34161308e+00
 -8.39576993e+00 -8.43951201e+00 -8.47492225e+00 -8.49783477e+00]","[-3.55365029 -3.25994234 -2.94463821 -2.61205714 -2.26435876 -1.90586228
 -1.53656772 -1.15647507 -0.76774396 -0.36821475  0.03995292  0.46323791
  0.89516138  1.33788293  1.79140256  2.24924143  2.71355916  3.17355765
  3.6292369   4.07627768  4.51036076  4.92716691  5.32669611  5.70894837
  6.0739237   6.42378171  6.75852239  7.08246499  7.3956095   7.69795592
  7.98950426  8.26809489  8.52940859  8.77128573  8.98940708  9.17729378
  9.33278623  9.45156518  9.53363064  9.57682299  9.58330184  9.55090758
  9.48827868  9.39325552  9.27231695  9.13194182  8.97428976  8.80583961
  8.62659137  8.44086428  8.25513719  8.0694101   7.88800225  7.71307324
  7.55110194  7.40424797  7.27467093  7.16669006  7.0846246   7.02631494
  6.99392068  6.98312259  6.99176106  7.01119762  7.03711302  7.06086881
  7.07382652  7.06518805  7.03063417  6.96152642  6.85138593  6.70021272
  6.50368755  6.26612964  5.98753901  5.6743945   5.33317496  4.97251887
  4.59458584  4.21233357  3.83224093  3.45646751  3.09149219  2.73947457
  2.40473388  2.08942975  1.79356218  1.51929078  1.26661556  1.04201535
  0.84549018  0.68351888  0.55826108  0.474036    0.43732251  0.44596098
  0.49995141  0.60145342  0.74182855  0.91675755  1.1219212   1.3465214
  1.58191968  1.82595644  2.0699932   2.31187034  2.54942824  2.78050729
  3.00510749  3.22754808  3.44782904  3.66595039  3.88191213  4.09571424
  4.30519712  4.50388191  4.69176862  4.864538    5.02003045  5.15392672
  5.26622682  5.35909037  5.43251736  5.49082703  5.53401937  5.56857325
  5.59664827  5.61824445  5.63552139  5.65063871  5.65711756  5.65711756
  5.64200024  5.61392521  5.56641363  5.49946549  5.40876157  5.29646147
  5.16040558  5.00707275]",1.3878213740426268,7.955652258419815,4.80087,-0.1376849999999985
046,1,2,csp,42b.png,1,1,64,149,64,1,1,522,pos_feedback_onset,9,"[ 2.75214257  2.63098338  2.47553384  2.28807999  2.0663358   1.8125873
  1.52454845  1.20907734  0.86617395  0.50041034  0.1117865  -0.29283949
 -0.7088956  -1.13866784 -1.57301213 -2.01650051 -2.45998889 -2.90576329
 -3.34925167 -3.79274005 -4.22937036 -4.66371465 -5.08891485 -5.50725698
 -5.914169   -6.3096509  -6.69141667 -7.05489426 -7.39551162 -7.70869672
 -7.99216351 -8.23448191 -8.43107985 -8.57738529 -8.66654017 -8.69168642
 -8.65282404 -8.54538098 -8.37164326 -8.13389691 -7.839      -7.49152457
 -7.10518676 -6.68684463 -6.24792829 -5.79986787 -5.35180744 -4.91517713
 -4.496835   -4.10363912 -3.74016153 -3.40868826 -3.11150532 -2.8463267
 -2.61543842 -2.41198242 -2.23595868 -2.08279517 -1.94563381 -1.82218859
 -1.71017349 -1.60273043 -1.49757339 -1.39013033 -1.28040124 -1.16838614
 -1.04951296 -0.92378172 -0.79347843 -0.65631708 -0.5168697  -0.3751363
 -0.23111688 -0.08709746  0.05463594  0.19408332  0.32895865  0.45697591
  0.57584909  0.68786419  0.78616316  0.870746    0.9416127   0.99647724
  1.03533962  1.05819985  1.06505792  1.05819985  1.03991167  1.0124794
  0.9827611   0.95304281  0.92789656  0.91418043  0.9118944   0.92561054
  0.95990088  1.01019337  1.08106007  1.16792893  1.26851393  1.38052903
  1.50397425  1.63199151  1.76458082  1.9040282   2.0457616   2.19206704
  2.34523056  2.50296611  2.67213178  2.85044155  3.0378954   3.23677936
  3.44480741  3.66197956  3.88600977  4.11232601  4.34321428  4.57410256
  4.80499084  5.03587912  5.26905343  5.50451375  5.74454612  5.9960086
  6.26118722  6.54465402  6.846409    7.16645216  7.50706952  7.86140302
  8.22488061  8.59064422  8.94954977  9.29245315  9.61021029  9.89367709
 10.14056753 10.34630956 10.50633114 10.62520431 10.70064306 10.73950544
 10.74179146 10.71435919 10.65949465 10.58176988 10.48575694 10.37145581
 10.24572457 10.10856321  9.96682981  9.82281039  9.68107699  9.54848768
  9.42732849  9.32217145  9.23530259  9.17129396  9.13014555  9.11414339
  9.12328748  9.1552918   9.21244236  9.28788111  9.38160803  9.49133712
  9.61249631  9.7427996   9.88224698 10.02855242 10.17942991 10.33487945
 10.49718705 10.66635272 10.84466248 11.03668838 11.24014439 11.46188857
 11.69963492 11.95566945 12.23227818 12.52488907 12.83350212 13.1558313
 13.4895906  13.83020796 14.17539737 14.5228728  14.86577618 15.20410753
 15.53100875 15.84647987 16.14594883 16.42484358 16.68316413 16.91405241
 17.11750842 17.28896011 17.42612147 17.52899248 17.59528714 17.62500543
 17.61814736 17.57699896 17.50384623 17.40326124 17.27981602 17.13808262
 16.98720513 16.8317556  16.67630606 16.53000062 16.39283926 16.26939404
 16.16195098 16.07051008 15.99278531 15.92649066 15.87391214 15.83047771
 15.79390135 15.76418306 15.74132283 15.72303465 15.71160454 15.70703249
 15.70703249 15.71617658 15.73446476 15.75732499 15.78704328 15.82590566
 15.86705407 15.91506055 15.96763906 16.02250361 16.08194019 16.1436628
 16.20995746 16.27625211 16.34254677 16.41112744 16.4774221  16.54371675
 16.60543936 16.66487595 16.72202651 16.77917708 16.83861366 16.90490832
 16.98034706 17.07178797 17.18151705 17.31182034 17.46498385 17.64100759
 17.83303348 18.03877551]","[-1.55064571 -1.50109798 -1.42776734 -1.33065379 -1.20975734 -1.06309606
 -0.89661569 -0.70833432 -0.50221577 -0.27826004 -0.04439476  0.20136197
  0.45306443  0.7067488   0.95845126  1.20420799  1.43807327  1.65806518
  1.858238    2.03462792  2.18723492  2.3120952   2.41119065  2.48253938
  2.5301052   2.55587002  2.56379766  2.55587002  2.53406902  2.50434038
  2.4647022   2.42308211  2.37551629  2.32596856  2.27245701  2.21894547
  2.16543392  2.11192237  2.06237464  2.01480883  1.97715255  1.94742391
  1.92958673  1.923641    1.93156864  1.94940582  1.97913446  2.01679073
  2.06039274  2.10399474  2.14363292  2.17732537  2.20309019  2.21894547
  2.2268731   2.22489119  2.22092737  2.21498165  2.20903592  2.20705401
  2.20903592  2.21299974  2.21696356  2.21498165  2.2050721   2.17930728
  2.13174146  2.05841083  1.95931537  1.83049128  1.67392045  1.49356672
  1.2933939   1.0773658   0.85341007  0.62350861  0.39360715  0.16766951
 -0.05034049 -0.25844095 -0.45663186 -0.64094941 -0.8113936  -0.9640006
 -1.09877042 -1.21173924 -1.30290706 -1.36831007 -1.40993016 -1.42776734
 -1.42380352 -1.40200252 -1.36434625 -1.31678043 -1.2672327  -1.21768497
 -1.17408297 -1.14435433 -1.12651715 -1.12651715 -1.14435433 -1.1800287
 -1.23750406 -1.3108347  -1.40398443 -1.51100752 -1.63190398 -1.76469189
 -1.90540744 -2.05008681 -2.19872999 -2.34737318 -2.49007064 -2.63078618
 -2.7635741  -2.88645246 -3.00140319 -3.10644438 -3.20355792 -3.28878002
 -3.36409256 -3.43147747 -3.48895284 -3.54048248 -3.58210257 -3.61777693
 -3.64948748 -3.67921612 -3.70696284 -3.73669148 -3.76840203 -3.80407639
 -3.84371457 -3.88929848 -3.94082812 -3.99830349 -4.05776076 -4.11919994
 -4.18460294 -4.24604213]",16.87823805572256,1.6703530176548527,4.37441,-0.14918999999999993
046,1,2,csm,60a.png,1,0,252,121,256,1,1,543,neu_feedback_onset,10,"[ 2.29872143  2.05873722  1.81002632  1.5547704   1.29515112  1.03771352
  0.78027592  0.52938334  0.28285411  0.04505158 -0.19056928 -0.41746343
 -0.64217591 -0.86034337 -1.07632916 -1.28795159 -1.49739235 -1.70246976
 -1.90754718 -2.11044291 -2.31115697 -2.51187104 -2.70604008 -2.90020911
 -3.08565145 -3.26454877 -3.43471939 -3.58961828 -3.72706378 -3.84487421
 -3.93868622 -4.0084998  -4.0521333  -4.07176837 -4.06958669 -4.04776995
 -4.01068148 -3.96704799 -3.91905115 -3.87323598 -3.83614751 -3.80996742
 -3.79905904 -3.80560407 -3.83178416 -3.87541765 -3.93432287 -4.0084998
 -4.09358511 -4.18521545 -4.28120913 -4.37720281 -4.46883314 -4.55391845
 -4.63027706 -4.69136395 -4.73717912 -4.76772256 -4.78081261 -4.77644926
 -4.75245084 -4.71099902 -4.65209381 -4.5757352  -4.48410486 -4.37938448
 -4.26157406 -4.13067358 -3.98668306 -3.83396584 -3.67252192 -3.5023513
 -3.32345398 -3.13801164 -2.94602428 -2.74967357 -2.5489595  -2.34170042
 -2.13225966 -1.92063722 -1.70683311 -1.49084733 -1.27704322 -1.06105744
 -0.849435   -0.63781257 -0.43273515 -0.23420277 -0.04003373  0.14540861
  0.31994258  0.48793152  0.64501209  0.79118429  0.93299314  1.06607529
  1.19697576  1.32569456  1.45441336  1.58313216  1.71621431  1.85147814
  1.98674196  2.12200579  2.25508794  2.37726171  2.49070879  2.58670248
  2.66087941  2.71105793  2.730693    2.7219663   2.67833281  2.60415587
  2.49943549  2.36635334  2.21145445  2.03910215  1.85584149  1.67258082
  1.49368351  1.33005791  1.18388572  1.06389361  0.97226328  0.91335807
  0.88281462  0.88281462  0.91117639  0.96353658  1.03771352  1.12716218
  1.22970088  1.34532963  1.46750341  1.59404054  1.72494101  1.85584149
  1.98456029  2.11327909  2.23763454  2.35762664  2.47107372  2.58233913
  2.69142286  2.79614324  2.90304529  3.01212902  3.1255761   3.24338653
  3.3655603   3.48991575  3.61427121  3.73644498  3.84771039  3.95024909
  4.0353344   4.10078464  4.14659981  4.16841655  4.16623488  4.14441813
  4.10296631  4.04187943  3.96333914  3.86952713  3.76262508  3.64481465
  3.51609585  3.37865035  3.2368415   3.08848763  2.94231543  2.80050658
  2.66306109  2.53434229  2.42089521  2.32053818  2.23545287  2.16782095
  2.11764244  2.08273565  2.06528225  2.0609189   2.0696456   2.08491732
  2.10891574  2.13291416  2.15473091  2.16782095  2.17000263  2.15473091
  2.11546076  2.05437388  1.96710689  1.85365981  1.71621431  1.5547704
  1.37587308  1.18170404  0.97444495  0.76064085  0.54247339  0.32212425
  0.10177512 -0.11857401 -0.3345598  -0.54836391 -0.75998634 -0.9694271
 -1.17232284 -1.36867355 -1.55847924 -1.73519488 -1.90100215 -2.04717435
 -2.17371148 -2.27843186 -2.35260879 -2.40060563 -2.4202407  -2.41369568
 -2.38533391 -2.33733707 -2.28061353 -2.21952664 -2.16716645 -2.12789631
 -2.11262459 -2.12789631 -2.17807482 -2.26534181 -2.39187893 -2.55332285
 -2.74531022 -2.961296   -3.19037183 -3.42599269 -3.65506852 -3.87105431
 -4.06304167 -4.22666726 -4.35320439 -4.44265305 -4.49283156 -4.50155826
 -4.47319649 -4.40992793 -4.31175257 -4.18521545 -4.03031655 -3.85360091
 -3.65506852 -3.43690106 -3.20564356 -2.961296   -2.70604008 -2.4464208
 -2.18243817 -1.91627387]","[-3.18334465 -3.0718869  -2.90692944 -2.69070141 -2.42766114 -2.12003776
 -1.7722896  -1.38887496 -0.9764813  -0.5417961  -0.0870485   0.38330318
  0.86480064  1.35298556  1.84562879  2.34495949  2.84429019  3.34362088
  3.84518073  4.34228228  4.83492551  5.32088127  5.79792042  6.26158464
  6.70741562  7.13541336  7.53889039  7.91561757  8.26559489  8.58659319
  8.87861248  9.14388192  9.38240149  9.59640036  9.79033684  9.96421092
 10.12248092 10.26514683 10.3899795  10.49920809 10.58837429 10.65524894
 10.69760288 10.71320696 10.70206119 10.6619364  10.59952006 10.51704133
 10.41450021 10.30304246 10.18712641 10.06675204  9.95083599  9.83937824
  9.73460796  9.63652515  9.54290064  9.45373445  9.36679741  9.27986037
  9.19069417  9.09261135  8.98784107  8.86746671  8.73148826  8.56875995
  8.38151094  8.15859545  7.90001349  7.60130673  7.26024603  6.87683139
  6.45106281  5.98739859  5.48806789  4.95975818  4.41138608  3.84740989
  3.27674624  2.70831174  2.14656471  1.60042176  1.07657036  0.5750105
  0.10465882 -0.33448469 -0.74019088 -1.11023059 -1.44460383 -1.74553974
 -2.01080917 -2.24264128 -2.44326522 -2.61268099 -2.7508886  -2.8645755
 -2.95151254 -3.01169972 -3.05182451 -3.0718869  -3.0718869  -3.05182451
 -3.01838718 -2.96711662 -2.90024197 -2.8199924  -2.72859705 -2.62382677
 -2.50791071 -2.38307804 -2.2515579  -2.11112114 -1.97068438 -1.83024763
 -1.69204002 -1.56051988 -1.44014552 -1.33314608 -1.24175073 -1.16818862
 -1.11245975 -1.07233496 -1.04781426 -1.03443933 -1.02552271 -1.01660609
 -1.00323116 -0.97871046 -0.94081482 -0.88731511 -0.8182113  -0.73350342
 -0.6354206  -0.53065032 -0.42365089 -0.32110976 -0.22748526 -0.14946484
 -0.09150681 -0.05584033]",3.270548374816036,9.51564922464419,4.583635000000001,0.02815999999999974
046,1,2,csm,38a.png,1,1,352,350,353,1,1,362,neu_feedback_onset,11,"[ 0.57127899  0.53065871  0.50132185  0.48101172  0.46972831  0.4584449
  0.44716149  0.42685135  0.39300113  0.34335413  0.27339699  0.18087304
  0.06126891 -0.08315872 -0.25692322 -0.45551121 -0.68343607 -0.93618443
 -1.2114996  -1.51163827 -1.83434376 -2.17735939 -2.53617179 -2.91303764
 -3.30344358 -3.70287625 -4.11133565 -4.51979505 -4.92374108 -5.31640371
 -5.69326956 -6.04756859 -6.37027409 -6.65912935 -6.90736434 -7.11497906
 -7.27520347 -7.39255092 -7.46250805 -7.49184492 -7.48056151 -7.43091451
 -7.34741728 -7.2345832  -7.09692561 -6.93670121 -6.76293671 -6.57563212
 -6.37930081 -6.18071282 -5.97986814 -5.78353683 -5.5894622  -5.39990093
 -5.21485303 -5.03206181 -4.8470139  -4.65519595 -4.45660796 -4.24222319
 -4.01204165 -3.76154998 -3.49526153 -3.20866295 -2.90852428 -2.59710219
 -2.27891007 -1.96071794 -1.6447825  -1.33787378 -1.04224847 -0.76241993
 -0.49838817 -0.25240985 -0.024485    0.18538641  0.37720435  0.55096885
  0.70442321  0.83756743  0.95040152  1.04292547  1.11513929  1.16929965
  1.20540656  1.22797338  1.2370001   1.23925678  1.23925678  1.2370001
  1.24151347  1.25505356  1.27987706  1.31824065  1.37465769  1.44912819
  1.53939546  1.64997286  1.77634704  1.91851799  2.0787424   2.25025021
  2.4375548   2.63388611  2.83924415  3.05137223  3.26801368  3.48691181
  3.70355326  3.92019471  4.12780943  4.33091079  4.52272873  4.70551996
  4.87928445  5.03950886  5.19070653  5.33513417  5.47053507  5.60367929
  5.73231015  5.85868433  5.98505851  6.11143269  6.24006355  6.36869441
  6.49732527  6.62595613  6.75007362  6.87419112  6.99153857  7.10211598
  7.20366666  7.29167724  7.36614774  7.42482147  7.46092838  7.47672515
  7.46769842  7.4338482   7.37517447  7.29393393  7.19238325  7.0750358
  6.94866162  6.81777408  6.68914322  6.56953908  6.46347504  6.37546445
  6.30550732  6.258117    6.23103682  6.22201009  6.23103682  6.25360364
  6.28519718  6.32356077  6.36869441  6.41834141  6.47024509  6.52440545
  6.58082249  6.63949622  6.70268331  6.77038376  6.84259758  6.92158144
  7.00959203  7.10662934  7.21495007  7.3345542   7.46318506  7.60084264
  7.74752696  7.90098132  8.052179    8.20337667  8.34780431  8.48094853
  8.59829598  8.70210334  8.78785725  8.8555577   8.90746138  8.94808165
  8.9796752   9.00675538  9.03609224  9.07219915  9.12184615  9.18728992
  9.27530051  9.38587791  9.5235355   9.68827327  9.88009122 10.09447598
 10.33594093 10.59545933 10.87303119 11.16188645 11.46202512 11.76893384
 12.07809924 12.38952132 12.69643004 13.00108208 13.29670739 13.58104929
 13.85410778 14.10911282 14.34380772 14.55367912 14.73421366 14.88766802
 15.01178552 15.11107952 15.1878067  15.25550715 15.31643756 15.38413801
 15.46312187 15.56015919 15.67976332 15.81967759 15.98215867 16.16043653
 16.3499978  16.54407243 16.7336337  16.90965487 17.06536592 17.19174009
 17.28200736 17.327141   17.32262764 17.26846727 17.16465991 17.01571892
 16.82615765 16.60725952 16.36805125 16.11981626 15.86932459 15.62560296
 15.39542142 15.17652329 14.96890857 14.77257725 14.57850262 14.38217131
 14.17906995 13.96242851 13.73450365 13.49078202 13.23803366 12.98302862
 12.72802359 12.47978859]","[-2.46393633 -2.28486155 -2.08810037 -1.87365279 -1.63709722 -1.38285525
 -1.10871608 -0.81910131 -0.51622174 -0.20449898  0.10943459  0.42336815
  0.73066932  1.03133809  1.32316365  1.60614602  1.88470679  2.15663516
  2.42414193  2.6894379   2.95473387  3.21560825  3.47206102  3.71967059
  3.95622616  4.17730614  4.37848892  4.5575637   4.71010888  4.83833527
  4.94224286  5.02183165  5.08152324  5.12573924  5.15669043  5.17658763
  5.19206323  5.20311723  5.21196043  5.21638203  5.22080363  5.22301443
  5.22080363  5.21638203  5.20311723  5.18543083  5.16111203  5.13237164
  5.09920964  5.06162604  5.02183165  4.98203725  4.94224286  4.90244846
  4.86486486  4.82507047  4.78306527  4.73884928  4.68800088  4.62830929
  4.5619853   4.48239651  4.38954292  4.28784613  4.17509534  4.05571215
  3.93190737  3.80368098  3.6798762   3.55828221  3.44774222  3.34383463
  3.25319184  3.17139225  3.10285746  3.03874427  2.98347427  2.92820428
  2.87293428  2.81103189  2.7424971   2.66511911  2.57226552  2.46614713
  2.34455314  2.20748356  2.05493837  1.89133919  1.71668601  1.53318963
  1.34306085  1.15293207  0.96501409  0.77930691  0.60244293  0.43221135
  0.27082297  0.11827779 -0.0232134  -0.15586138 -0.28187697 -0.40126016
 -0.51622174 -0.62897253 -0.73730172 -0.84563091 -0.9539601  -1.06007848
 -1.16619687 -1.27010446 -1.37180125 -1.47128724 -1.56414083 -1.65257282
 -1.73216161 -1.8029072  -1.8625988  -1.91123639 -1.94660919 -1.97092798
 -1.98198198 -1.98419278 -1.97534958 -1.95766318 -1.93555519 -1.90902559
 -1.88028519 -1.849334   -1.8183828  -1.7874316  -1.75869121 -1.72552921
 -1.69236721 -1.65699442 -1.61498922 -1.56856243 -1.51329243 -1.44917924
 -1.37622285 -1.29442326]",15.83902863390642,4.82540208920577,4.431285,-0.6237999999999975
046,1,2,csm,52a.png,1,1,240,273,238,1,1,373,neu_feedback_onset,12,"[-7.18572601e-01 -5.51860338e-01 -3.97972095e-01 -2.59045209e-01
 -1.35079680e-01 -2.82128445e-02  6.15552972e-02  1.29950072e-01
  1.83383490e-01  2.17580877e-01  2.34679570e-01  2.41091581e-01
  2.32542234e-01  2.13306203e-01  1.87658163e-01  1.55598112e-01
  1.19263388e-01  7.86539908e-02  3.80445934e-02 -2.56480405e-03
 -4.10368648e-02 -7.95089255e-02 -1.20118323e-01 -1.60727720e-01
 -2.07749128e-01 -2.61182546e-01 -3.29577320e-01 -4.17208125e-01
 -5.26212297e-01 -6.65139183e-01 -8.29714110e-01 -1.02421175e+00
 -1.24222009e+00 -1.48160181e+00 -1.73380754e+00 -1.99028794e+00
 -2.24249367e+00 -2.48187538e+00 -2.70202107e+00 -2.89865604e+00
 -3.06750564e+00 -3.20856987e+00 -3.32184871e+00 -3.40734218e+00
 -3.47146228e+00 -3.51207168e+00 -3.53344504e+00 -3.53771972e+00
 -3.52917037e+00 -3.50352233e+00 -3.46505027e+00 -3.41375419e+00
 -3.34963409e+00 -3.27268997e+00 -3.18719650e+00 -3.09101635e+00
 -2.99269886e+00 -2.89224403e+00 -2.79392654e+00 -2.70415840e+00
 -2.62293961e+00 -2.55240750e+00 -2.49683674e+00 -2.45622734e+00
 -2.42630463e+00 -2.41134327e+00 -2.40279393e+00 -2.40065659e+00
 -2.40279393e+00 -2.40279393e+00 -2.40065659e+00 -2.38996991e+00
 -2.37287121e+00 -2.34294850e+00 -2.30447644e+00 -2.25104302e+00
 -2.18692292e+00 -2.11211613e+00 -2.02662267e+00 -1.93044251e+00
 -1.82785035e+00 -1.71884618e+00 -1.60556733e+00 -1.48801382e+00
 -1.37046030e+00 -1.25076944e+00 -1.13321592e+00 -1.01566240e+00
 -9.02383558e-01 -7.89104712e-01 -6.75825867e-01 -5.66821695e-01
 -4.59954859e-01 -3.55225361e-01 -2.52633199e-01 -1.54315710e-01
 -5.81355584e-02  3.37699200e-02  1.21400725e-01  2.04756857e-01
  2.81700978e-01  3.50095753e-01  4.12078517e-01  4.63374598e-01
  5.03983996e-01  5.33906710e-01  5.51005403e-01  5.53142740e-01
  5.42456056e-01  5.18945353e-01  4.80473292e-01  4.31314548e-01
  3.71469120e-01  3.05211682e-01  2.34679570e-01  1.64147459e-01
  9.36153478e-02  2.52205731e-02 -3.67621914e-02 -9.01956091e-02
 -1.37217017e-01 -1.73551741e-01 -2.05611791e-01 -2.26985158e-01
 -2.44083852e-01 -2.56907872e-01 -2.65457219e-01 -2.71869229e-01
 -2.76143903e-01 -2.82555913e-01 -2.88967923e-01 -2.99654606e-01
 -3.16753300e-01 -3.38126667e-01 -3.70186718e-01 -4.12933452e-01
 -4.68504206e-01 -5.36898981e-01 -6.24529786e-01 -7.27121948e-01
 -8.46812804e-01 -9.81465016e-01 -1.13535326e+00 -1.30206552e+00
 -1.47946447e+00 -1.66968744e+00 -1.86632241e+00 -2.07150674e+00
 -2.28310307e+00 -2.50111142e+00 -2.72553177e+00 -2.96063881e+00
 -3.20429519e+00 -3.46291293e+00 -3.73649203e+00 -4.02930716e+00
 -4.33922098e+00 -4.66623350e+00 -5.01034471e+00 -5.36514260e+00
 -5.72848984e+00 -6.09183708e+00 -6.44663498e+00 -6.78433418e+00
 -7.09424800e+00 -7.36568976e+00 -7.59011012e+00 -7.76109705e+00
 -7.87010122e+00 -7.91712263e+00 -7.89574926e+00 -7.81239313e+00
 -7.67132891e+00 -7.47896861e+00 -7.24172423e+00 -6.97241981e+00
 -6.68174201e+00 -6.37610287e+00 -6.06832638e+00 -5.76696190e+00
 -5.47628411e+00 -5.20270501e+00 -4.94836195e+00 -4.71539224e+00
 -4.50379591e+00 -4.31143561e+00 -4.13831133e+00 -3.98014842e+00
 -3.83694686e+00 -3.70443198e+00 -3.58046645e+00 -3.46718761e+00
 -3.36245811e+00 -3.26841529e+00 -3.18292182e+00 -3.10811504e+00
 -3.04826961e+00 -3.00124820e+00 -2.97132549e+00 -2.95850147e+00
 -2.96277614e+00 -2.98201217e+00 -3.01620956e+00 -3.06323097e+00
 -3.11666439e+00 -3.17650981e+00 -3.23635524e+00 -3.29406333e+00
 -3.34535941e+00 -3.38383148e+00 -3.40734218e+00 -3.41375419e+00
 -3.40093017e+00 -3.36887012e+00 -3.31543670e+00 -3.24276725e+00
 -3.15513645e+00 -3.05040695e+00 -2.93712810e+00 -2.81743725e+00
 -2.69560906e+00 -2.57378086e+00 -2.45409001e+00 -2.34081116e+00
 -2.23180699e+00 -2.12707749e+00 -2.02448533e+00 -1.92189317e+00
 -1.81502633e+00 -1.70174749e+00 -1.57991929e+00 -1.44312974e+00
 -1.29137884e+00 -1.12680391e+00 -9.45130292e-01 -7.50632652e-01
 -5.47585664e-01 -3.35989330e-01 -1.22255660e-01  9.14780111e-02
  3.00937008e-01  5.01846659e-01  6.94206963e-01  8.75880583e-01
  1.04686752e+00  1.20503044e+00  1.35464401e+00  1.49357089e+00
  1.62394843e+00  1.74150195e+00  1.85050612e+00  1.94454894e+00
  2.02790507e+00  2.09202517e+00  2.14118391e+00  2.17110663e+00
  2.18393065e+00  2.17965597e+00  2.15828261e+00  2.12408522e+00]","[-3.09741809 -2.87618885 -2.61947944 -2.33563815 -2.02466497 -1.69490818
 -1.34636777 -0.98739202 -0.61589386 -0.24022156  0.14171194  0.52364544
  0.90557894  1.28333831  1.65483647  2.01381222  2.36026556  2.68793528
  2.99264726  3.27440148  3.52484968  3.74816599  3.94017627  4.1029676
  4.23653997  4.34298046  4.42855026  4.49324938  4.54333902  4.57881918
  4.603864    4.62056054  4.62890882  4.62890882  4.62056054  4.60177693
  4.57047091  4.5245554   4.45985628  4.37428648  4.267846    4.1363607
  3.9777435   3.79408149  3.58746173  3.35579715  3.10326188  2.831943
  2.54392757  2.24130266  1.93032949  1.61100803  1.28333831  0.95358151
  0.61965058  0.28363258 -0.05447248 -0.39675169 -0.74111796 -1.08965837
 -1.44028584 -1.79508746 -2.15406321 -2.51512603 -2.88036298 -3.24977407
 -3.61918517 -3.98859626 -4.35800735 -4.72324431 -5.08430712 -5.43702167
 -5.78138794 -6.11531887 -6.43881446 -6.74978764 -7.04615134 -7.3258185
 -7.59296324 -7.84341144 -8.07507602 -8.28795699 -8.47788021 -8.64693274
 -8.79094045 -8.90572921 -8.99129901 -9.04556279 -9.0643464  -9.04973693
 -8.99756022 -8.91199042 -8.79511459 -8.64693274 -8.47370607 -8.27752165
 -8.06672775 -7.84341144 -7.61383392 -7.38008227 -7.14633062 -6.91675311
 -6.68717559 -6.46385928 -6.2384559  -6.01513959 -5.78973622 -5.56224577
 -5.32849412 -5.08639419 -4.84012013 -4.5854978  -4.32252719 -4.05329538
 -3.77988943 -3.50230934 -3.22264219 -2.94088796 -2.66330788 -2.38990193
 -2.12275718 -1.86604778 -1.61977372 -1.38810914 -1.17105403 -0.96860841
 -0.77868519 -0.60128438 -0.43431892 -0.27570172 -0.1191716   0.03735852
  0.19806278  0.36502825  0.54034199  0.72609107  0.92436256  1.13515646
  1.3563857   1.58805028]",1.2832213368898577,3.553181631294339,4.67872,-0.2979250000000002
046,1,2,csm,53a.png,1,1,196,202,191,1,1,503,neu_feedback_onset,13,"[-3.46764925e-01 -2.44165914e-01 -1.49459136e-01 -6.46176460e-02
  1.03585539e-02  7.34964066e-02  1.22822854e-01  1.58337896e-01
  1.78068475e-01  1.80041533e-01  1.68203186e-01  1.44526491e-01
  1.07038391e-01  6.56041750e-02  2.02238434e-02 -2.31834303e-02
 -6.26445881e-02 -9.22404566e-02 -1.15917151e-01 -1.29728557e-01
 -1.37620788e-01 -1.43539962e-01 -1.51432193e-01 -1.65243599e-01
 -1.90893351e-01 -2.30354509e-01 -2.87573188e-01 -3.62549388e-01
 -4.55283109e-01 -5.65774351e-01 -6.88103941e-01 -8.20298820e-01
 -9.60385930e-01 -1.10244610e+00 -1.24647932e+00 -1.39051255e+00
 -1.53454578e+00 -1.67857900e+00 -1.82261223e+00 -1.97256463e+00
 -2.13040926e+00 -2.29417307e+00 -2.47174828e+00 -2.65918878e+00
 -2.85846762e+00 -3.07155788e+00 -3.29254036e+00 -3.51944202e+00
 -3.74831673e+00 -3.97719145e+00 -4.19817393e+00 -4.41126419e+00
 -4.60659692e+00 -4.78614519e+00 -4.94201676e+00 -5.07421164e+00
 -5.18075677e+00 -5.25967908e+00 -5.31295165e+00 -5.33860140e+00
 -5.33662834e+00 -5.30900553e+00 -5.25770602e+00 -5.18470288e+00
 -5.09196916e+00 -4.97950486e+00 -4.85125610e+00 -4.70919593e+00
 -4.55332436e+00 -4.38956055e+00 -4.21790451e+00 -4.04032930e+00
 -3.85880798e+00 -3.67531359e+00 -3.49181921e+00 -3.31227094e+00
 -3.13666879e+00 -2.97093192e+00 -2.81308729e+00 -2.67102712e+00
 -2.54277836e+00 -2.43623324e+00 -2.34941869e+00 -2.28628084e+00
 -2.24879274e+00 -2.23695439e+00 -2.25273885e+00 -2.29417307e+00
 -2.36125704e+00 -2.45004464e+00 -2.55856282e+00 -2.68286547e+00
 -2.81900647e+00 -2.96501275e+00 -3.11496515e+00 -3.26689061e+00
 -3.41881607e+00 -3.56876847e+00 -3.71872087e+00 -3.86670021e+00
 -4.01665261e+00 -4.17252418e+00 -4.33431493e+00 -4.50399791e+00
 -4.68749229e+00 -4.88479808e+00 -5.09394222e+00 -5.31492470e+00
 -5.54774553e+00 -5.78845860e+00 -6.02917166e+00 -6.26791167e+00
 -6.49678638e+00 -6.71184969e+00 -6.90915548e+00 -7.08278458e+00
 -7.22879086e+00 -7.34717433e+00 -7.43596194e+00 -7.49712673e+00
 -7.53066872e+00 -7.54053401e+00 -7.52474954e+00 -7.48923450e+00
 -7.43793500e+00 -7.37085103e+00 -7.29390177e+00 -7.20708722e+00
 -7.11435350e+00 -7.01570061e+00 -6.91704771e+00 -6.81839482e+00
 -6.71974192e+00 -6.62306209e+00 -6.53032837e+00 -6.43956770e+00
 -6.35078010e+00 -6.26791167e+00 -6.18504323e+00 -6.10612092e+00
 -6.02719860e+00 -5.95222240e+00 -5.87921926e+00 -5.81016223e+00
 -5.75097050e+00 -5.70361711e+00 -5.67204818e+00 -5.66218289e+00
 -5.68191347e+00 -5.73518603e+00 -5.82397364e+00 -5.95024935e+00
 -6.11401315e+00 -6.31131894e+00 -6.53230142e+00 -6.77301449e+00
 -7.01767367e+00 -7.25641367e+00 -7.47739616e+00 -7.67075583e+00
 -7.82860046e+00 -7.94501088e+00 -8.01801402e+00 -8.04563683e+00
 -8.03577154e+00 -7.98841815e+00 -7.90949583e+00 -7.80886988e+00
 -7.68654029e+00 -7.55039930e+00 -7.40044690e+00 -7.24260227e+00
 -7.07489235e+00 -6.90126325e+00 -6.71776887e+00 -6.52835531e+00
 -6.33104952e+00 -6.12782456e+00 -5.92065348e+00 -5.70756322e+00
 -5.49052686e+00 -5.27349049e+00 -5.05448106e+00 -4.83744469e+00
 -4.62040832e+00 -4.40731807e+00 -4.20014699e+00 -3.99889509e+00
 -3.80948153e+00 -3.63190632e+00 -3.47208863e+00 -3.33397458e+00
 -3.21953722e+00 -3.13469573e+00 -3.07945011e+00 -3.05577341e+00
 -3.06563870e+00 -3.10707292e+00 -3.17612995e+00 -3.26886367e+00
 -3.38330102e+00 -3.51352285e+00 -3.65558301e+00 -3.80356236e+00
 -3.95548781e+00 -4.10741327e+00 -4.25539261e+00 -4.40139890e+00
 -4.54345907e+00 -4.67960006e+00 -4.81376800e+00 -4.94398982e+00
 -5.07223858e+00 -5.20246040e+00 -5.33070917e+00 -5.46093099e+00
 -5.59509892e+00 -5.72926686e+00 -5.86738091e+00 -6.00746802e+00
 -6.14952819e+00 -6.29356142e+00 -6.43956770e+00 -6.58754705e+00
 -6.73552639e+00 -6.88547879e+00 -7.03543119e+00 -7.18538359e+00
 -7.33533599e+00 -7.48528839e+00 -7.63524079e+00 -7.78124707e+00
 -7.92725336e+00 -8.06931352e+00 -8.20545452e+00 -8.33764940e+00
 -8.46589816e+00 -8.58625469e+00 -8.70069205e+00 -8.80723718e+00
 -8.90983619e+00 -9.00454297e+00 -9.09333057e+00 -9.17619900e+00
 -9.25314826e+00 -9.32812446e+00 -9.40112760e+00 -9.47018463e+00
 -9.54121471e+00 -9.61224480e+00 -9.68722100e+00 -9.76614331e+00
 -9.84703869e+00 -9.93385323e+00 -1.00226408e+01 -1.01134015e+01
 -1.02021891e+01 -1.02890037e+01 -1.03718721e+01 -1.04468483e+01]","[-1.87957551 -1.6345444  -1.39781943 -1.17355367 -0.95759404 -0.75409363
 -0.56305242 -0.38031736 -0.2100415  -0.05014832  0.1055918   0.25717884
  0.41084242  0.5707356   0.74101146  0.92997613  1.13555308  1.36397191
  1.61107956  1.87479948  2.14890208  2.42300468  2.69087768  2.94006186
  3.15602148  3.33252695  3.45919557  3.52979776  3.54225696  3.49242013
  3.38444032  3.22454713  3.01689365  2.77186254  2.49775994  2.20704506
  1.90594751  1.60277342  1.3037524   1.01719059  0.74101146  0.4814446
  0.23641349  0.00591812 -0.21211803 -0.41769498 -0.61288926 -0.80185393
 -0.984589   -1.16317099 -1.33759992 -1.50995231 -1.68022817 -1.85050403
 -2.02077988 -2.18897921 -2.35510199 -2.52122478 -2.68527103 -2.84724075
 -3.00298087 -3.15664444 -3.30200188 -3.44112972 -3.56987488 -3.68823736
 -3.79621718 -3.88966124 -3.9706461  -4.03917175 -4.09316166 -4.13676889
 -4.16791691 -4.18868226 -4.20114147 -4.20529454 -4.20114147 -4.18868226
 -4.16791691 -4.13676889 -4.09316166 -4.03501868 -3.96026343 -3.8688959
 -3.75676301 -3.62801785 -3.48473695 -3.32484377 -3.15664444 -2.98636859
 -2.81609273 -2.65204648 -2.50253597 -2.37379081 -2.265811   -2.1827496
 -2.1287597  -2.10384128 -2.10384128 -2.13083623 -2.17859653 -2.24712218
 -2.33226011 -2.43193378 -2.5399136  -2.65619955 -2.7787151  -2.90123066
 -3.02582275 -3.1483383  -3.26670079 -3.38091021 -3.48681348 -3.58648716
 -3.67785469 -3.75883955 -3.8273652  -3.88343164 -3.92496234 -3.94988075
 -3.96026343 -3.95195729 -3.9228858  -3.8751255  -3.80867639 -3.72146192
 -3.61763518 -3.49511962 -3.36014486 -3.21271089 -3.05489424 -2.88877145
 -2.72057213 -2.54821973 -2.37794388 -2.20974456 -2.0456983  -1.88995819
 -1.74252421 -1.60547292]",-0.07325827889137172,1.545201491367345,5.068274999999999,0.11202999999999985
046,1,2,csm,61a.png,1,1,92,273,89,1,1,549,neu_feedback_onset,14,"[-0.11370214 -0.16174529 -0.20063737 -0.23037837 -0.2509683  -0.26240715
 -0.26240715 -0.24868053 -0.22580284 -0.18919853 -0.14344314 -0.0862489
 -0.01990359  0.0555928   0.13795249  0.22946327  0.33012512  0.43536251
  0.54517544  0.66185167  0.78310345  0.906643    1.03018254  1.15143432
  1.26582278  1.37106018  1.46257095  1.53577957  1.58611049  1.61356373
  1.61356373  1.58839826  1.54035511  1.46943426  1.38021125  1.2795494
  1.16973647  1.05763577  0.94553507  0.84029768  0.74421137  0.65956391
  0.58635529  0.52458551  0.47654236  0.43993805  0.41248481  0.39418266
  0.38503158  0.38045604  0.38503158  0.39189489  0.40562151  0.42392366
  0.44908912  0.48340566  0.52458551  0.57720421  0.63897398  0.71447037
  0.80140561  0.89977969  1.00959262  1.12855662  1.25438394  1.38249902
  1.51518964  1.64330473  1.76913204  1.88809605  2.00019675  2.10772191
  2.20838376  2.30675784  2.40284415  2.4966427   2.59501678  2.6979664
  2.80320379  2.91759226  3.03655627  3.16238358  3.2950742   3.43234037
  3.57646983  3.72746261  3.88074316  4.03859924  4.1987431   4.36117472
  4.52589412  4.69061351  4.8553329   5.01776453  5.18019615  5.33805224
  5.49362056  5.6469011   5.79560611  5.93744781  6.07700174  6.20740459
  6.33094414  6.44533261  6.54828223  6.639793    6.71986493  6.78849801
  6.84340448  6.88915986  6.9234764   6.94864187  6.97151956  6.99210948
  7.01498718  7.04244041  7.08133249  7.13166341  7.19800873  7.28036842
  7.38331804  7.50456982  7.64183598  7.79282876  7.95754815  8.13141862
  8.30986463  8.48831064  8.66446888  8.83376382  8.9916199   9.13574937
  9.26386445  9.36910184  9.45374931  9.51094354  9.53839678  9.53610901
  9.50179247  9.43544716  9.3347853   9.20438245  9.0442386   8.85892928
  8.65531781  8.43797972  8.21149055  7.98500138  7.76537553  7.55718851
  7.36959143  7.2071598   7.07446918  6.97838287  6.92118863  6.90517425
  6.93033971  6.99668502  7.10421018  7.24376411  7.41534681  7.60751944
  7.81341868  8.02618123  8.23436824  8.43340418  8.6187135   8.78343289
  8.92985013  9.05338967  9.15862706  9.24785007  9.32563423  9.39655508
  9.46290039  9.53153347  9.60245432  9.68023848  9.76259817  9.84953341
  9.93646864 10.02340388 10.10347581 10.17668443 10.23616643 10.28420959
 10.3208139  10.34140382 10.35284267 10.35741821 10.35513044 10.3505549
 10.34369159 10.33682828 10.32996497 10.3208139  10.30479951 10.27963405
 10.24302974 10.19269881 10.1263535  10.0439938   9.94561972  9.83580679
  9.72370609  9.60931763  9.50408024  9.41256946  9.34164861  9.29360546
  9.27301553  9.27301553  9.29360546  9.32563423  9.35995077  9.38969177
  9.40113062  9.38969177  9.34164861  9.25928892  9.1334616   8.96874221
  8.76513073  8.53177826  8.27097255  7.99644023  7.71046906  7.42678566
  7.14996557  6.88687209  6.64436854  6.42245491  6.22799452  6.05641182
  5.91228235  5.79331834  5.69494426  5.61944787  5.56225364  5.52564933
  5.50963494  5.51421048  5.53937594  5.5874191   5.66062772  5.7590018
  5.88025358  6.02438305  6.18681467  6.36297291  6.54828223  6.73587932
  6.92118863  7.09963464  7.26664181  7.41992235  7.55947628  7.6853036
  7.7974043   7.90264169]","[-1.64988015 -1.61452186 -1.52300629 -1.38157313 -1.20062189 -0.98639226
 -0.74928373 -0.49761592 -0.2397084   0.01819912  0.26570714  0.50073576
  0.7128855   0.90007644  1.05606889  1.17878295  1.26613872  1.3139764
  1.3264558   1.30357691  1.24741962  1.16422365  1.05606889  0.92919503
  0.78984177  0.64008902  0.48409657  0.32186442  0.15963227 -0.00467977
 -0.16691192 -0.33122397 -0.49137622 -0.64944857 -0.79920132 -0.94479427
 -1.07790783 -1.20270179 -1.31293645 -1.41069172 -1.4938877  -1.56668417
 -1.62908115 -1.68107864 -1.72683642 -1.76843441 -1.8079525  -1.84331078
 -1.87866907 -1.91194746 -1.94314595 -1.96810474 -1.98682384 -1.99722333
 -1.99514344 -1.97850424 -1.94522585 -1.89322837 -1.81835199 -1.72267662
 -1.60412236 -1.466849   -1.31085655 -1.14238471 -0.96143347 -0.77632243
 -0.58705159 -0.40194055 -0.2230692  -0.05043756  0.11387449  0.27194684
  0.42169959  0.56937244  0.7170453   0.86471815  1.0165508   1.17670305
  1.34309499  1.51988644  1.70083768  1.89010852  2.07937936  2.2707301
  2.45792104  2.63887228  2.80734412  2.96125668  3.09645013  3.2108446
  3.30028027  3.36683705  3.40427523  3.41675463  3.40427523  3.36475715
  3.30236017  3.21916419  3.11724913  3.00077476  2.8759808   2.74286725
  2.61183359  2.48287983  2.36640547  2.2624105   2.17921453  2.11681755
  2.07729946  2.06274016  2.06897986  2.09601855  2.13761654  2.18753412
  2.23953161  2.29152909  2.33520698  2.36640547  2.38304466  2.38304466
  2.36640547  2.33520698  2.29152909  2.23745171  2.17713463  2.11265775
  2.05026077  1.99202359  1.9400261   1.90050802  1.87346932  1.86098993
  1.86514973  1.88594872  1.92338691  1.97330449  2.03570147  2.10849795
  2.18337432  2.2582507 ]",9.920111094079926,2.382472688321903,4.3710700000000005,-0.011334999999998985
046,2,2,csp,44b.png,1,1,332,315,332,1,0,420,neg_feedback_onset,1,"[ 1.66380011  1.41407824  1.1756051   0.94838069  0.72790552  0.51867908
  0.32070138  0.13397241 -0.04150783 -0.20123984 -0.34522362 -0.47120943
 -0.57919727 -0.66693739 -0.73218004 -0.77492522 -0.79742269 -0.79517294
 -0.77267548 -0.7254308  -0.6579384  -0.56794853 -0.45321146 -0.31822666
 -0.1607444   0.01923533  0.21946278  0.43543846  0.66941211  0.91238474
  1.16210662  1.41407824  1.66155037  1.904523    2.13849665  2.36122157
  2.570448    2.76842571  2.95515468  3.13513441  3.31061464  3.48384513
  3.66382486  3.84830408  4.04628179  4.25550822  4.48273263  4.72795501
  4.99567486  5.28364243  5.59185772  5.92482022  6.27803044  6.64923863
  7.0384448   7.44339919  7.86185206  8.28705417  8.71900552  9.15320662
  9.58290822 10.01036008 10.42881295 10.83601709 11.22747301 11.5986812
 11.95189142 12.27810468 12.57732098 12.84504083 13.08126422 13.28149167
 13.44572318 13.57170899 13.6594491  13.71119328 13.7269415  13.70669378
 13.65494961 13.57170899 13.46372115 13.3309861  13.17800333 13.00702258
 12.82029361 12.62231591 12.41533922 12.20386304 11.9946366  11.78990966
 11.59643145 11.42095122 11.26796845 11.14873187 11.0632415  11.02049632
 11.02049632 11.0632415  11.14648213 11.26346895 11.41195223 11.57843348
 11.75391372 11.92939395 12.09137571 12.23535949 12.35234632 12.43783669
 12.48958086 12.50982858 12.50082959 12.46933314 12.41983872 12.3613453
 12.30060214 12.24435848 12.1971138  12.16111785 12.14087013 12.13412089
 12.14087013 12.15436861 12.17461633 12.19486405 12.21511177 12.23310975
 12.24660823 12.25785696 12.27135544 12.28710366 12.30960113 12.34334733
 12.38834226 12.45133517 12.52557681 12.61331693 12.71005603 12.80904488
 12.90578399 12.9935241  13.06326625 13.10826118 13.12175966 13.10376169
 13.05201752 12.96202765 12.83829159 12.68305907 12.50082959 12.2983524
 12.07562748 11.83940409 11.58968221 11.33096135 11.05874201 10.77752368
 10.48280687 10.17459159  9.85287782  9.51991532  9.18245333  8.84274159
  8.51202883  8.19706431  7.90909674  7.66162461  7.45914741  7.31291388
  7.22742351  7.20717579  7.25217072  7.36240831  7.53788855  7.77186219
  8.06432925  8.40854049  8.79774665  9.22744826  9.69089606 10.17909108
 10.68528407 11.19372681 11.6999198  12.19261431 12.65831186 13.09026321
 13.47946937 13.82143086 14.11164818 14.35012132 14.53460054 14.66733559
 14.74832647 14.78207267 14.77082394 14.71458027 14.62009091 14.48735586
 14.32312436 14.12964615 13.91367047 13.68194657 13.44347343 13.20500029
 12.97552613 12.7618002  12.56832199 12.399591   12.26010671 12.14311988
 12.05313002 11.98338787 11.92714421 11.88664877 11.85065282 11.82140611
 11.79440915 11.7674122  11.74266498 11.71791777 11.69092081 11.6661736
 11.63692689 11.60768019 11.56943449 11.52443956 11.46819589 11.4007035
 11.32421211 11.24097149 11.15323137 11.067741   10.98899986 10.92825671
 10.89226076 10.88776127 10.91700797 10.98899986 11.1014872  11.25222022
 11.44119893 11.6616741  11.90239699 12.15436861 12.40858998 12.65606211
 12.88103677 13.07451498 13.2297475  13.33773534 13.393979   13.39622875
 13.34223483 13.23424699 13.08126422 12.88778601 12.6650611  12.42208846
 12.17011684 11.92039497]","[nan nan nan nan nan nan nan nan nan nan nan nan nan nan nan nan nan nan
 nan nan nan nan nan nan nan nan nan nan nan nan nan nan nan nan nan nan
 nan nan nan nan nan nan nan nan nan nan nan nan nan nan nan nan nan nan
 nan nan nan nan nan nan nan nan nan nan nan nan nan nan nan nan nan nan
 nan nan nan nan nan nan nan nan nan nan nan nan nan nan nan nan nan nan
 nan nan nan nan nan nan nan nan nan nan nan nan nan nan nan nan nan nan
 nan nan nan nan nan nan nan nan nan nan nan nan nan nan nan nan nan nan
 nan nan nan nan nan nan nan nan nan nan nan nan nan nan]",12.512921982161767,,4.444945,-0.10932499999999923
046,2,2,csm,36a.png,1,1,248,235,255,1,1,489,neu_feedback_onset,2,"[nan nan nan nan nan nan nan nan nan nan nan nan nan nan nan nan nan nan
 nan nan nan nan nan nan nan nan nan nan nan nan nan nan nan nan nan nan
 nan nan nan nan nan nan nan nan nan nan nan nan nan nan nan nan nan nan
 nan nan nan nan nan nan nan nan nan nan nan nan nan nan nan nan nan nan
 nan nan nan nan nan nan nan nan nan nan nan nan nan nan nan nan nan nan
 nan nan nan nan nan nan nan nan nan nan nan nan nan nan nan nan nan nan
 nan nan nan nan nan nan nan nan nan nan nan nan nan nan nan nan nan nan
 nan nan nan nan nan nan nan nan nan nan nan nan nan nan nan nan nan nan
 nan nan nan nan nan nan nan nan nan nan nan nan nan nan nan nan nan nan
 nan nan nan nan nan nan nan nan nan nan nan nan nan nan nan nan nan nan
 nan nan nan nan nan nan nan nan nan nan nan nan nan nan nan nan nan nan
 nan nan nan nan nan nan nan nan nan nan nan nan nan nan nan nan nan nan
 nan nan nan nan nan nan nan nan nan nan nan nan nan nan nan nan nan nan
 nan nan nan nan nan nan nan nan nan nan nan nan nan nan nan nan nan nan
 nan nan nan nan nan nan nan nan]","[-2.72909377 -2.58477793 -2.39371189 -2.16199351 -1.89165539 -1.5887954
 -1.261544   -0.91599904 -0.55622575 -0.19035462  0.1734839   0.53325718
  0.88286737  1.21824925  1.53737018  1.84226279  2.12886185  2.39919996
  2.65734237  2.90125646  3.13500746  3.35656276  3.56185712  3.75292316
  3.9216304   4.06391362  4.1777402   4.25701228  4.29969724  4.30172986
  4.26514275  4.19196852  4.08627241  3.95211966  3.79967336  3.63503135
  3.46835672  3.30777994  3.15533364  3.02118089  2.9053217   2.80775606
  2.7305166   2.66953808  2.62075526  2.58010291  2.5435158   2.50692868
  2.46424372  2.4154609   2.35854761  2.29553647  2.2284601   2.15528587
  2.08414426  2.01503527  1.95202413  1.89714346  1.85649111  1.82803447
  1.81380615  1.81583876  1.83006709  1.85852373  1.89917608  1.9479589
  2.00283957  2.05975285  2.11666614  2.16951419  2.21219916  2.2406558
  2.25285151  2.24268842  2.20610131  2.14105755  2.04552453  1.91543702
  1.75282762  1.55972897  1.33817367  1.09019435  0.82595409  0.54951812
  0.2669843  -0.01351691 -0.28385502 -0.5379322  -0.77371582 -0.98307541
 -1.16397836 -1.31642467 -1.44041433 -1.53391473 -1.59895849 -1.63757822
 -1.65383916 -1.64977392 -1.62538251 -1.58473016 -1.53188211 -1.46887097
 -1.39772936 -1.3204899  -1.24121782 -1.16397836 -1.08877152 -1.01966252
 -0.95665138 -0.90380333 -0.85908575 -0.82453125 -0.79607461 -0.77371582
 -0.75338964 -0.73509609 -0.71070468 -0.68021542 -0.63956307 -0.58874763
 -0.52776911 -0.45256227 -0.36515972 -0.27165932 -0.17002845 -0.06636496
  0.03526591  0.13283155  0.21616886  0.28527785  0.33202805  0.35438685
  0.34422376  0.29950618  0.21616886  0.08811396 -0.0826259  -0.29808334
 -0.55825837 -0.86111837]",,2.890585221042064,4.775255,0.44784499999999916
046,2,2,csm,2a.png,1,1,68,144,67,1,1,607,neu_feedback_onset,3,"[-1.32155177 -1.18492038 -1.04217117 -0.89534342 -0.74239784 -0.58741299
 -0.43038886 -0.26928618 -0.11022278  0.04680135  0.19770765  0.34249613
  0.47504897  0.59332688  0.6952906   0.77686158  0.83600053  0.8706682
  0.88290385  0.86658965  0.82784344  0.76258666  0.67489786  0.56681632
  0.43834203  0.29151427  0.13245087 -0.03884818 -0.22238287 -0.40999612
 -0.60576646 -0.80765462 -1.01362133 -1.22162732 -1.43575113 -1.64783567
 -1.8599202  -2.06384764 -2.25961798 -2.43703485 -2.59609826 -2.73069037
 -2.84081118 -2.92646071 -2.98559966 -3.02434588 -3.04269935 -3.04881717
 -3.04269935 -3.02842443 -3.01007096 -2.98967821 -2.97336402 -2.96112837
 -2.95704982 -2.96520692 -2.98967821 -3.03250297 -3.09775976 -3.18748783
 -3.30372647 -3.44851495 -3.619814   -3.81354506 -4.02766887 -4.25810688
 -4.49874126 -4.74141491 -4.98204929 -5.21656584 -5.4347682  -5.63461709
 -5.81407324 -5.96905809 -6.09957165 -6.20357464 -6.28514562 -6.34428458
 -6.38303079 -6.40546281 -6.41158063 -6.40750208 -6.39118789 -6.36467732
 -6.33000966 -6.28514562 -6.23008521 -6.16482843 -6.087336   -6.00168648
 -5.90584058 -5.80387686 -5.6978346  -5.58975305 -5.48575006 -5.38786489
 -5.29813682 -5.22472294 -5.16354471 -5.12071995 -5.09420938 -5.08197373
 -5.08605228 -5.10236648 -5.13091632 -5.16762326 -5.21044802 -5.2593906
 -5.31037246 -5.36543287 -5.42253255 -5.48167151 -5.54284974 -5.60606725
 -5.67132403 -5.73862008 -5.80999469 -5.88340857 -5.96090099 -6.04043269
 -6.12404294 -6.20969247 -6.29738127 -6.38710934 -6.47683741 -6.56656548
 -6.65629356 -6.74398236 -6.82759261 -6.90916358 -6.98257746 -7.04987351
 -7.10901247 -7.15795506 -7.19670127 -7.22321184 -7.24156531 -7.2497224
 -7.2497224  -7.24360458 -7.23340821 -7.22321184 -7.21301546 -7.20485837
 -7.20281909 -7.20485837 -7.21097619 -7.21709401 -7.22117256 -7.21505474
 -7.19262272 -7.14775868 -7.07230553 -6.96218472 -6.80923914 -6.61550807
 -6.38099152 -6.10976802 -5.80795541 -5.48575006 -5.15538761 -4.82910371
 -4.52117328 -4.23771414 -3.99300121 -3.79315232 -3.63816747 -3.5321252
 -3.46890769 -3.4444364  -3.45055422 -3.47502552 -3.50765391 -3.5402823
 -3.55863577 -3.55455722 -3.51988955 -3.44851495 -3.33839413 -3.1895271
 -3.00191386 -2.7837115  -2.5369593  -2.27593218 -2.00878723 -1.74572084
 -1.49896864 -1.27668773 -1.09111376 -0.94632528 -0.84844011 -0.79949752
 -0.79745825 -0.84436156 -0.93408963 -1.05848537 -1.2155095  -1.39904419
 -1.59685381 -1.80893834 -2.02510143 -2.24126451 -2.45334905 -2.65931576
 -2.85304683 -3.03454225 -3.19972347 -3.3485905  -3.47706479 -3.58718561
 -3.67487441 -3.74217046 -3.78907377 -3.81558434 -3.82374144 -3.81762361
 -3.80130942 -3.77479885 -3.74420974 -3.71158135 -3.6830315  -3.65856021
 -3.64224602 -3.63408892 -3.63408892 -3.64632456 -3.66875658 -3.6993457
 -3.73809191 -3.78499522 -3.83597708 -3.89511604 -3.95629427 -4.01951178
 -4.08476856 -4.14798606 -4.2091643  -4.26626398 -4.31520656 -4.35395278
 -4.38250262 -4.39677754 -4.39881681 -4.38658117 -4.35803133 -4.31724584
 -4.26626398 -4.20508575 -4.14186824 -4.07661146 -4.01339395 -3.95833355
 -3.91550878 -3.88491967 -3.87268402 -3.87880184 -3.90531241 -3.95017645
 -4.01543323 -4.0970042 ]","[-1.81726259 -1.63750246 -1.46223633 -1.2892172  -1.11844507 -0.94767295
 -0.77465382 -0.59714069 -0.41513356 -0.22638542 -0.02864927  0.17807488
  0.39378704  0.62073421  0.85891638  1.10608657  1.36898576  1.64087296
  1.92624217  2.22059939  2.52169761  2.82504283  3.12838806  3.42274527
  3.70586748  3.96876668  4.21144286  4.42490801  4.60691515  4.75746426
  4.87655535  4.95969441  5.01137545  5.02935146  5.01586945  4.96868241
  4.89228436  4.78442828  4.64736118  4.48333006  4.29458192  4.08561076
  3.85641659  3.61374042  3.36432323  3.11265905  2.86324186  2.62505969
  2.39811252  2.18914136  1.99814622  1.8296211   1.67907199  1.54649889
  1.4296548   1.32404573  1.22517765  1.12855658  1.03193551  0.93306744
  0.82970536  0.72409628  0.6117462   0.49490211  0.38030503  0.26570795
  0.15560486  0.05673679 -0.03089627 -0.10504733 -0.15897537 -0.19043339
 -0.1994214  -0.18593939 -0.14549336 -0.08033031  0.00730276  0.12189984
  0.25671994  0.41176305  0.58702918  0.77802432  0.98474848  1.20270764
  1.4296548   1.66334298  1.89703115  2.13071932  2.35991349  2.58011965
  2.78909081  2.98682695  3.17108109  3.33735921  3.49015532  3.62722243
  3.74856051  3.85416959  3.94404966  4.02269472  4.08785776  4.1417858
  4.18897284  4.22941887  4.2698649   4.31031093  4.35525096  4.406932
  4.46984805  4.5417521   4.62264416  4.71477123  4.8136393   4.91700138
  5.02261045  5.12821953  5.22933461  5.32595568  5.41583574  5.49897481
  5.57087886  5.63604191  5.69446395  5.74614499  5.79333202  5.83827206
  5.87647108  5.91242311  5.94388113  5.96859815  5.98657417  5.99556217
  5.99331517  5.98208016  5.95511614  5.91916412  5.87422408  5.82029604
  5.761874    5.70345196]",-0.20086316044920552,5.62201751692757,4.903705,-0.7650100000000006
046,2,2,csm,19a.png,1,1,152,220,147,1,1,462,neu_feedback_onset,4,"[ -0.66754594  -0.7143838   -0.7484477   -0.76547965  -0.76335065
  -0.73780273  -0.68670688  -0.60793412  -0.50361343  -0.37161583
  -0.21832829  -0.04162182   0.15211659   0.35437098   0.56514135
   0.77591171   0.97816611   1.16977553   1.34222401   1.48912457
   1.60834821   1.69350795   1.74247481   1.75311977   1.72757185
   1.66796003   1.5785423    1.46357665   1.33583703   1.19958144
   1.06545484   0.94197322   0.83765253   0.75887977   0.70565493
   0.68436499   0.69075197   0.72055788   0.76952473   0.83126555
   0.89726435   0.96113416   1.01223      1.0462939    1.05480988
   1.03139095   0.97390812   0.87810341   0.73971882   0.55662537
   0.33095205   0.05844087  -0.25452118  -0.60793412  -0.99753995
  -1.41908068  -1.86829833  -2.33454792  -2.81570048  -3.30324001
  -3.78865055  -4.26767411  -4.7360527   -5.18527034  -5.61319806
  -6.01557785  -6.39453871  -6.74369365  -7.06517169  -7.3589728
  -7.62296801  -7.86141529  -8.07218566  -8.26166609  -8.42772759
  -8.57462814  -8.70875474  -8.83223637  -8.94933102  -9.06429667
  -9.18139132  -9.30274395  -9.43048357  -9.56673916  -9.70938173
  -9.86266927 -10.02234379 -10.18840529 -10.35659578 -10.53117326
 -10.70575073 -10.88032821 -11.05277669 -11.22309617 -11.38489969
 -11.53605823 -11.67231382 -11.78940847 -11.88095519 -11.94269601
 -11.97037293 -11.95759896 -11.90437412 -11.81069841 -11.6808298
 -11.51689729 -11.32741686 -11.11877549 -10.90587613 -10.69297677
 -10.49072238 -10.30549994 -10.14156743 -10.00531184  -9.89673317
  -9.81370242  -9.7519616   -9.71151072  -9.68383381  -9.66680186
  -9.6540279   -9.64125393  -9.62422199  -9.60293205  -9.57312614
  -9.53267526  -9.48370841  -9.42409659  -9.35596879  -9.27719603
  -9.19203629  -9.09623157  -8.99616888  -8.8897192   -8.77901153
  -8.66191688  -8.53843525  -8.41069564  -8.27869804  -8.14031345
  -7.99554189  -7.84651234  -7.6910958   -7.53567927  -7.38026274
  -7.2269752   -7.08433263  -6.95233503  -6.83736937  -6.74156466
  -6.66917888  -6.62021203  -6.59040612  -6.57976115  -6.58189014
  -6.58827712  -6.5946641   -6.58614813  -6.55634222  -6.4967304
  -6.40092569  -6.25828312  -6.07093168  -5.8324844   -5.54507026
  -5.21294726  -4.84037338  -4.43373561  -4.00154991  -3.55233226
  -3.09459864  -2.63260703  -2.17913139  -1.73630072  -1.30837301
  -0.89960624  -0.5142584   -0.15232949   0.1840515    0.49914255
   0.78655668   1.05055189   1.28899917   1.50189853   1.69137896
   1.85531147   1.99582504   2.11291969   2.2087244    2.28536817
   2.34072201   2.3769149    2.39607584   2.39820483   2.38117288
   2.34710899   2.29388415   2.22149836   2.12569365   2.00859901
   1.86808543   1.70202393   1.5125435    1.29751515   1.05480988
   0.78655668   0.49275557   0.16914854  -0.18000641  -0.55470928
  -0.95708907  -1.38501678  -1.83636342  -2.30474201  -2.79015255
  -3.28620806  -3.78652155  -4.28470606  -4.77437458  -5.24701116
  -5.6983578   -6.11989853  -6.50524637  -6.85227233  -7.15671841
  -7.41219764  -7.62296801  -7.78477152  -7.90399516  -7.97850994
  -8.01470283  -8.01683182  -7.99554189  -7.95509101  -7.90612416
  -7.8571573   -7.82096441  -7.80393246  -7.81883542  -7.86993127
  -7.96147799  -8.09560459  -8.26592407  -8.46604947  -8.67894883
  -8.8875902   -9.07068365  -9.20481025  -9.27080905  -9.24951911
  -9.12603749  -8.89397718  -8.55333821  -8.10624955  -7.56548518
  -6.94381905  -6.25189613  -5.50887737  -4.72327874  -3.91000318]","[-3.07426598 -2.79792746 -2.48272884 -2.13298791 -1.75949914 -1.37305699
 -0.98229706 -0.59585492 -0.22452504  0.12737478  0.45336788  0.75345423
  1.02547496  1.27158895  1.49395509  1.69689119  1.88687392  2.06606218
  2.23877375  2.40932642  2.5798791   2.74827288  2.91450777  3.08074266
  3.24265976  3.39594128  3.53842832  3.67227979  3.7888601   3.89248705
  3.98316062  4.05872193  4.12132988  4.17746114  4.22711572  4.2746114
  4.31994819  4.36960276  4.42141623  4.4775475   4.53583765  4.59196891
  4.64378238  4.68696028  4.7171848   4.73229706  4.73013817  4.70639033
  4.66537133  4.60924007  4.54015544  4.46459413  4.38903282  4.31994819
  4.25949914  4.21416235  4.18609672  4.17746114  4.18609672  4.20984456
  4.24438687  4.28540587  4.32858377  4.36960276  4.39982729  4.41925734
  4.41925734  4.40198618  4.36312608  4.30267703  4.22063903  4.11701209
  3.99395509  3.85362694  3.69818653  3.52979275  3.35276339  3.17141623
  2.98791019  2.80656304  2.63385147  2.47193437  2.32512953  2.19559585
  2.08981002  2.00993092  1.96027634  1.94084629  1.95595855  2.00993092
  2.0984456   2.22582038  2.38989637  2.59067358  2.82599309  3.08937824
  3.37867012  3.68739206  4.00906736  4.33937824  4.66968912  4.99136442
  5.30440415  5.60017271  5.87435233  6.12478411  6.34930915  6.54360967
  6.70984456  6.84153713  6.94084629  7.00129534  7.02288428  7.00129534
  6.9365285   6.82858377  6.67746114  6.48531952  6.25431779  5.99309154
  5.70595855  5.4015544   5.08419689  4.76468048  4.44948187  4.14075993
  3.84283247  3.56217617  3.30094991  3.05915371  2.83894646  2.64464594
  2.47625216  2.33376511  2.2193437   2.13082902  2.07037997  2.03151986
  2.0142487   2.01208981]",0.9927497123197468,5.031411917098453,4.697055,0.03746499999999919
046,2,2,csp,20b.png,1,1,28,90,30,1,1,424,pos_feedback_onset,5,"[-0.55208242 -0.51658544 -0.48526458 -0.45185566 -0.41218256 -0.36415724
 -0.30569163 -0.23887379 -0.1595276  -0.0760053   0.01378118  0.1014796
  0.18708996  0.2685242   0.34160622  0.406336    0.46897773  0.52744334
  0.59008507  0.65690291  0.73416104  0.82394751  0.92835039  1.04736967
  1.18100536  1.32716939  1.48168565  1.64246608  1.80324651  1.96402694
  2.12063126  2.26679529  2.40251903  2.52571443  2.63220536  2.71990378
  2.7929858   2.84518724  2.87859616  2.89321256  2.88694839  2.8618917
  2.81804249  2.7533127   2.67396652  2.57582781  2.4630727   2.33987731
  2.20624162  2.06634176  1.92435385  1.78236594  1.64455414  1.51300651
  1.38981111  1.27914406  1.18100536  1.09330694  1.02231298  0.96593543
  0.92208622  0.89494147  0.88241313  0.88450118  0.89911759  0.92626234
  0.96384737  1.00978464  1.06616219  1.1246278   1.18935759  1.25199932
  1.31464104  1.37310665  1.42530809  1.46498119  1.49212593  1.50465428
  1.49839011  1.47124536  1.42530809  1.36057831  1.27705601  1.18100536
  1.07242636  0.9575832   0.84274003  0.72789687  0.62140593  0.52326723
  0.43974492  0.36875097  0.31237341  0.2685242   0.24137945  0.22467499
  0.22049888  0.22676305  0.24137945  0.26017197  0.28314061  0.30610924
  0.32698981  0.33951816  0.34369427  0.33534204  0.31446147  0.27896449
  0.22885111  0.16620938  0.09312737  0.01378118 -0.06765307 -0.14699925
 -0.22216932 -0.28898717 -0.34327666 -0.38503781 -0.40800645 -0.41635868
 -0.40591839 -0.37877364 -0.33492443 -0.27854688 -0.20964098 -0.13238285
 -0.0509486   0.03466176  0.116096    0.19544219  0.27061226  0.33951816
  0.40424794  0.46271356  0.52326723  0.58382089  0.65272679  0.72998492
  0.8197714   0.92626234  1.04736967  1.18518147  1.33760968  1.50047817
  1.67169889  1.84709572  2.0204045   2.18953716  2.34822954  2.49439357
  2.63011731  2.74913659  2.85980364  2.95794234  3.05190493  3.14169141
  3.23147789  3.32544048  3.42357918  3.53007012  3.64282523  3.76184451
  3.8850399   4.01032336  4.13351875  4.25253803  4.36111703  4.45925573
  4.54277804  4.61168393  4.66388537  4.70564653  4.73696739  4.76411214
  4.795433    4.83510609  4.89357171  4.97291789  5.08149689  5.22139674
  5.39052941  5.58680682  5.80605286  6.03991531  6.27795387  6.51390438
  6.73523848  6.93360395  7.10273661  7.23428423  7.32615877  7.37627215
  7.38671244  7.35539157  7.28857373  7.19252308  7.06932769  6.92733977
  6.77491157  6.61413114  6.45335071  6.29883445  6.15475847  6.02738696
  5.92298408  5.8436379   5.79143646  5.76846783  5.774732    5.81022898
  5.86869459  5.95012883  6.04409142  6.1484943   6.25498524  6.355212
  6.44917459  6.52643272  6.58907445  6.63292366  6.6600684   6.67259675
  6.66842064  6.65589229  6.63292366  6.60786697  6.57863416  6.55148941
  6.52643272  6.50555215  6.48884768  6.47631934  6.46796711  6.46170294
  6.45752682  6.44917459  6.4387343   6.41785373  6.38862092  6.34477171
  6.28212999  6.20069574  6.09629286  5.96892135  5.81649315  5.64109631
  5.44690696  5.23601315  5.01259099  4.78499271  4.55739444  4.33814839
  4.1314307   3.9393294   3.76810868  3.61776853  3.48830897  3.37764191
  3.28367932  3.20433314]","[-3.5208852  -3.19457699 -2.81322885 -2.38863504 -1.93455555 -1.46475036
 -0.99297946 -0.53300283 -0.10054617  0.29652767  0.65232156  0.96486978
  1.23613804  1.47202349  1.67645755  1.85533735  2.01259432  2.15019416
  2.26617118  2.36052536  2.42735957  2.46274238  2.46274238  2.42539385
  2.34676537  2.22882265  2.07942853  1.90054873  1.7000461   1.48381777
  1.25972659  1.0336697   0.80761281  0.58548734  0.36925902  0.15696211
 -0.04550623 -0.24404316 -0.43275152 -0.61752845 -0.79247683 -0.96349378
 -1.12468217 -1.28193914 -1.43329897 -1.58072737 -1.72422435 -1.86575562
 -2.00925261 -2.15668101 -2.30607513 -2.46136639 -2.62452049 -2.79357173
 -2.96655439 -3.14543419 -3.3262797  -3.50712521 -3.6840393  -3.85702197
 -4.02214178 -4.17939875 -4.32682715 -4.464427   -4.594164   -4.71603815
 -4.82611802 -4.92636934 -5.01482638 -5.08952344 -5.15046052 -5.19174047
 -5.2133633  -5.21532902 -5.19370618 -5.15046052 -5.08755773 -5.00499782
 -4.90474651 -4.79270092 -4.66886106 -4.53912406 -4.40742135 -4.27375293
 -4.14205022 -4.01821036 -3.90223334 -3.7980506  -3.70762785 -3.63096508
 -3.57199371 -3.53267947 -3.51302235 -3.51498806 -3.54250803 -3.59558226
 -3.67814217 -3.78822204 -3.92582189 -4.09290742 -4.2855472  -4.49784411
 -4.72390099 -4.95978645 -5.19370618 -5.41779736 -5.62419713 -5.80897407
 -5.96229961 -6.08613947 -6.17852794 -6.24143072 -6.27877925 -6.29450495
 -6.29843637 -6.29450495 -6.28860781 -6.28467639 -6.28467639 -6.29253924
 -6.30629922 -6.32595634 -6.3515106  -6.37706486 -6.40261911 -6.42424195
 -6.44193336 -6.45569334 -6.46159048 -6.46159048 -6.45569334 -6.44783049
 -6.43603622 -6.42424195 -6.41244768 -6.40458483 -6.39868769 -6.39475627
 -6.39672198 -6.4006534 ]",6.147450272909128,0.677974097811876,4.78914,-0.021349999999998204
046,2,2,csm,32a.png,1,1,116,282,112,1,1,564,neu_feedback_onset,6,"[ 1.05827929e+00  9.98711854e-01  9.26379970e-01  8.43411044e-01
  7.47677668e-01  6.39179842e-01  5.20044973e-01  3.92400472e-01
  2.60501154e-01  1.20092202e-01 -2.03167498e-02 -1.62853110e-01
 -3.07516878e-01 -4.50053238e-01 -5.90462190e-01 -7.28743733e-01
 -8.64897868e-01 -9.98924595e-01 -1.12869650e+00 -1.25421360e+00
 -1.37760328e+00 -1.49673815e+00 -1.61374561e+00 -1.72649825e+00
 -1.83925090e+00 -1.94987613e+00 -2.06050137e+00 -2.16899919e+00
 -2.27536961e+00 -2.37961262e+00 -2.47534600e+00 -2.56469715e+00
 -2.64128385e+00 -2.70510610e+00 -2.75616390e+00 -2.79020243e+00
 -2.81147652e+00 -2.81998615e+00 -2.82424097e+00 -2.82849578e+00
 -2.83700542e+00 -2.85615209e+00 -2.89231803e+00 -2.94763065e+00
 -3.02421735e+00 -3.11995073e+00 -3.23270337e+00 -3.35822047e+00
 -3.49224719e+00 -3.62414651e+00 -3.74966360e+00 -3.86028884e+00
 -3.94963999e+00 -4.01346224e+00 -4.05175559e+00 -4.06026522e+00
 -4.04111855e+00 -3.99644297e+00 -3.92836591e+00 -3.83901475e+00
 -3.73477175e+00 -3.61776429e+00 -3.49011978e+00 -3.35609306e+00
 -3.21781151e+00 -3.07740256e+00 -2.93699361e+00 -2.79871207e+00
 -2.66255793e+00 -2.52640380e+00 -2.39663189e+00 -2.26898739e+00
 -2.14559770e+00 -2.02646283e+00 -1.90732796e+00 -1.79032050e+00
 -1.67544045e+00 -1.55843299e+00 -1.44355294e+00 -1.32654548e+00
 -1.21166543e+00 -1.09678538e+00 -9.86160145e-01 -8.77662319e-01
 -7.79801534e-01 -6.88322975e-01 -6.07481457e-01 -5.39404389e-01
 -4.81964364e-01 -4.37288788e-01 -4.03250254e-01 -3.81976171e-01
 -3.71339129e-01 -3.67084312e-01 -3.67084312e-01 -3.71339129e-01
 -3.75593946e-01 -3.73466537e-01 -3.64956904e-01 -3.43682820e-01
 -3.07516878e-01 -2.54331669e-01 -1.84127193e-01 -9.90308591e-02
  3.08474212e-03  1.15837385e-01  2.34972253e-01  3.56234530e-01
  4.75369398e-01  5.88122041e-01  6.92365051e-01  7.81716202e-01
  8.60430311e-01  9.26379970e-01  9.79565179e-01  1.01998594e+00
  1.04976965e+00  1.06891633e+00  1.07317115e+00  1.06678892e+00
  1.04551484e+00  1.01147630e+00  9.62545912e-01  9.00851070e-01
  8.28519186e-01  7.47677668e-01  6.62581333e-01  5.75357591e-01
  4.88133848e-01  4.05164922e-01  3.28578221e-01  2.58373745e-01
  1.96678903e-01  1.39238877e-01  8.81810765e-02  3.92506842e-02
 -3.29748296e-03 -4.58456501e-02 -8.83938173e-02 -1.28814576e-01
 -1.71362743e-01 -2.16038319e-01 -2.62841303e-01 -3.11771695e-01
 -3.64956904e-01 -4.20269521e-01 -4.79836955e-01 -5.41531798e-01
 -6.05354049e-01 -6.73431116e-01 -7.41508184e-01 -8.09585251e-01
 -8.77662319e-01 -9.43611978e-01 -1.00743423e+00 -1.06700166e+00
 -1.12231428e+00 -1.17124467e+00 -1.21379284e+00 -1.24570396e+00
