sub,run,cat_cond,trial_type,picture,old,response_old,target_pos,response_pos,dot_resp_loc,cat_corr,TN_corr,TN_rt,feedback_type,trial,SP_timeseries,FB_timeseries,SP_peak_response,FB_peak_response,preStim_bl,anticipation
047,1,2,csp,64b.png,1,1,272,241,272,1,1,658,neg_feedback_onset,1,"[-8.85413332e-01 -7.98430442e-01 -6.96950404e-01 -5.85805600e-01
 -4.67412223e-01 -3.44186462e-01 -2.20960702e-01 -1.00151133e-01
  1.09936708e-02  1.14889900e-01  2.06705173e-01  2.86439488e-01
  3.49260464e-01  4.00000483e-01  4.36243354e-01  4.60405268e-01
  4.70070033e-01  4.67653842e-01  4.57989076e-01  4.38659545e-01
  4.12081440e-01  3.85503335e-01  3.56509038e-01  3.32347125e-01
  3.13017593e-01  3.00936637e-01  3.03352828e-01  3.17849976e-01
  3.46844273e-01  3.92751909e-01  4.55572885e-01  5.32891009e-01
  6.27122473e-01  7.38267277e-01  8.61493037e-01  1.00404833e+00
  1.15868458e+00  1.33506655e+00  1.52594567e+00  1.73857051e+00
  1.97294107e+00  2.22422498e+00  2.49483841e+00  2.78236519e+00
  3.08197292e+00  3.38882922e+00  3.69810172e+00  4.00495802e+00
  4.30456576e+00  4.59209253e+00  4.86753835e+00  5.12848702e+00
  5.37977092e+00  5.62139006e+00  5.85817681e+00  6.09013119e+00
  6.32208556e+00  6.55403993e+00  6.78841050e+00  7.02278106e+00
  7.25231924e+00  7.47702504e+00  7.69448226e+00  7.90227472e+00
  8.09557003e+00  8.27920058e+00  8.45075017e+00  8.61263499e+00
  8.76727124e+00  8.91949130e+00  9.06446278e+00  9.20943426e+00
  9.35198955e+00  9.49212865e+00  9.62985156e+00  9.76274209e+00
  9.89080023e+00  1.00140260e+01  1.01348356e+01  1.02483966e+01
  1.03571252e+01  1.04634376e+01  1.05625014e+01  1.06567329e+01
  1.07437158e+01  1.08258663e+01  1.08983520e+01  1.09660054e+01
  1.10288264e+01  1.10868150e+01  1.11448036e+01  1.12052083e+01
  1.12704455e+01  1.13356827e+01  1.14057522e+01  1.14758218e+01
  1.15458913e+01  1.16111285e+01  1.16715333e+01  1.17271057e+01
  1.17802619e+01  1.18358343e+01  1.18986553e+01  1.19735572e+01
  1.20726210e+01  1.21958468e+01  1.23504831e+01  1.25365298e+01
  1.27467384e+01  1.29762766e+01  1.32130634e+01  1.34474339e+01
  1.36600588e+01  1.38412731e+01  1.39789960e+01  1.40635627e+01
  1.40973894e+01  1.40756437e+01  1.40079903e+01  1.38992617e+01
  1.37663712e+01  1.36213997e+01  1.34764282e+01  1.33435377e+01
  1.32323929e+01  1.31526586e+01  1.31019186e+01  1.30825890e+01
  1.30922538e+01  1.31188319e+01  1.31574910e+01  1.31961500e+01
  1.32251443e+01  1.32348091e+01  1.32130634e+01  1.31574910e+01
  1.30584271e+01  1.29207042e+01  1.27443223e+01  1.25341136e+01
  1.22997430e+01  1.20532915e+01  1.18044238e+01  1.15676370e+01
  1.13525960e+01  1.11689655e+01  1.10215778e+01  1.09128492e+01
  1.08403634e+01  1.07992882e+01  1.07775425e+01  1.07654615e+01
  1.07509644e+01  1.07195539e+01  1.06663977e+01  1.05818310e+01
  1.04610214e+01  1.03063851e+01  1.01179222e+01  9.90288119e+00
  9.66609443e+00  9.41722672e+00  9.16111043e+00  8.90257796e+00
  8.65129405e+00  8.40484253e+00  8.17047197e+00  7.94334998e+00
  7.72347656e+00  7.50843553e+00  7.29822688e+00  7.08560204e+00
  6.87056100e+00  6.65068759e+00  6.42356560e+00  6.18677884e+00
  5.94515970e+00  5.69870818e+00  5.44742428e+00  5.19614038e+00
  4.94727266e+00  4.70806972e+00  4.48336392e+00  4.27315527e+00
  4.08710853e+00  3.92522371e+00  3.79233318e+00  3.69085315e+00
  3.62319979e+00  3.58695692e+00  3.58454072e+00  3.61595121e+00
  3.67635600e+00  3.76333889e+00  3.87448369e+00  4.00737422e+00
  4.15476189e+00  4.31664671e+00  4.48578011e+00  4.65974589e+00
  4.83612786e+00  5.01250983e+00  5.19130799e+00  5.37010616e+00
  5.55373670e+00  5.74461582e+00  5.94515970e+00  6.16020074e+00
  6.39698749e+00  6.65551997e+00  6.93821436e+00  7.24748686e+00
  7.58092127e+00  7.93126902e+00  8.29369773e+00  8.65612643e+00
  9.00889038e+00  9.33990860e+00  9.63951633e+00  9.89804880e+00
  1.01106736e+01  1.02725585e+01  1.03861195e+01  1.04537728e+01
  1.04900157e+01  1.04996805e+01  1.04948481e+01  1.04851833e+01
  1.04827671e+01  1.04900157e+01  1.05093452e+01  1.05407557e+01
  1.05794148e+01  1.06180738e+01  1.06470681e+01  1.06615653e+01
  1.06543167e+01  1.06180738e+01  1.05528367e+01  1.04634376e+01
  1.03474604e+01  1.02145699e+01  1.00744308e+01  9.93187548e+00
  9.79415258e+00  9.66851062e+00  9.55978201e+00  9.46796674e+00
  9.39548100e+00  9.33507621e+00  9.28433619e+00  9.23601237e+00
  9.18285616e+00  9.11520280e+00  9.02338752e+00  8.90016176e+00
  8.73827694e+00  8.53531687e+00  8.28644915e+00  7.99650619e+00]","[-0.98508206 -0.98722915 -1.00440582 -1.02587665 -1.04520041 -1.04949458
 -1.02802374 -0.97219956 -0.87558079 -0.73387325 -0.54063571 -0.30016232
 -0.01460017  0.31390366  0.67461374  1.065383    1.47547601  1.90274569
  2.34289788  2.78734423  3.23393767  3.67623693  4.11209495  4.5307763
  4.92583972  5.28869689  5.61075947  5.88773328  6.11317708  6.28494379
  6.4030334   6.47174008  6.49750509  6.48676967  6.45026924  6.39444506
  6.33003255  6.26776712  6.20979586  6.16685418  6.14323626  6.14108917
  6.15826584  6.1904721   6.23126669  6.26562003  6.28279671  6.26562003
  6.19906044  6.06808832  5.86411536  5.58070029  5.21784313  4.78198511
  4.28386166  3.73850237  3.16523098  2.58122418  2.0079528   1.46474059
  0.96232297  0.51358245  0.12925445 -0.19066104 -0.44616402 -0.63940156
 -0.77681493 -0.86699245 -0.91852246 -0.94214038 -0.94858164 -0.94643455
 -0.94428747 -0.94858164 -0.96361122 -0.98937623 -1.03017082 -1.07740667
 -1.13108376 -1.18476086 -1.2319967  -1.27493838 -1.30714464 -1.32861547
 -1.33935089 -1.34364506 -1.34149798 -1.33505673 -1.33076256 -1.32646839
 -1.32646839 -1.33505673 -1.3522334  -1.38014549 -1.42308716 -1.48320551
 -1.56264761 -1.66356055 -1.78809141 -1.93838728 -2.11015399 -2.30339153
 -2.51165867 -2.72636705 -2.93892835 -3.14075423 -3.32325635 -3.47355222
 -3.58949475 -3.66464268 -3.69899602 -3.6882606  -3.63887768 -3.55728849
 -3.44564013 -3.31466802 -3.16651923 -3.0119292  -2.85304499 -2.69416079
 -2.5331295  -2.3742453  -2.2153611  -2.05432981 -1.89115144 -1.72153182
 -1.54976511 -1.37155715 -1.19120211 -1.00869998 -0.82619786 -0.65013698
 -0.48051736 -0.32163316 -0.17563146 -0.04680643  0.06484193  0.15287237
  0.21728488  0.25378531]",12.984491675616638,4.932012590499573,4.138745,0.016235
047,1,2,csm,47a.png,1,1,248,278,NaN,0,0,338,neu_feedback_onset,2,"[ 2.51573951e-01  1.34180600e-01  2.14829832e-02 -8.41710327e-02
 -1.80433581e-01 -2.64956793e-01 -3.35392804e-01 -3.87045878e-01
 -4.17568150e-01 -4.19916017e-01 -3.96437347e-01 -3.40088538e-01
 -2.53217458e-01 -1.38171974e-01  2.70004707e-03  1.67050739e-01
  3.50184366e-01  5.49753063e-01  7.61061095e-01  9.79412728e-01
  1.20480796e+00  1.43724680e+00  1.67672923e+00  1.92090740e+00
  2.17212917e+00  2.43039455e+00  2.69335565e+00  2.96101249e+00
  3.23101720e+00  3.49867404e+00  3.75928728e+00  4.00816119e+00
  4.24060002e+00  4.44721232e+00  4.63034595e+00  4.78060944e+00
  4.90035065e+00  4.98956960e+00  5.05061414e+00  5.08583215e+00
  5.10696295e+00  5.11870229e+00  5.13044162e+00  5.14687669e+00
  5.18209470e+00  5.23844351e+00  5.32296672e+00  5.43801220e+00
  5.59062356e+00  5.77845292e+00  6.00619602e+00  6.26915713e+00
  6.56733624e+00  6.90073336e+00  7.26465274e+00  7.65674654e+00
  8.06762327e+00  8.49258720e+00  8.92224686e+00  9.34955866e+00
  9.76278326e+00  1.01525292e+01  1.05070571e+01  1.08240191e+01
  1.10940239e+01  1.13147234e+01  1.14837698e+01  1.15964674e+01
  1.16598598e+01  1.16692513e+01  1.16293375e+01  1.15401186e+01
  1.14015944e+01  1.12184608e+01  1.09930656e+01  1.07277566e+01
  1.04248818e+01  1.00891368e+01  9.72991312e+00  9.34721079e+00
  8.95276913e+00  8.54893601e+00  8.14275501e+00  7.73892188e+00
  7.34213236e+00  6.95473430e+00  6.58142344e+00  6.22924339e+00
  5.90054201e+00  5.60001503e+00  5.33235819e+00  5.09757148e+00
  4.90269852e+00  4.74539143e+00  4.62565021e+00  4.54112700e+00
  4.48712606e+00  4.46364739e+00  4.45895165e+00  4.47303886e+00
  4.49651753e+00  4.53173553e+00  4.57164927e+00  4.61860661e+00
  4.67025969e+00  4.72895636e+00  4.79704450e+00  4.87452412e+00
  4.96139520e+00  5.05530988e+00  5.15626816e+00  5.25722644e+00
  5.35583686e+00  5.44505580e+00  5.51549181e+00  5.56714489e+00
  5.59062356e+00  5.58592782e+00  5.55070982e+00  5.48496954e+00
  5.39105486e+00  5.27131364e+00  5.13513736e+00  4.98487387e+00
  4.82521891e+00  4.66556395e+00  4.50590899e+00  4.35329764e+00
  4.20772988e+00  4.06920573e+00  3.94242091e+00  3.82267969e+00
  3.71232994e+00  3.61137166e+00  3.52215271e+00  3.44467310e+00
  3.38128069e+00  3.33667122e+00  3.31554041e+00  3.31788828e+00
  3.34841055e+00  3.40710723e+00  3.49397831e+00  3.60198019e+00
  3.73111288e+00  3.87668063e+00  4.03163986e+00  4.19599055e+00
  4.36268911e+00  4.53643127e+00  4.71252129e+00  4.90035065e+00
  5.09522362e+00  5.30183591e+00  5.51783968e+00  5.73853918e+00
  5.95689081e+00  6.16115524e+00  6.33959314e+00  6.47811729e+00
  6.56264051e+00  6.58142344e+00  6.52272677e+00  6.38655048e+00
  6.17289458e+00  5.88880267e+00  5.54131835e+00  5.14922456e+00
  4.72660849e+00  4.29460096e+00  3.86494130e+00  3.45876030e+00
  3.09014518e+00  2.77083527e+00  2.50787416e+00  2.31065333e+00
  2.17682491e+00  2.10873677e+00  2.10404103e+00  2.15099837e+00
  2.24726092e+00  2.37639361e+00  2.52900496e+00  2.69570352e+00
  2.86474995e+00  3.02440490e+00  3.16997266e+00  3.29206174e+00
  3.39067216e+00  3.45876030e+00  3.49632618e+00  3.50571764e+00
  3.48223897e+00  3.43293377e+00  3.35545415e+00  3.25449587e+00
  3.13475465e+00  3.00092623e+00  2.86005421e+00  2.71683432e+00
  2.58065804e+00  2.45387322e+00  2.34821920e+00  2.26369599e+00
  2.20265145e+00  2.16978131e+00  2.16038984e+00  2.17447704e+00
  2.20499931e+00  2.25430452e+00  2.31300120e+00  2.38108934e+00
  2.45387322e+00  2.52665710e+00  2.59944097e+00  2.66752912e+00
  2.73092153e+00  2.78961820e+00  2.83892341e+00  2.87883715e+00
  2.91170729e+00  2.93518596e+00  2.94927316e+00  2.95866463e+00
  2.95866463e+00  2.95396889e+00  2.94457743e+00  2.93049022e+00
  2.91170729e+00  2.89057648e+00  2.86709781e+00  2.83892341e+00
  2.81074900e+00  2.77787887e+00  2.74500873e+00  2.70744286e+00
  2.66752912e+00  2.62291964e+00  2.57831017e+00  2.53370070e+00
  2.48909122e+00  2.44448175e+00  2.40691588e+00  2.37639361e+00
  2.35291494e+00  2.33882773e+00  2.33413200e+00  2.33882773e+00
  2.34821920e+00  2.36465427e+00  2.38343721e+00  2.40222014e+00
  2.42100308e+00  2.43743815e+00  2.45152535e+00  2.45856895e+00
  2.46326469e+00  2.46091682e+00  2.45622108e+00  2.44448175e+00]","[-2.29793275 -2.17174854 -2.03570619 -1.89374895 -1.74193358 -1.58223169
 -1.41267165 -1.22931023 -1.02426089 -0.79160875 -0.52149568 -0.20800678
  0.1606877   0.59050267  1.08538136  1.65123868  2.28018809  2.96828636
  3.7037037   4.4706671   5.24946027  6.02036692  6.76169915  7.45176904
  8.06888869  8.59728507  9.02118515  9.33467404  9.53183687  9.61661688
  9.59492897  9.4786029   9.28341171  9.02710003  8.72938416  8.40209387
  8.06100218  7.71596723  7.37290391  7.03575548  6.70452193  6.38117489
  6.06177111  5.74828222  5.43873658  5.12919094  4.82358856  4.51601455
  4.2123838   3.90678142  3.60117903  3.29557665  2.9919459   2.68831515
  2.38468439  2.08302527  1.78333777  1.48759353  1.19579255  0.91187807
  0.63782175  0.37559519  0.12717002 -0.10351048 -0.31644634 -0.50966591
 -0.68514082 -0.84287109 -0.98679995 -1.11889904 -1.24902651 -1.37718235
 -1.51125307 -1.65518193 -1.81094057 -1.9805006  -2.1618904  -2.35116671
 -2.54241465 -2.72774771 -2.90322263 -3.06489614 -3.20882501 -3.33303759
 -3.44147714 -3.53414367 -3.6130088  -3.68004416 -3.73524976 -3.77468232
 -3.79834186 -3.80031349 -3.77862558 -3.72933487 -3.65244137 -3.5499167
 -3.41978923 -3.26994548 -3.10235708 -2.92491054 -2.73957748 -2.56015931
 -2.38862765 -2.24075553 -2.12245783 -2.0435927  -2.01204665 -2.03767782
 -2.1204862  -2.26244344 -2.45960627 -2.7060598  -2.98997427 -3.30346317
 -3.63272509 -3.96593026 -4.29322056 -4.60868108 -4.90836858 -5.18636816
 -5.44859472 -5.69307663 -5.92375713 -6.14260787 -6.34962884 -6.54482004
 -6.72620984 -6.89182662 -7.03772711 -7.16193969 -7.25854947 -7.32952809
 -7.37290391 -7.3926202  -7.38867694 -7.36698903 -7.32755646 -7.2743225
 -7.20728714 -7.12645038]",9.12081771512624,5.719003539072757,4.259185,
047,1,2,csm,59a.png,1,1,128,108,128,1,1,385,neu_feedback_onset,3,"[ 7.07527804e-01  6.25416260e-01  5.34181211e-01  4.36103534e-01
  3.31183227e-01  2.23982045e-01  1.12219110e-01  7.29880391e-03
 -9.30597498e-02 -1.79733046e-01 -2.50440209e-01 -3.00619486e-01
 -3.30270877e-01 -3.37113506e-01 -3.25709124e-01 -3.00619486e-01
 -2.66406343e-01 -2.27631447e-01 -1.93418304e-01 -1.72890418e-01
 -1.66047789e-01 -1.84294799e-01 -2.27631447e-01 -2.98338610e-01
 -3.98697164e-01 -5.24145356e-01 -6.76964063e-01 -8.50310655e-01
 -1.04190426e+00 -1.24718312e+00 -1.45930461e+00 -1.67142610e+00
 -1.88126671e+00 -2.07742206e+00 -2.25533041e+00 -2.41042999e+00
 -2.53359731e+00 -2.62027060e+00 -2.66816900e+00 -2.67044988e+00
 -2.62483236e+00 -2.53359731e+00 -2.39218298e+00 -2.20515113e+00
 -1.97478263e+00 -1.70792011e+00 -1.40456358e+00 -1.07839828e+00
 -7.31705092e-01 -3.78169278e-01 -2.46334632e-02  3.17497970e-01
  6.41382393e-01  9.35615426e-01  1.19107356e+00  1.40547593e+00
  1.57197989e+00  1.68602370e+00  1.74988824e+00  1.76585437e+00
  1.73620298e+00  1.66777669e+00  1.56513726e+00  1.43968907e+00
  1.29371299e+00  1.13633253e+00  9.72109446e-01  8.03324605e-01
  6.32258889e-01  4.61193172e-01  2.87846579e-01  1.12219110e-01
 -6.79701114e-02 -2.59563714e-01 -4.67123450e-01 -6.97491949e-01
 -9.57511838e-01 -1.25402575e+00 -1.59615718e+00 -1.98390614e+00
 -2.42411525e+00 -2.91222276e+00 -3.44366692e+00 -4.00932422e+00
 -4.59322853e+00 -5.18169460e+00 -5.75647541e+00 -6.29932395e+00
 -6.79427409e+00 -7.22535969e+00 -7.58117638e+00 -7.85488153e+00
 -8.04191338e+00 -8.14455281e+00 -8.16736157e+00 -8.11718230e+00
 -8.00313849e+00 -7.84119627e+00 -7.64276004e+00 -7.41923417e+00
 -7.18430392e+00 -6.94709280e+00 -6.71900517e+00 -6.50460281e+00
 -6.31072833e+00 -6.13966261e+00 -5.98912478e+00 -5.86367659e+00
 -5.75419453e+00 -5.66295948e+00 -5.58084794e+00 -5.50557902e+00
 -5.43487186e+00 -5.35960295e+00 -5.28205315e+00 -5.19766073e+00
 -5.10186393e+00 -4.99694363e+00 -4.87833806e+00 -4.75060899e+00
 -4.61147554e+00 -4.46321859e+00 -4.30811901e+00 -4.14617680e+00
 -3.98195371e+00 -3.81773062e+00 -3.65350753e+00 -3.49384620e+00
 -3.34102749e+00 -3.19733229e+00 -3.06276059e+00 -2.93731240e+00
 -2.82326859e+00 -2.71834828e+00 -2.62027060e+00 -2.53131643e+00
 -2.44692401e+00 -2.36709334e+00 -2.28726267e+00 -2.20971288e+00
 -2.13216309e+00 -2.05689418e+00 -1.97934438e+00 -1.90179459e+00
 -1.81968305e+00 -1.73072888e+00 -1.63037032e+00 -1.51404564e+00
 -1.37491219e+00 -1.20612735e+00 -1.00312936e+00 -7.65918235e-01
 -4.96774841e-01 -1.97980056e-01  1.21342615e-01  4.47507915e-01
  7.64549709e-01  1.05878274e+00  1.31196000e+00  1.51267711e+00
  1.64952968e+00  1.71567509e+00  1.71339422e+00  1.64496793e+00
  1.51951974e+00  1.35073490e+00  1.15229867e+00  9.40177178e-01
  7.30336566e-01  5.31900335e-01  3.56272866e-01  2.10296788e-01
  9.85338528e-02  2.09840612e-02 -2.69143394e-02 -4.74422254e-02
 -4.51613492e-02 -2.69143394e-02  2.73705147e-03  3.69501948e-02
  7.11633381e-02  1.00814729e-01  1.25904367e-01  1.44151377e-01
  1.53274882e-01  1.55555758e-01  1.50994006e-01  1.46432253e-01
  1.39589625e-01  1.37308749e-01  1.39589625e-01  1.53274882e-01
  1.78364521e-01  2.14858540e-01  2.67318693e-01  3.31183227e-01
  4.08733019e-01  4.97687192e-01  5.95764869e-01  7.05246928e-01
  8.19290739e-01  9.37896302e-01  1.06334449e+00  1.19335444e+00
  1.32792614e+00  1.46705959e+00  1.61531654e+00  1.77041612e+00
  1.93920096e+00  2.11939018e+00  2.31326466e+00  2.52766703e+00
  2.76715903e+00  3.03402155e+00  3.33737809e+00  3.68407127e+00
  4.08322461e+00  4.53711898e+00  5.05259701e+00  5.62281606e+00
  6.24549527e+00  6.90010675e+00  7.56612260e+00  8.21845320e+00
  8.82516628e+00  9.35432956e+00  9.77629166e+00  1.00659629e+01
  1.02073773e+01  1.01914111e+01  1.00203454e+01  9.70558450e+00
  9.26765626e+00  8.73621210e+00  8.14090341e+00  7.50910070e+00
  6.87729798e+00  6.26830403e+00  5.70720848e+00  5.20769659e+00
  4.78117274e+00  4.43219867e+00  4.16077440e+00  3.95777642e+00
  3.81180034e+00  3.70688004e+00  3.62476849e+00  3.54721870e+00
  3.45598365e+00  3.33053546e+00  3.15946974e+00  2.93366300e+00
  2.65311522e+00  2.31554554e+00  1.93007746e+00  1.50811536e+00
  1.06562537e+00  6.18573631e-01  1.80645397e-01 -2.36754952e-01]","[-0.16930426 -0.17350535 -0.20501359 -0.25542677 -0.31634269 -0.37725862
 -0.42557124 -0.45497893 -0.45918003 -0.43187289 -0.37305752 -0.28273391
 -0.16090206 -0.01386362  0.15628085  0.34533027  0.55118408  0.77384228
  1.01120433  1.26116967  1.52373831  1.79680969  2.07408217  2.34715355
  2.60972218  2.84708423  3.05293804  3.21468032  3.32810997  3.38482479
  3.38692534  3.33231107  3.22938416  3.07814463  2.89119576  2.6706381
  2.42697441  2.16440578  1.89133439  1.61196137  1.33468889  1.06371806
  0.80324997  0.56378737  0.34953137  0.1625825   0.00924242 -0.10838833
 -0.19661139 -0.25962787 -0.3079405  -0.35205203 -0.4066663  -0.48648717
 -0.60411792 -0.77216184 -0.99061895 -1.26579088 -1.58927544 -1.95267043
 -2.34757366 -2.75928128 -3.1709889  -3.57009322 -3.94609151 -4.28427991
 -4.58045733 -4.83042267 -5.02997484 -5.18541547 -5.29674457 -5.37656543
 -5.42907916 -5.4647885  -5.49419618 -5.52570442 -5.56561485 -5.62022913
 -5.69374835 -5.78617251 -5.89750161 -6.02353455 -6.15796969 -6.29450538
 -6.42894053 -6.55077237 -6.65790038 -6.73982179 -6.79653661 -6.82384375
 -6.81754211 -6.77763167 -6.70201191 -6.59278335 -6.44784547 -6.27349989
 -6.06974663 -5.84708843 -5.60552528 -5.35976104 -5.1139968  -4.8787353
 -4.6602782  -4.46912823 -4.30738595 -4.17715191 -4.07632555 -4.00280633
 -3.95239316 -3.91668382 -3.89357778 -3.87467284 -3.85786845 -3.84106405
 -3.82215911 -3.79695252 -3.76544429 -3.72973495 -3.68352287 -3.62680805
 -3.56169103 -3.47976961 -3.3852449  -3.27601635 -3.1541845  -3.01764881
 -2.87061038 -2.71516975 -2.55762856 -2.40008738 -2.2467473  -2.10601051
 -1.98207812 -1.87705066 -1.80143089 -1.75521881 -1.74051497 -1.76362101
 -1.82243638 -1.91486054]",5.945788133969513,1.4963261396529108,4.384280000000001,0.24517000000000166
047,1,2,csp,3b.png,1,1,192,197,NaN,0,1,462,neg_feedback_onset,4,"[ 2.76018344  2.56647055  2.34798043  2.09795565  1.81864869  1.51005956
  1.17444071  0.82080206  0.45139608  0.07748516 -0.2941733  -0.6523169
 -0.99018822 -1.29877736 -1.57583184 -1.81909919 -2.02632693 -2.19751507
 -2.3326636  -2.43852994 -2.51736659 -2.56692105 -2.59620323 -2.60296065
 -2.59169828 -2.56016362 -2.50835668 -2.43852994 -2.35293588 -2.24706953
 -2.12768833 -1.99028733 -1.83711899 -1.67043581 -1.48573282 -1.2852625
 -1.06451991 -0.82125256 -0.55320798 -0.25813369  0.0639703   0.41760895
  0.79602483  1.19696547  1.61817838  2.05065367  2.48988639  2.9291191
  3.36384687  3.78956473  4.19726279  4.58694105  4.9495896   5.28520844
  5.58929263  5.85283226  6.07582733  6.25152042  6.37765905  6.45199074
  6.47676797  6.45199074  6.382164    6.27855013  6.1434016   5.98798079
  5.81679266  5.63884709  5.45189163  5.26268369  5.0689708   4.87075296
  4.66352521  4.44728757  4.2152826   3.96976277  3.70622314  3.42691618
  3.13409437  2.82775771  2.50790619  2.18354972  1.8546883   1.52357441
  1.19696547  0.87486147  0.55951491  0.25543072 -0.03513862 -0.30994062
 -0.56672283 -0.80098028 -1.00820802 -1.18840606 -1.33256449 -1.43843084
 -1.50150015 -1.52177243 -1.4969952  -1.43167341 -1.32580706 -1.19291101
 -1.03523773 -0.86630207 -0.69736641 -0.53969312 -0.40003964 -0.28741587
 -0.20632675 -0.15902477 -0.14550992 -0.16352972 -0.20407428 -0.26714359
 -0.34372776 -0.42706935 -0.51266342 -0.59375253 -0.66808422 -0.72890106
 -0.77395057 -0.80323275 -0.81224265 -0.79647533 -0.75818324 -0.69060898
 -0.59825748 -0.47662381 -0.32796043 -0.15451982  0.04144555  0.25768319
  0.48518322  0.71944067  0.95820307  1.19471299  1.42446549  1.64746056
  1.85694078  2.05515862  2.23986161  2.41555469  2.58223788  2.73991116
  2.88857454  3.02597555  3.15436665  3.27149537  3.37510925  3.46070331
  3.53278253  3.58458946  3.62288155  3.64315383  3.6454063   3.63414392
  3.60486174  3.55981223  3.49674292  3.41340133  3.30978746  3.18364883
  3.03723792  2.87280722  2.69486165  2.51241114  2.32996063  2.15652002
  2.00109921  1.87045563  1.76909423  1.70377245  1.67449026  1.68124769
  1.71953977  1.78936651  1.88171801  1.99659426  2.12273288  2.26013389
  2.39753489  2.53268342  2.66107452  2.77595077  2.87280722  2.94713891
  2.99669337  3.01246069  2.99444089  2.938129    2.84127256  2.70161908
  2.51691609  2.28941607  2.01686654  1.70151997  1.3501338   0.96496049
  0.55050501  0.11802971 -0.32345548 -0.76719315 -1.19966844 -1.60961897
 -1.98803485 -2.32590617 -2.61422303 -2.846228   -3.02192109 -3.13679734
 -3.19085675 -3.18860428 -3.13229239 -3.02867852 -2.87776266 -2.68630225
 -2.4610547  -2.2042725  -1.92271306 -1.62088135 -1.30553478 -0.98568327
 -0.6703367  -0.37300994 -0.09820793  0.13830199  0.33426736  0.47842579
  0.57077728  0.60906937  0.60231194  0.55275748  0.47166836  0.36580202
  0.24867329  0.12703962  0.00991089 -0.10271288 -0.20857923 -0.30543567
 -0.40229212 -0.49914856 -0.60276244 -0.71763868 -0.84377731 -0.98568327
 -1.14110407 -1.30553478 -1.47672292 -1.64565858 -1.80558434 -1.94974277
 -2.06912397 -2.16147546 -2.21778735 -2.23805963 -2.2222923  -2.16823289
 -2.08263882 -1.96776257]","[-3.2105916  -2.94441753 -2.65482015 -2.33967005 -2.00109664 -1.64335869
 -1.270715   -0.88529495 -0.49561611 -0.10380789  0.28374156  0.66277343
  1.02689955  1.37186114  1.69552881  1.99790255  2.27259419  2.52386251
  2.7538369   2.96038798  3.14990391  3.32025531  3.47783036  3.62262905
  3.75465139  3.87389737  3.980367    4.07193088  4.14858901  4.20608261
  4.24867046  4.27422317  4.28487013  4.28061135  4.26357621  4.23589411
  4.20182382  4.16349476  4.12090691  4.07831906  4.0378606   3.99953153
  3.96546125  3.93777915  3.91435583  3.89306191  3.86963859  3.84408588
  3.80575681  3.75039261  3.67373448  3.56939424  3.43524251  3.27127929
  3.07963396  2.86456531  2.63459092  2.40035774  2.16399517  1.93827956
  1.7253403   1.52943619  1.35269661  1.19086278  1.0418053   0.90126539
  0.76498427  0.62657375  0.48177506  0.3284588   0.16449557 -0.01224401
 -0.20175994 -0.40192284 -0.60634453 -0.8128956  -1.01518789 -1.20896261
 -1.38570219 -1.54114785 -1.67104079 -1.76899285 -1.8392628  -1.87546248
 -1.88398005 -1.86481551 -1.82435706 -1.76473407 -1.69233472 -1.6114178
 -1.5262421  -1.4410664  -1.36227888 -1.28987953 -1.22812715 -1.17702173
 -1.14082205 -1.11739873 -1.10675177 -1.10888116 -1.12165752 -1.13869266
 -1.15785719 -1.17702173 -1.18979808 -1.19405687 -1.18766869 -1.17063355
 -1.14295144 -1.10462238 -1.05990514 -1.01092911 -0.95982369 -0.90658887
 -0.85548345 -0.80863682 -0.76391957 -0.72559051 -0.69577901 -0.67448509
 -0.66596752 -0.67448509 -0.70429658 -0.7575314  -0.8405777  -0.95343551
 -1.0982342  -1.27284439 -1.47513668 -1.70298168 -1.94360304 -2.19274197
 -2.44188089 -2.67824346 -2.89118272 -3.07431048 -3.22123856 -3.32770819
 -3.39158996 -3.41714267]",4.3638896647415475,3.5655613344902983,4.43956,
047,1,2,csp,9b.png,1,1,312,271,312,1,1,317,pos_feedback_onset,5,"[ 2.95727574e-02  1.21080912e-01  2.03661442e-01  2.68386722e-01
  3.13024847e-01  3.33112003e-01  3.28648190e-01  2.99633409e-01
  2.48299566e-01  1.76878568e-01  9.42980376e-02  2.78988277e-03
 -9.09501783e-02 -1.77994521e-01 -2.56111238e-01 -3.18604612e-01
 -3.65474643e-01 -3.94489424e-01 -4.07880861e-01 -4.07880861e-01
 -3.96721330e-01 -3.81097986e-01 -3.67706549e-01 -3.58778924e-01
 -3.63242737e-01 -3.81097986e-01 -4.16808486e-01 -4.70374235e-01
 -5.35099515e-01 -6.10984326e-01 -6.84637232e-01 -7.53826324e-01
 -8.07392073e-01 -8.38638760e-01 -8.40870667e-01 -8.11855886e-01
 -7.51594418e-01 -6.64550076e-01 -5.55186671e-01 -4.32431829e-01
 -3.07445081e-01 -1.89154052e-01 -8.42544596e-02 -1.67392966e-03
  5.63556319e-02  8.98342252e-02  9.87618500e-02  8.76023190e-02
  5.41237257e-02  9.48560142e-03 -4.85439602e-02 -1.15501147e-01
 -1.89154052e-01 -2.69502675e-01 -3.56547018e-01 -4.50287079e-01
 -5.57418577e-01 -6.77941513e-01 -8.14087792e-01 -9.72553133e-01
 -1.15110563e+00 -1.35197719e+00 -1.57516781e+00 -1.81398178e+00
 -2.06841909e+00 -2.33178402e+00 -2.59738086e+00 -2.85851389e+00
 -3.11071929e+00 -3.35176516e+00 -3.57495578e+00 -3.78252306e+00
 -3.97446699e+00 -4.15525140e+00 -4.32487627e+00 -4.48780542e+00
 -4.64627076e+00 -4.80027229e+00 -4.95204192e+00 -5.09934773e+00
 -5.23772591e+00 -5.36271266e+00 -5.46761225e+00 -5.55019278e+00
 -5.60599044e+00 -5.63277331e+00 -5.62830950e+00 -5.59483091e+00
 -5.53680134e+00 -5.45645272e+00 -5.36048075e+00 -5.25334925e+00
 -5.13952204e+00 -5.02346291e+00 -4.90517188e+00 -4.78911276e+00
 -4.67305364e+00 -4.55699452e+00 -4.44316730e+00 -4.33380389e+00
 -4.22444049e+00 -4.12400471e+00 -4.03696037e+00 -3.97000318e+00
 -3.93206077e+00 -3.92982887e+00 -3.97669890e+00 -4.07713468e+00
 -4.23560002e+00 -4.45432683e+00 -4.72661939e+00 -5.04578198e+00
 -5.40065506e+00 -5.77784721e+00 -6.15727127e+00 -6.52553580e+00
 -6.86478554e+00 -7.16162907e+00 -7.40937066e+00 -7.59908269e+00
 -7.72630134e+00 -7.79325853e+00 -7.80218615e+00 -7.75977993e+00
 -7.67273559e+00 -7.55221266e+00 -7.40713875e+00 -7.24197769e+00
 -7.07012091e+00 -6.89380032e+00 -6.71524783e+00 -6.53892723e+00
 -6.36707046e+00 -6.19521368e+00 -6.02558880e+00 -5.85596393e+00
 -5.68187525e+00 -5.51001847e+00 -5.33816169e+00 -5.17300063e+00
 -5.01453529e+00 -4.87392520e+00 -4.75117036e+00 -4.65743029e+00
 -4.59493692e+00 -4.57261786e+00 -4.59047311e+00 -4.65296648e+00
 -4.76009798e+00 -4.91186760e+00 -5.10604344e+00 -5.33369788e+00
 -5.59259900e+00 -5.87158728e+00 -6.16396699e+00 -6.45634670e+00
 -6.73756689e+00 -7.00316373e+00 -7.23974579e+00 -7.44284925e+00
 -7.60801031e+00 -7.73522897e+00 -7.82450521e+00 -7.88030287e+00
 -7.90485384e+00 -7.90262193e+00 -7.87807096e+00 -7.83789665e+00
 -7.78433090e+00 -7.71514181e+00 -7.63256128e+00 -7.53658931e+00
 -7.42499400e+00 -7.29554344e+00 -7.14823763e+00 -6.98307657e+00
 -6.79782836e+00 -6.59695680e+00 -6.38046189e+00 -6.14834365e+00
 -5.90729778e+00 -5.65732428e+00 -5.40288697e+00 -5.14175394e+00
 -4.88062092e+00 -4.61948789e+00 -4.35835486e+00 -4.09945374e+00
 -3.84501643e+00 -3.59504294e+00 -3.35176516e+00 -3.11295119e+00
 -2.88306485e+00 -2.65987423e+00 -2.44561124e+00 -2.24250777e+00
 -2.04833193e+00 -1.86754753e+00 -1.70015456e+00 -1.54615303e+00
 -1.40777485e+00 -1.28502000e+00 -1.18235232e+00 -1.10200369e+00
 -1.04174223e+00 -1.00603173e+00 -9.97104102e-01 -1.01272745e+00
 -1.05513366e+00 -1.11985894e+00 -1.20913519e+00 -1.31626669e+00
 -1.43902153e+00 -1.57293591e+00 -1.71354600e+00 -1.85415609e+00
 -1.99253427e+00 -2.12421674e+00 -2.24473968e+00 -2.35187117e+00
 -2.44561124e+00 -2.52149605e+00 -2.58175751e+00 -2.62639564e+00
 -2.65987423e+00 -2.68442520e+00 -2.70004854e+00 -2.71120808e+00
 -2.71790379e+00 -2.72683142e+00 -2.73575904e+00 -2.74915048e+00
 -2.76700573e+00 -2.78709289e+00 -2.81164385e+00 -2.84065864e+00
 -2.87190532e+00 -2.90538392e+00 -2.94109442e+00 -2.97457301e+00
 -3.01028351e+00 -3.04599401e+00 -3.08170451e+00 -3.11518310e+00
 -3.15089360e+00 -3.18883601e+00 -3.22677841e+00 -3.27141654e+00
 -3.32051847e+00 -3.37631613e+00 -3.44104141e+00 -3.51692622e+00
 -3.60173865e+00 -3.69547872e+00 -3.79814640e+00 -3.90527790e+00
 -4.01464130e+00 -4.12177280e+00 -4.22220858e+00 -4.30702102e+00]","[-1.91783091 -1.68149807 -1.4229459  -1.15429404 -0.88766211 -0.63314982
 -0.40085686 -0.19886298 -0.02514824  0.12028736  0.24148369  0.3465205
  0.44549751  0.55053432  0.66567084  0.80100674  0.96260184  1.15651597
  1.38274912  1.64938104  1.95641174  2.31394091  2.72196855  3.18453454
  3.70163888  4.27126162  4.88532302  5.53170344  6.19222344  6.84466368
  7.46680483  8.03440764  8.52525277  8.92318072  9.22011172  9.40796603
  9.49078352  9.47664395  9.37766695  9.20799209  8.98579882  8.72724665
  8.44243528  8.14348433  7.83847357  7.52942293  7.22239223  6.91334159
  6.60429096  6.29120044  5.97407005  5.6488599   5.31556999  4.97218039
  4.6186911   4.25308217  3.87939349  3.49762506  3.11181674  2.72196855
  2.33010042  1.94227217  1.56252367  1.18883499  0.82726594  0.47579659
  0.13442693 -0.19684304 -0.52407313 -0.84928328 -1.17651336 -1.51182321
 -1.85319287 -2.20466222 -2.56421133 -2.92982026 -3.29340924 -3.65093841
 -3.99836789 -4.32761792 -4.63464862 -4.91542011 -5.16387259 -5.38202598
 -5.56584041 -5.71329594 -5.82439258 -5.90115025 -5.94356897 -5.95366866
 -5.93548921 -5.89105056 -5.82237264 -5.73147539 -5.6223987  -5.49716249
 -5.35980665 -5.21235112 -5.05883577 -4.90128054 -4.74574525 -4.5922299
 -4.44477437 -4.30741853 -4.18218232 -4.07310563 -3.9781685  -3.90343077
 -3.85091236 -3.81859333 -3.80849364 -3.82061327 -3.85697217 -3.91353046
 -3.99028813 -4.08118538 -4.1862222  -4.29933877 -4.41649522 -4.53365168
 -4.64878819 -4.75988482 -4.86492164 -4.9618787  -5.05479589 -5.14165326
 -5.22447075 -5.3052683  -5.38404592 -5.46080359 -5.53756127 -5.612299
 -5.68905668 -5.76379441 -5.83853215 -5.91124995 -5.98194781 -6.05264567
 -6.11728371 -6.17990181]",-0.0747019010261026,6.084156710893214,4.480474999999999,0.2547449999999998
047,1,2,csm,27a.png,1,1,244,35,244,1,1,537,neu_feedback_onset,6,"[-9.25037787e-01 -8.37121438e-01 -7.42442294e-01 -6.43254618e-01
 -5.44066943e-01 -4.42625002e-01 -3.45691592e-01 -2.51012447e-01
 -1.58587568e-01 -6.84169534e-02  1.94993953e-02  1.07415744e-01
  1.97586358e-01  2.92265503e-01  3.95961709e-01  5.10929242e-01
  6.34913836e-01  7.74678288e-01  9.27968332e-01  1.09703823e+00
  1.27963373e+00  1.47350055e+00  1.67863869e+00  1.89053964e+00
  2.10694911e+00  2.32786712e+00  2.54653085e+00  2.76519459e+00
  2.97709554e+00  3.18448795e+00  3.38060903e+00  3.56771306e+00
  3.74129149e+00  3.90134433e+00  4.04561731e+00  4.17185617e+00
  4.28006091e+00  4.37023152e+00  4.44687655e+00  4.50774171e+00
  4.55733555e+00  4.60016659e+00  4.63848910e+00  4.67906588e+00
  4.72189692e+00  4.76923649e+00  4.82784739e+00  4.89772962e+00
  4.98113743e+00  5.07581658e+00  5.18627558e+00  5.31026018e+00
  5.45227889e+00  5.61007747e+00  5.78365590e+00  5.97752272e+00
  6.18942366e+00  6.41935873e+00  6.66732792e+00  6.93333123e+00
  7.21286013e+00  7.50591463e+00  7.81249472e+00  8.12583760e+00
  8.44819755e+00  8.77281176e+00  9.09968023e+00  9.42654871e+00
  9.74890865e+00  1.00622515e+01  1.03620688e+01  1.06438520e+01
  1.09008382e+01  1.11240105e+01  1.13066060e+01  1.14441162e+01
  1.15252698e+01  1.15455581e+01  1.15004728e+01  1.13877596e+01
  1.12074183e+01  1.09571949e+01  1.06415977e+01  1.02651354e+01
  9.83231647e+00  9.34764942e+00  8.82015133e+00  8.25433073e+00
  7.65695041e+00  7.03477317e+00  6.39456181e+00  5.74758765e+00
  5.09385070e+00  4.44913081e+00  3.81793651e+00  3.20928487e+00
  2.63219294e+00  2.10018632e+00  1.62002780e+00  1.20298871e+00
  8.53577575e-01  5.80811468e-01  3.82436117e-01  2.58451523e-01
  2.06603419e-01  2.20129012e-01  2.87756972e-01  3.98215974e-01
  5.40234692e-01  7.02541797e-01  8.73865964e-01  1.04519013e+00
  1.20749724e+00  1.35627875e+00  1.48928040e+00  1.60650220e+00
  1.70343561e+00  1.78684343e+00  1.85447139e+00  1.91082803e+00
  1.95816760e+00  1.99874437e+00  2.03932115e+00  2.08215219e+00
  2.12949176e+00  2.18810266e+00  2.25798489e+00  2.34364697e+00
  2.44058038e+00  2.55329365e+00  2.67502398e+00  2.80351710e+00
  2.93651876e+00  3.06952042e+00  3.19801354e+00  3.32650667e+00
  3.45499979e+00  3.58800145e+00  3.73452870e+00  3.89909007e+00
  4.09070262e+00  4.31612916e+00  4.57762394e+00  4.87969549e+00
  5.21558103e+00  5.57851775e+00  5.95272580e+00  6.32918812e+00
  6.68310778e+00  7.00095919e+00  7.26019971e+00  7.44955799e+00
  7.55550847e+00  7.56903406e+00  7.48562624e+00  7.30979354e+00
  7.04153597e+00  6.69437910e+00  6.27959428e+00  5.81296135e+00
  5.30349738e+00  4.77149076e+00  4.22821281e+00  3.68493486e+00
  3.15518250e+00  2.64346426e+00  2.16330574e+00  1.71470694e+00
  1.30893918e+00  9.48256720e-01  6.39422367e-01  3.86944648e-01
  1.95332093e-01  6.68389677e-02  3.71953783e-03  3.71953783e-03
  6.90932330e-02  1.90823562e-01  3.64401994e-01  5.78557203e-01
  8.22017861e-01  1.08576691e+00  1.36078728e+00  1.63129912e+00
  1.89279390e+00  2.13400030e+00  2.35266403e+00  2.54653085e+00
  2.71109223e+00  2.84860241e+00  2.96131568e+00  3.05599482e+00
  3.13489411e+00  3.20477634e+00  3.27240430e+00  3.34003226e+00
  3.40991448e+00  3.48205098e+00  3.55193320e+00  3.61505263e+00
  3.66239220e+00  3.68493486e+00  3.67591780e+00  3.62406969e+00
  3.52939055e+00  3.38511757e+00  3.19801354e+00  2.97258701e+00
  2.71785502e+00  2.44959744e+00  2.17683134e+00  1.91308229e+00
  1.67187590e+00  1.45772069e+00  1.27512520e+00  1.12859795e+00
  1.01588468e+00  9.32476863e-01  8.71611698e-01  8.28780657e-01
  7.94966676e-01  7.67915492e-01  7.38610043e-01  7.09304593e-01
  6.70982082e-01  6.28151040e-01  5.78557203e-01  5.22200569e-01
  4.61335404e-01  3.95961709e-01  3.26079483e-01  2.53942992e-01
  1.79552235e-01  1.02907213e-01  2.62621913e-02 -5.26370960e-02
 -1.33790649e-01 -2.12689936e-01 -2.93843489e-01 -3.68234245e-01
 -4.40370736e-01 -5.03490166e-01 -5.59846800e-01 -6.02677842e-01
 -6.36491822e-01 -6.56780210e-01 -6.68051537e-01 -6.74814333e-01
 -6.77068598e-01 -6.86085660e-01 -7.04119783e-01 -7.40188028e-01
 -7.98798927e-01 -8.88969541e-01 -1.01069987e+00 -1.16849845e+00
 -1.36461953e+00 -1.59455460e+00 -1.85830364e+00 -2.14910387e+00]","[-2.78575020e-01 -1.77798527e-01 -8.11353603e-02  1.14144803e-02
  9.98509948e-02  1.80060857e-01  2.49987403e-01  3.07573970e-01
  3.46650570e-01  3.63103875e-01  3.54877222e-01  3.19913949e-01
  2.54100729e-01  1.59494225e-01  4.02077641e-02 -9.96453284e-02
 -2.58008389e-01 -4.24598102e-01 -5.97357805e-01 -7.70117507e-01
 -9.38763884e-01 -1.09918361e+00 -1.24315003e+00 -1.37271980e+00
 -1.47966629e+00 -1.55987615e+00 -1.61129273e+00 -1.62568937e+00
 -1.60100941e+00 -1.53725285e+00 -1.43030637e+00 -1.28839662e+00
 -1.10946692e+00 -9.01743947e-01 -6.69341014e-01 -4.22541439e-01
 -1.67515212e-01  8.95676791e-02  3.38423917e-01  5.76996840e-01
  7.97059794e-01  9.90386128e-01  1.15491918e+00  1.28448896e+00
  1.37703880e+00  1.43256870e+00  1.44902201e+00  1.43051204e+00
  1.38115212e+00  1.30094226e+00  1.20016577e+00  1.08087931e+00
  9.49252866e-01  8.13513099e-01  6.77773333e-01  5.46146893e-01
  4.24803769e-01  3.17857286e-01  2.25307445e-01  1.49210910e-01
  8.95676791e-02  4.22644272e-02  5.24449097e-03 -2.56054559e-02
 -5.85120659e-02 -9.96453284e-02 -1.53118570e-01 -2.23045116e-01
 -3.09424967e-01 -4.16371450e-01 -5.37714574e-01 -6.71397677e-01
 -8.11250770e-01 -9.51103863e-01 -1.08684363e+00 -1.21641341e+00
 -1.33775653e+00 -1.45704299e+00 -1.57632945e+00 -1.70178590e+00
 -1.84163900e+00 -2.00205872e+00 -2.18921506e+00 -2.40722136e+00
 -2.65607759e+00 -2.93372712e+00 -3.23811326e+00 -3.56100937e+00
 -3.89624546e+00 -4.23765154e+00 -4.57905762e+00 -4.91635037e+00
 -5.24541647e+00 -5.56419925e+00 -5.87475539e+00 -6.17502820e+00
 -6.46707437e+00 -6.75500720e+00 -7.03471339e+00 -7.31236291e+00
 -7.58589911e+00 -7.85532198e+00 -8.12474485e+00 -8.39005439e+00
 -8.65536393e+00 -8.91656015e+00 -9.17775637e+00 -9.43689592e+00
 -9.69603547e+00 -9.95311836e+00 -1.02081446e+01 -1.04631708e+01
 -1.07181970e+01 -1.09732233e+01 -1.12282495e+01 -1.14812191e+01
 -1.17341886e+01 -1.19851015e+01 -1.22360144e+01 -1.24828140e+01
 -1.27296136e+01 -1.29702432e+01 -1.32067594e+01 -1.34412190e+01
 -1.36695086e+01 -1.38977982e+01 -1.41219745e+01 -1.43502641e+01
 -1.45826671e+01 -1.48212400e+01 -1.50700962e+01 -1.53312924e+01
 -1.56007153e+01 -1.58783648e+01 -1.61580710e+01 -1.64336639e+01
 -1.66948601e+01 -1.69313763e+01 -1.71390993e+01 -1.73077457e+01]",8.583453466891052,0.18941867388418826,4.4360349999999995,
047,1,2,csm,55a.png,1,1,316,297,NaN,0,1,352,neu_feedback_onset,7,"[-7.25485436e-01 -6.30331806e-01 -5.30298502e-01 -4.27825361e-01
 -3.25352221e-01 -2.20439244e-01 -1.20405940e-01 -2.52523096e-02
  6.50216475e-02  1.43096421e-01  2.11411848e-01  2.65088255e-01
  3.01685805e-01  3.26084172e-01  3.33403682e-01  3.26084172e-01
  3.09005315e-01  2.79727275e-01  2.43129725e-01  2.01652501e-01
  1.55295605e-01  1.11378544e-01  6.50216475e-02  2.35444239e-02
 -1.79327996e-02 -5.69701864e-02 -9.11278999e-02 -1.22845777e-01
 -1.49683980e-01 -1.71642510e-01 -1.86281530e-01 -1.88721367e-01
 -1.81401857e-01 -1.57003490e-01 -1.17966103e-01 -6.42896964e-02
  4.02573052e-03  8.69801775e-02  1.79693971e-01  2.82167112e-01
  3.87080089e-01  4.89553229e-01  5.89586533e-01  6.82300327e-01
  7.60375100e-01  8.26250691e-01  8.75047424e-01  9.04325464e-01
  9.14084811e-01  9.01885628e-01  8.70167751e-01  8.21371017e-01
  7.57935264e-01  6.82300327e-01  5.99345880e-01  5.13951596e-01
  4.26117476e-01  3.43163029e-01  2.62648418e-01  1.87013481e-01
  1.16258218e-01  5.03826274e-02 -1.06132895e-02 -6.91693698e-02
 -1.20405940e-01 -1.66762837e-01 -2.03360387e-01 -2.32638427e-01
 -2.49717284e-01 -2.57036794e-01 -2.52157121e-01 -2.37518101e-01
 -2.13119734e-01 -1.78962020e-01 -1.39924633e-01 -9.35677366e-02
 -4.47710030e-02  4.02573052e-03  4.79427907e-02  8.45403409e-02
  1.11378544e-01  1.18698054e-01  1.08938708e-01  7.72208308e-02
  2.35444239e-02 -5.45303497e-02 -1.54563654e-01 -2.71675814e-01
 -4.05866831e-01 -5.47377359e-01 -6.98647233e-01 -8.49917107e-01
 -9.98747144e-01 -1.14513734e+00 -1.28664787e+00 -1.42571856e+00
 -1.56234942e+00 -1.70142011e+00 -1.84293063e+00 -1.99176067e+00
 -2.14791022e+00 -2.31381911e+00 -2.48948735e+00 -2.67003527e+00
 -2.85790269e+00 -3.04333028e+00 -3.22387819e+00 -3.39222692e+00
 -3.54349680e+00 -3.67524798e+00 -3.78260079e+00 -3.86067557e+00
 -3.90703246e+00 -3.92655116e+00 -3.91435197e+00 -3.87775442e+00
 -3.81431867e+00 -3.73136422e+00 -3.63133092e+00 -3.51909843e+00
 -3.39710660e+00 -3.27267493e+00 -3.14824326e+00 -3.02625142e+00
 -2.90913926e+00 -2.80178645e+00 -2.70419298e+00 -2.61391902e+00
 -2.53340441e+00 -2.45776948e+00 -2.38945405e+00 -2.32357846e+00
 -2.25770287e+00 -2.19182728e+00 -2.12595169e+00 -2.06007610e+00
 -1.99176067e+00 -1.92344524e+00 -1.85512982e+00 -1.78437455e+00
 -1.71605913e+00 -1.64774370e+00 -1.57698844e+00 -1.50623317e+00
 -1.43059824e+00 -1.35252346e+00 -1.26712918e+00 -1.17685522e+00
 -1.08414143e+00 -9.84108124e-01 -8.81634983e-01 -7.76722006e-01
 -6.71809029e-01 -5.66896052e-01 -4.61983075e-01 -3.59509934e-01
 -2.54596957e-01 -1.47244143e-01 -3.74514930e-02  7.96606675e-02
  1.99212665e-01  3.28524009e-01  4.62715026e-01  6.04225553e-01
  7.48175917e-01  8.94566118e-01  1.04095632e+00  1.18490668e+00
  1.32397737e+00  1.45572855e+00  1.58260006e+00  1.70215206e+00
  1.82170406e+00  1.94125605e+00  2.06324789e+00  2.19255923e+00
  2.33406976e+00  2.49021930e+00  2.65856804e+00  2.83667611e+00
  3.02698337e+00  3.22217031e+00  3.41735724e+00  3.61010434e+00
  3.79065225e+00  3.96144082e+00  4.11515053e+00  4.25422122e+00
  4.38109273e+00  4.49332522e+00  4.60067803e+00  4.70315117e+00
  4.80806415e+00  4.92029664e+00  5.03984863e+00  5.16915998e+00
  5.31311034e+00  5.46925989e+00  5.63516878e+00  5.81083702e+00
  5.99382477e+00  6.17925236e+00  6.36955962e+00  6.56230672e+00
  6.75261398e+00  6.94292124e+00  7.13322850e+00  7.32353576e+00
  7.51140319e+00  7.69927061e+00  7.88469820e+00  8.06768595e+00
  8.24823386e+00  8.42146227e+00  8.59225083e+00  8.75328006e+00
  8.90942960e+00  9.05581980e+00  9.19001082e+00  9.31688233e+00
  9.43399449e+00  9.54134730e+00  9.63894077e+00  9.72677489e+00
  9.80728950e+00  9.87560493e+00  9.93660084e+00  9.98783741e+00
  1.00293146e+01  1.00610325e+01  1.00805512e+01  1.00878707e+01
  1.00854309e+01  1.00707919e+01  1.00463935e+01  1.00122358e+01
  9.96831872e+00  9.91708215e+00  9.86096591e+00  9.80484966e+00
  9.74629358e+00  9.69505701e+00  9.65113995e+00  9.61942208e+00
  9.60234322e+00  9.60234322e+00  9.62186191e+00  9.66333914e+00
  9.72677489e+00  9.80728950e+00  9.90488297e+00  1.00146756e+01
  1.01269081e+01  1.02415804e+01  1.03513731e+01  1.04514064e+01
  1.05392405e+01  1.06124356e+01  1.06709917e+01  1.07173486e+01]","[-1.04176327 -1.01497213 -0.99436356 -0.98199841 -0.9778767  -0.97993756
 -0.98405927 -0.9778767  -0.95314641 -0.89338156 -0.78621699 -0.61104413
 -0.35961957 -0.01957814  0.41114099  0.93047699  1.52812555  2.19172154
  2.89653467  3.61783466  4.33089122  5.01097406  5.63335291  6.17741919
  6.63286861  6.98939689  7.24494317  7.40362917  7.4695766   7.45721145
  7.37477717  7.23669974  7.05740517  6.84513689  6.6143209   6.37113976
  6.12589776  5.88271662  5.64983977  5.42932806  5.2253032   5.03364349
  4.8605315   4.7018455   4.5575855   4.42569064  4.30822179  4.20311808
  4.11037951  4.02794522  3.95375437  3.88162437  3.80537265  3.71263408
  3.59722609  3.44060095  3.23657609  2.97072552  2.63686667  2.22881696
  1.75069812  1.2086927   0.60898328 -0.03194329 -0.70172185 -1.38386555
 -2.05982668 -2.71930096 -3.34786238 -3.93520665 -4.47721207 -4.96769606
 -5.40253692 -5.78379548 -6.1094109  -6.3835049  -6.60813832 -6.78331118
 -6.91314518 -6.99764032 -7.03885746 -7.0367966  -6.99145775 -6.90490175
 -6.77918946 -6.6143209  -6.41647861 -6.19390605 -5.95072491 -5.7013612
 -5.45405834 -5.21912063 -5.00685235 -4.82137521 -4.66887178 -4.55140293
 -4.46484693 -4.40714293 -4.37416922 -4.35768236 -4.3556215  -4.36180407
 -4.37623007 -4.39477779 -4.42156893 -4.45454264 -4.49782064 -4.5575855
 -4.63383721 -4.73275835 -4.85847064 -5.01303492 -5.20057292 -5.41696291
 -5.66632663 -5.94454234 -6.24542747 -6.56692118 -6.89665832 -7.23051717
 -7.55407174 -7.85907859 -8.13523344 -8.37223201 -8.56389172 -8.70403001
 -8.79264686 -8.82974229 -8.82149886 -8.77203829 -8.69372572 -8.59480458
 -8.48557915 -8.37429287 -8.26918916 -8.17438973 -8.09813802 -8.03837316
 -7.99921687 -7.9786083 ]",10.008169386474608,4.355157810133245,4.098635,
047,1,2,csm,40a.png,1,1,240,229,240,1,1,422,neu_feedback_onset,8,"[-1.11781129 -1.00152403 -0.86287384 -0.70633329 -0.53861128 -0.36865298
 -0.19869468 -0.03991784  0.10544124  0.22843738  0.32683429  0.40063198
  0.44759414  0.46995707  0.47666595  0.47219337  0.46324819  0.46324819
  0.47442966  0.50573777  0.56164511  0.63991538  0.74054859  0.85683585
  0.97983199  1.10059184  1.21017022  1.29738566  1.35776559  1.38460111
  1.37341964  1.32422118  1.24147832  1.12742736  0.98654087  0.82776403
  0.65556943  0.47890225  0.30223506  0.13227676 -0.02650008 -0.16738657
 -0.29038271 -0.39101591 -0.4648136  -0.51624835 -0.54532016 -0.54979275
 -0.53637499 -0.50730318 -0.46928619 -0.4290329  -0.38877962 -0.35970781
 -0.34405375 -0.35299893 -0.38877962 -0.45586843 -0.55650163 -0.68844295
 -0.84945608 -1.03506844 -1.24080744 -1.45325532 -1.67017578 -1.88038737
 -2.08165378 -2.27397502 -2.45511479 -2.63178198 -2.80844916 -2.99406152
 -3.19756423 -3.42342987 -3.67613103 -3.95790401 -4.26651251 -4.59524765
 -4.94187314 -5.2974438  -5.65301447 -6.00411254 -6.34626545 -6.67500059
 -6.99031797 -7.28998129 -7.57622686 -7.84681837 -8.10175583 -8.33880293
 -8.5557234  -8.74357205 -8.90234889 -9.02981762 -9.11703306 -9.16846781
 -9.18412187 -9.16399523 -9.11032418 -9.02758133 -8.92023924 -8.78829792
 -8.63175738 -8.4550902  -8.25382378 -8.02795814 -7.77525698 -7.493484
 -7.17816662 -6.83154113 -6.45137124 -6.04212953 -5.6060523  -5.14761214
 -4.67575422 -4.19942371 -3.7230932  -3.26018045 -2.81515804 -2.39473487
 -2.0078561  -1.65675802 -1.34144064 -1.06414025 -0.81814797 -0.60570009
 -0.42008773 -0.25683831 -0.11371552  0.0137532   0.12780417  0.22843738
  0.31341653  0.38721422  0.44983043  0.50126518  0.54822735  0.59518951
  0.64886055  0.71594936  0.8031648   0.91945206  1.06704743  1.24595091
  1.45168991  1.67755555  1.91460266  2.14941348  2.36857024  2.55641889
  2.70625055  2.80688376  2.85160963  2.84266445  2.78228453  2.67494244
  2.52734707  2.3484436   2.14494089  1.92354783  1.69097331  1.44945362
  1.19675245  0.93286982  0.65780573  0.36932387  0.06518795 -0.25683831
 -0.59451862 -0.94785299 -1.31013253 -1.67464837 -2.03692791 -2.38802599
 -2.71899742 -3.02089704 -3.28701597 -3.50840902 -3.67836733 -3.79689088
 -3.8595071  -3.86621598 -3.81925382 -3.72532949 -3.58891559 -3.4144847
 -3.21321828 -2.99182523 -2.75925071 -2.51996731 -2.2829202  -2.05034568
 -1.82895262 -1.61874103 -1.42194721 -1.23633485 -1.05743137 -0.88523677
 -0.71751476 -0.54755646 -0.37536186 -0.20093097 -0.02202749  0.15687599
  0.33577947  0.50797406  0.67122349  0.81881886  0.94628759  1.05362967
  1.14084512  1.20793392  1.25489609  1.29067678  1.3175123   1.33763894
  1.35776559  1.37789223  1.40025516  1.42485439  1.44945362  1.47181655
  1.49194319  1.50536095  1.51430613  1.51877872  1.5232513   1.53219648
  1.55008682  1.58586752  1.64401115  1.73346289  1.85422274  2.01523587
  2.21426599  2.45354939  2.73308607  3.04840345  3.39726524  3.77743513
  4.17996795  4.59815483  5.02528689  5.44794636  5.85718806  6.23959425
  6.58174715  6.8724653   7.10056724  7.25934407  7.34432322  7.35774099
  7.29959736  7.1810738   7.0088792   6.79866762  6.55938421  6.30891934
  6.05621818  5.81246219]","[-3.20124913 -2.94749019 -2.66629784 -2.36224433 -2.03304353 -1.68783992
 -1.32663349 -0.95628259 -0.58135946 -0.20415022  0.17305903  0.54798216
  0.91833306  1.28639783  1.64760426  2.00195234  2.35172819  2.69007345
  3.01698813  3.33247223  3.62966739  3.90400139  4.15776034  4.38179977
  4.57383357  4.73386173  4.85959815  4.95332893  5.01276796  5.04248748
  5.04934583  5.03334301  5.00133738  4.95790116  4.90303436  4.84130921
  4.77272571  4.69956998  4.62184202  4.5372557   4.4412388   4.33379132
  4.21262714  4.0708879   3.90857362  3.72111206  3.50850321  3.2730332
  3.01698813  2.74494025  2.46374791  2.17798333  1.89907709  1.62702921
  1.37098415  1.13322802  0.91376082  0.71258256  0.52740711  0.35594836
  0.1959202   0.04046426 -0.11270555 -0.26358925 -0.41675906 -0.57678723
 -0.73910151 -0.90370191 -1.07058842 -1.23518882 -1.39293087 -1.53695622
 -1.66040652 -1.76099565 -1.83186527 -1.87072925 -1.87987371 -1.85701255
 -1.80671798 -1.73813448 -1.65583428 -1.57124797 -1.48894777 -1.42036427
 -1.37235582 -1.34720854 -1.35178077 -1.38150029 -1.4386532  -1.51409505
 -1.60553972 -1.70155662 -1.79985963 -1.8913043  -1.9736045  -2.04447411
 -2.10162703 -2.14734936 -2.18621334 -2.22050509 -2.25479684 -2.28908859
 -2.32566646 -2.36681656 -2.41025278 -2.45140288 -2.49255298 -2.52684472
 -2.55199201 -2.56570871 -2.56799482 -2.55885036 -2.54056142 -2.50855579
 -2.47197793 -2.42854171 -2.38053326 -2.33481093 -2.28908859 -2.24793849
 -2.21136063 -2.18392723 -2.16335218 -2.14734936 -2.14049101 -2.13591878
 -2.13134655 -2.1244882  -2.10848538 -2.0833381  -2.042188   -1.98046285
 -1.90044876 -1.79757352 -1.6718371  -1.52323952 -1.356353   -1.16889144
 -0.96999929 -0.75510433]",5.176429482167331,3.721626434823983,4.471685000000001,-0.1303599999999996
047,1,2,csp,51b.png,1,1,48,119,NaN,0,1,173,neg_feedback_onset,9,"[-1.36895217 -1.1337448  -0.8940142  -0.6542836  -0.41229139 -0.17708402
  0.05133853  0.26166821  0.4516434   0.60769445  0.72303653  0.7886232
  0.79766964  0.74339101  0.62352571  0.44485857  0.21417441 -0.05721872
 -0.35348955 -0.65654521 -0.95055443 -1.21968595 -1.45263172 -1.64260691
 -1.7850883  -1.88686073 -1.9524474  -1.99089476 -2.01803407 -2.03838856
 -2.06326626 -2.09945201 -2.15146903 -2.21479409 -2.29395042 -2.37989158
 -2.46809435 -2.55629711 -2.63545344 -2.70556333 -2.76436518 -2.80507415
 -2.82769024 -2.83221346 -2.8186438  -2.78471966 -2.73044104 -2.65806954
 -2.56760516 -2.45904791 -2.33918261 -2.20800926 -2.0723127  -1.93209292
 -1.79187313 -1.65617657 -1.52952644 -1.40966114 -1.30110389 -1.19933147
 -1.10208226 -1.00483306 -0.90532225 -0.79450338 -0.66785326 -0.52084865
 -0.34896633 -0.15672953  0.05812336  0.28654591  0.5240149   0.75696067
  0.97633678  1.17535841  1.33819429  1.4625828   1.54173913  1.57114005
  1.55078557  1.48293729  1.37438004  1.22511382  1.04644667  0.84516344
  0.62578732  0.39736477  0.16894222 -0.05495711 -0.26754839 -0.46430841
 -0.63845234 -0.78998017 -0.91663029 -1.01161789 -1.07946617 -1.11791353
 -1.12922158 -1.11565192 -1.07946617 -1.02292593 -0.95507765 -0.87592132
 -0.79450338 -0.71534706 -0.64297555 -0.5819121  -0.5344183  -0.50501738
 -0.49597094 -0.50501738 -0.53215669 -0.57060405 -0.61809785 -0.67011487
 -0.71760866 -0.75605602 -0.78319534 -0.79224178 -0.78319534 -0.75831763
 -0.72439349 -0.68820774 -0.65654521 -0.64071394 -0.64976038 -0.69499257
 -0.77867212 -0.90532225 -1.07494295 -1.28074941 -1.51369518 -1.76473382
 -2.02255729 -2.27133433 -2.5042801  -2.70782494 -2.87744565 -3.0108806
 -3.10360659 -3.16240843 -3.18502453 -3.18050131 -3.15110039 -3.10360659
 -3.04254313 -2.97017163 -2.88875369 -2.80281254 -2.71008655 -2.61962218
 -2.52689619 -2.43869342 -2.35275227 -2.27585755 -2.21027087 -2.15373064
 -2.10849845 -2.07683592 -2.05648143 -2.047435   -2.047435   -2.05648143
 -2.0723127  -2.09945201 -2.13337615 -2.18086995 -2.2419334  -2.31656652
 -2.40703089 -2.51558814 -2.63771505 -2.77341162 -2.92041623 -3.07194406
 -3.22121028 -3.36821489 -3.50164984 -3.62377675 -3.72554918 -3.80696711
 -3.86124574 -3.89064666 -3.88838505 -3.8521993  -3.7798278  -3.67127055
 -3.51974272 -3.32976753 -3.09682176 -2.82769024 -2.52011136 -2.18539317
 -1.82353566 -1.44358528 -1.05232686 -0.65654521 -0.25850196  0.13501808
  0.51723007  0.88813401  1.24094508  1.57114005  1.87419572  2.15011206
  2.39210427  2.60017233  2.77657787  2.92358248  3.04344778  3.14748181
  3.24246941  3.337457    3.44375264  3.56361794  3.70609933  3.87119682
  4.0589104   4.26924008  4.49540102  4.7306084   4.97033899  5.20780798
  5.43623053  5.64656021  5.838797    6.00389449  6.14185267  6.25040992
  6.32504303  6.36801361  6.38158326  6.36801361  6.33408946  6.29111889
  6.2458867   6.20970095  6.19160807  6.20517773  6.25267153  6.34087429
  6.46526281  6.62583708  6.81581227  7.02161872  7.23421001  7.44001646
  7.62999165  7.79508914  7.92400088  8.01446525  8.06195905  8.06874388
  8.03708135  7.96923307  7.86972225  7.74081052  7.58928269  7.41513876
  7.22290196  7.0148339 ]","[-3.78039522e+00 -3.63422591e+00 -3.42593464e+00 -3.14821294e+00
 -2.80654217e+00 -2.40457656e+00 -1.94597034e+00 -1.44168621e+00
 -9.02686866e-01 -3.41762126e-01  2.24643964e-01  7.85568704e-01
  1.32822228e+00  1.84164199e+00  2.31669226e+00  2.74971885e+00
  3.14254888e+00  3.49700947e+00  3.82040907e+00  4.12553751e+00
  4.42335749e+00  4.72665882e+00  5.04274996e+00  5.37528514e+00
  5.72791861e+00  6.09151478e+00  6.45511095e+00  6.80226307e+00
  7.11104574e+00  7.36136069e+00  7.53859098e+00  7.62811969e+00
  7.62446545e+00  7.53128252e+00  7.36318781e+00  7.13662537e+00
  6.88082907e+00  6.62320566e+00  6.38933476e+00  6.19931465e+00
  6.06776227e+00  6.00015896e+00  5.98736914e+00  6.01477589e+00
  6.06045380e+00  6.10065036e+00  6.11161306e+00  6.07324362e+00
  5.97092510e+00  5.80100327e+00  5.56347814e+00  5.26931239e+00
  4.92764162e+00  4.55125564e+00  4.15294426e+00  3.73818883e+00
  3.30516224e+00  2.85569160e+00  2.37515999e+00  1.85991316e+00
  1.29533418e+00  6.75941719e-01  1.73576060e-03 -7.27283690e-01
 -1.50198105e+00 -2.30408516e+00 -3.12263331e+00 -3.93570012e+00
 -4.72866864e+00 -5.48692196e+00 -6.19949736e+00 -6.86091350e+00
 -7.46751615e+00 -8.01930531e+00 -8.51993521e+00 -8.97306008e+00
 -9.38233416e+00 -9.74958456e+00 -1.00802926e+01 -1.03744584e+01
 -1.06357360e+01 -1.08622985e+01 -1.10596270e+01 -1.12258946e+01
 -1.13647555e+01 -1.14780367e+01 -1.15675654e+01 -1.16351687e+01
 -1.16863280e+01 -1.17173889e+01 -1.17338330e+01 -1.17301788e+01
 -1.17064262e+01 -1.16607483e+01 -1.15876637e+01 -1.14853452e+01
 -1.13483114e+01 -1.11747354e+01 -1.09664441e+01 -1.07234376e+01
 -1.04493701e+01 -1.01533773e+01 -9.84094038e+00 -9.52119501e+00
 -9.20510387e+00 -8.90362966e+00 -8.62042661e+00 -8.36280320e+00
 -8.13441365e+00 -7.93343084e+00 -7.76350901e+00 -7.61916682e+00
 -7.49675002e+00 -7.39443150e+00 -7.30855703e+00 -7.23912660e+00
 -7.18796734e+00 -7.15690636e+00 -7.14594366e+00 -7.16238771e+00
 -7.20806562e+00 -7.28297740e+00 -7.38895015e+00 -7.52598388e+00
 -7.68859724e+00 -7.87130888e+00 -8.07046457e+00 -8.27875584e+00
 -8.48704711e+00 -8.68802992e+00 -8.87805003e+00 -9.05345320e+00
 -9.21241233e+00 -9.35675453e+00 -9.49013403e+00 -9.61620506e+00
 -9.74410321e+00 -9.87748271e+00 -1.00273063e+01 -1.01935738e+01]",7.117074238576522,5.484775095672394,4.421630000000001,
047,1,2,csp,55b.png,1,1,224,NaN,224,1,1,254,pos_feedback_onset,10,"[ 4.41862322  3.99122663  3.53095338  3.04484846  2.53760855  2.01862698
  1.49494874  0.97361883  0.46168225 -0.03616433 -0.51052758 -0.9614075
 -1.38645576 -1.78567235 -2.15905729 -2.50895889 -2.8377255  -3.14535711
 -3.43420206 -3.70660868 -3.96022863 -4.19506193 -4.40406356 -4.58723352
 -4.73987516 -4.85259514 -4.92304513 -4.94887679 -4.92539346 -4.85494348
 -4.73752683 -4.57784019 -4.38292856 -4.15514027 -3.90621698 -3.64085536
 -3.36610041 -3.08430046 -2.79780384 -2.51365556 -2.22715894 -1.94066232
 -1.65416571 -1.37001742 -1.08352081 -0.79937253 -0.51992091 -0.24046929
  0.02958899  0.29729895  0.55561557  0.80453886  1.04876548  1.28125044
  1.50434207  1.71804036  1.91999699  2.10316696  2.2698986   2.41079857
  2.52117022  2.59866521  2.63623853  2.6268452   2.57283355  2.46481023
  2.30747193  2.10081863  1.84719867  1.55600539  1.23193545  0.89142718
  0.54152557  0.19632063 -0.13009764 -0.42598759 -0.67960755 -0.88860918
 -1.04359915 -1.1469258  -1.19858912 -1.20563412 -1.17275746 -1.10935247
 -1.02481249 -0.92853084 -0.82520419 -0.72422587 -0.63029256 -0.54575257
 -0.47295425 -0.41424593 -0.37432427 -0.35318927 -0.3555376  -0.3837176
 -0.44007759 -0.52931424 -0.65377588 -0.80876586 -0.99663249 -1.21033079
 -1.44751241 -1.69408737 -1.94301066 -2.18254061 -2.40563224 -2.60054387
 -2.76492718 -2.88704049 -2.97158048 -3.01385047 -3.01854713 -2.98567047
 -2.92226548 -2.82598383 -2.70387052 -2.55592555 -2.38214891 -2.18488895
 -1.96179732 -1.71287403 -1.43811908 -1.13753247 -0.81581086 -0.47999925
 -0.13714264  0.20571396  0.53213224  0.83506719  1.10277714  1.32586877
  1.50199373  1.62645538  1.70395037  1.73682703  1.73917536  1.71804036
  1.6851637   1.65463537  1.63350038  1.62880371  1.64524204  1.67577037
  1.7203887   1.77205202  1.81901868  1.84954701  1.85894034  1.83780534
  1.78144535  1.68751204  1.55835372  1.40101542  1.22019378  1.02763049
  0.82802219  0.63545889  0.45228892  0.28790562  0.14465731  0.022544
 -0.08078265 -0.16532264 -0.23577263 -0.30152595 -0.36493094 -0.43068426
 -0.50348258 -0.58802256 -0.67960755 -0.7829342  -0.88860918 -0.99898082
 -1.1046558  -1.19858912 -1.27843244 -1.33479243 -1.36062409 -1.35357909
 -1.30896077 -1.22442078 -1.09995914 -0.9332275  -0.7265742  -0.48234758
 -0.20054763  0.10943231  0.44994059  0.80923552  1.18731712  1.57714039
  1.97166032  2.36618025  2.75835185  3.13878178  3.50981838  3.86676498
  4.21196992  4.54778153  4.87419981  5.19122475  5.50590136  5.81353297
  6.11646792  6.41000953  6.68946115  6.95482277  7.1920044   7.40335436
  7.57713099  7.71098597  7.80257095  7.85423428  7.86362761  7.83779595
  7.78143596  7.69689597  7.59122099  7.47145601  7.3422977   7.20609439
  7.06754275  6.92899111  6.79043947  6.65423616  6.52038118  6.38887454
  6.26206456  6.13760292  6.01783794  5.90042129  5.78770131  5.67732966
  5.56930635  5.4589347   5.34386639  5.22644974  5.09729143  4.95873979
  4.80609815  4.63936651  4.45384821  4.25423992  4.03584495  3.80570833
  3.56617837  3.31725508  3.06598346  2.8123635   2.56344021  2.32391026
  2.0914253   1.87303034  1.66402871  1.46676874  1.27890211  1.09808047
  0.9219555   0.74817887]","[-1.85462652 -1.8866876  -1.85890133 -1.77126772 -1.62164935 -1.41645845
 -1.16210723 -0.86928271 -0.55080933 -0.21737411  0.11819851  0.4409467
  0.74659565  1.02659573  1.27880955  1.50964932  1.71911503  1.91789372
  2.11880981  2.33255033  2.56980231  2.83911537  3.15117653  3.5038484
  3.90140577  4.33743644  4.80125337  5.28003215  5.76094832  6.22904007
  6.66293333  7.05407849  7.38751371  7.65682677  7.85774286  7.99026198
  8.05652154  8.06079635  8.01163603  7.9154528   7.77438405  7.59270461
  7.37896409  7.12888767  6.84888759  6.53896383  6.2012538   5.84430713
  5.4659864   5.07697865  4.67514647  4.26903947  3.86293248  3.45682548
  3.0571307   2.66598555  2.28552742  1.91789372  1.56308445  1.22537442
  0.90476364  0.59911469  0.30842758  0.0327023  -0.22806114 -0.47386274
 -0.7025651  -0.91416822 -1.10012247 -1.26042787 -1.38867218 -1.4805806
 -1.53401574 -1.55111498 -1.53401574 -1.48699282 -1.41859585 -1.33737445
 -1.25401565 -1.17920647 -1.11508431 -1.07233621 -1.05309956 -1.05523696
 -1.08302323 -1.13004615 -1.1941683  -1.2732523  -1.36088591 -1.45706915
 -1.5596646  -1.66653486 -1.77554253 -1.89096241 -2.01493191 -2.14531363
 -2.28851978 -2.44882518 -2.63264203 -2.84424514 -3.08790934 -3.37004683
 -3.69279502 -4.05829132 -4.46653571 -4.91325341 -5.39203218 -5.89432241
 -6.40943707 -6.92241433 -7.42256715 -7.8927963  -8.32027735 -8.69004845
 -8.98928519 -9.20943793 -9.34836927 -9.39966699 -9.37188072 -9.26714787
 -9.09829285 -8.88241493 -8.63447592 -8.37371248 -8.11294904 -7.87355966
 -7.66409394 -7.49737634 -7.37340683 -7.29646024 -7.26012435 -7.25798695
 -7.279361   -7.31142208 -7.34562056 -7.36699462 -7.36485721 -7.33279613
 -7.26867398 -7.16607852]",6.301340428429891,5.388024545961701,4.258339999999999,0.12351000000000045
047,1,2,csm,16a.png,1,1,260,247,261,1,1,313,neu_feedback_onset,11,"[nan nan nan nan nan nan nan nan nan nan nan nan nan nan nan nan nan nan
 nan nan nan nan nan nan nan nan nan nan nan nan nan nan nan nan nan nan
 nan nan nan nan nan nan nan nan nan nan nan nan nan nan nan nan nan nan
 nan nan nan nan nan nan nan nan nan nan nan nan nan nan nan nan nan nan
 nan nan nan nan nan nan nan nan nan nan nan nan nan nan nan nan nan nan
 nan nan nan nan nan nan nan nan nan nan nan nan nan nan nan nan nan nan
 nan nan nan nan nan nan nan nan nan nan nan nan nan nan nan nan nan nan
 nan nan nan nan nan nan nan nan nan nan nan nan nan nan nan nan nan nan
 nan nan nan nan nan nan nan nan nan nan nan nan nan nan nan nan nan nan
 nan nan nan nan nan nan nan nan nan nan nan nan nan nan nan nan nan nan
 nan nan nan nan nan nan nan nan nan nan nan nan nan nan nan nan nan nan
 nan nan nan nan nan nan nan nan nan nan nan nan nan nan nan nan nan nan
 nan nan nan nan nan nan nan nan nan nan nan nan nan nan nan nan nan nan
 nan nan nan nan nan nan nan nan nan nan nan nan nan nan nan nan nan nan
 nan nan nan nan nan nan nan nan]","[ -3.29451366  -3.09719105  -2.85924321  -2.58453919  -2.27694808
  -1.93646986  -1.57471175  -1.19167376  -0.79315948  -0.38303799
   0.03675617   0.46622301   0.90149346   1.34256752   1.7855761
   2.23245376   2.67352782   3.10686373   3.52472336   3.9213031
   4.28886481   4.61967036   4.90791612   5.1477985    5.33738296
   5.47280043   5.55211638   5.57726534   5.54824731   5.46506229
   5.33157935   5.15166757   4.92532694   4.65836106   4.35076995
   4.01029173   3.64079548   3.24808481   2.83796332   2.41623462
   1.99257138   1.57471175   1.17426294   0.79509402   0.44687766
   0.13348294  -0.14122108  -0.37723439  -0.57649153  -0.74286156
  -0.87827904  -0.99048209  -1.08140525  -1.15685212  -1.22069179
  -1.27098971  -1.31548402  -1.35030566  -1.38319276  -1.41221079
  -1.44703242  -1.4895922   -1.55343187  -1.64628956  -1.77783796
  -1.95774975  -2.19376306  -2.4916815   -2.85150507  -3.26743016
  -3.73365318  -4.24243597  -4.78023679  -5.33738296  -5.90226728
  -6.47102066  -7.03397044  -7.58918208  -8.13665558  -8.6744564
  -9.20645361  -9.73071268 -10.24916815 -10.76375455 -11.27253734
 -11.77745106 -12.27656117 -12.76986768 -13.25350151 -13.72552813
 -14.18594754 -14.6328252  -15.06229204 -15.47434806 -15.86899327
 -16.24816219 -16.6099203  -16.95620212 -17.29087673 -17.61587867
 -17.93120792 -18.24073358 -18.54445562 -18.84624313 -19.14416157
 -19.44014548 -19.73612938 -20.03017875 -20.32229359 -20.61247388
 -20.89878511 -21.1831618  -21.46173489 -21.73256984 -21.99566664
 -22.24909077 -22.49284222 -22.72692099 -22.95132709 -23.16992958
 -23.384663   -23.59939642 -23.82186799 -24.05207769 -24.29582914
 -24.55699141 -24.8355645  -25.1315484  -25.44300859 -25.76220692
 -26.08720885 -26.40834172 -26.7198019  -27.01578581 -27.28855529
 -27.53230674 -27.74704016 -27.92695195 -28.0778457  -28.19972143]",,2.9021898939874644,4.402865,0.290824999999999
047,1,2,csm,60a.png,1,1,12,55,12,1,1,567,neu_feedback_onset,12,"[-2.46961487 -2.29869128 -2.11852858 -1.92219743 -1.70969783 -1.48333957
 -1.24081286 -0.97980792 -0.70494431 -0.41160248 -0.09978242  0.22820609
  0.5769826   0.93961778  1.31842141  1.70646415  2.09681666  2.4848594
  2.86366303  3.22398843  3.56352583  3.87765567  4.16637794  4.42969266
  4.67452915  4.90088742  5.11800657  5.33050616  5.54069598  5.7508858
  5.9633854   6.17126544  6.37452592  6.56623751  6.7371611   6.8849869
  7.00047581  7.08362783  7.12982339  7.14368206  7.12520384  7.08362783
  7.02819315  6.96582914  6.90808469  6.86188912  6.83879134  6.8434109
  6.87574779  6.9381118   7.03050293  7.14599184  7.28226876  7.43240434
  7.59177904  7.75346351  7.91283821  8.06759335  8.20848982  8.33552762
  8.44177742  8.52954899  8.59422278  8.63348901  8.64965746  8.64041835
  8.60808145  8.55264677  8.47873387  8.38403297  8.27316361  8.15074537
  8.01677823  7.87819154  7.73729506  7.59870837  7.46705101  7.34463277
  7.23145364  7.13213317  7.04667138  6.97275848  6.91270424  6.8641989
  6.82724245  6.79952511  6.78335666  6.78104688  6.79259577  6.82493267
  6.87805757  6.95889981  7.0651496   7.19680696  7.3515621   7.52248569
  7.70495817  7.88743065  8.06528357  8.22465827  8.36555474  8.47873387
  8.56188589  8.61963034  8.64734768  8.65427702  8.64041835  8.61039123
  8.571125    8.52492944  8.47411432  8.41636986  8.35400585  8.28240272
  8.19694093  8.09300091  7.96365333  7.80196885  7.60101815  7.35849144
  7.07438872  6.74640021  6.38376503  5.99572229  5.58920132  5.18037058
  4.78077895  4.40197532  4.05550859  3.75061787  3.49192271  3.28173289
  3.12235819  3.01148884  2.94450527  2.91909771  2.92371726  2.95605416
  3.00686928  3.06692351  3.1315973   3.19165154  3.24477644  3.28173289
  3.30483067  3.31176     3.30252089  3.28173289  3.24939599  3.21012976
  3.16624398  3.12235819  3.08078218  3.04151595  3.00917906  2.97915194
  2.95374438  2.93295638  2.91909771  2.9098586   2.90754882  2.9098586
  2.91909771  2.93526616  2.95605416  2.97915194  3.00224972  3.02303773
  3.03920618  3.05075507  3.05999418  3.06692351  3.07385285  3.08771152
  3.11311908  3.15469509  3.21243954  3.29328178  3.39491202  3.51271071
  3.64667785  3.78526454  3.92616101  4.06012815  4.18254639  4.28648641
  4.37194821  4.43893177  4.49205667  4.53825224  4.58213802  4.63526292
  4.70686605  4.80387673  4.93553409  5.11107723  5.33050616  5.59613066
  5.9102605   6.26596634  6.65862864  7.07900827  7.51786613  7.96365333
  8.40482097  8.82982016  9.22710201  9.58742742  9.90386703 10.16718175
 10.37737156 10.53212671 10.63606672 10.6915014  10.70305029 10.67995251
 10.62913739 10.55753427 10.47669203 10.38892046 10.30576844 10.22954576
 10.16718175 10.12329596 10.0978884  10.09557862 10.11405685 10.15563286
 10.21799687 10.30576844 10.41432802 10.5436756  10.6915014  10.85318588
 11.02641924 11.20427217 11.38212509 11.55304868 11.71011359 11.85101007
 11.97804787 12.08891722 12.18823769 12.28755815 12.38918839 12.50698708
 12.64788355 12.81649736 13.01513829 13.24149655 13.4909526  13.75657709
 14.02220159 14.27858697 14.51187457 14.7105155  14.86758041 14.97613999
 15.038504   15.05236267]","[ -1.48235547  -1.31771967  -1.15941601  -1.00744449  -0.85547298
  -0.69716932  -0.52620137  -0.34467984  -0.15049401   0.05424539
   0.25898479   0.45739204   0.63469214   0.78455294   0.89642086
   0.95974232   0.97451733   0.93652445   0.85420655   0.72967434
   0.57770282   0.40462416   0.22521334   0.04791324  -0.11672257
  -0.2581405   -0.37000842  -0.44810489  -0.48820849  -0.48820849
  -0.45232633  -0.380562    -0.27924766  -0.15893687  -0.02807252
   0.10701327   0.23787763   0.35818842   0.46372419   0.55237424
   0.62836      0.69168146   0.74444935   0.79088509   0.8330994
   0.87531371   0.9154173    0.95552089   0.99562449   1.03150665
   1.06316738   1.08638525   1.09693883   1.08427454   1.04417094
   0.96396375   0.83732083   0.65157787   0.40040272   0.07535254
  -0.32357268  -0.79215152  -1.32827324  -1.91927358  -2.5503775
  -3.20681001  -3.8737961   -4.53656076  -5.18455041  -5.80721147
  -6.3982118   -6.95332997  -7.47045526  -7.94958767  -8.38439506
  -8.77698814  -9.12525619  -9.4270885   -9.67826364  -9.88300304
 -10.03708527 -10.14473176 -10.20805322 -10.22916038 -10.21649609
 -10.17006035 -10.09829602 -10.00542454  -9.89566733  -9.77113512
  -9.63393862  -9.48618853  -9.32577416  -9.1548062   -8.97328467
  -8.785431    -8.59335589  -8.40128078  -8.21553782  -8.04456987
  -7.89470907  -7.77228757  -7.68574824  -7.6393125   -7.6393125
  -7.68363752  -7.776509    -7.91581622  -8.09311632  -8.30629859
  -8.54692015  -8.80653815  -9.07670973  -9.34688131  -9.61072075
  -9.86189589 -10.09407459 -10.3009247  -10.48244623 -10.63441775
 -10.75683925 -10.85393216 -10.92358577 -10.97424294 -11.00590367
 -11.02490011 -11.0375644  -11.04600727 -11.05445013 -11.06922514
 -11.09244301 -11.12832517 -11.17476091 -11.23597166 -11.30773598
 -11.3921646  -11.48503608 -11.58212899 -11.67922191 -11.76998267]",13.415059885949756,-0.6213946341391342,4.32942,0.07758999999999983
047,1,2,csp,7b.png,1,1,80,285,79,1,1,349,pos_feedback_onset,13,"[-2.57121717e+00 -2.25212727e+00 -1.90529042e+00 -1.54226785e+00
 -1.17462079e+00 -8.09285979e-01 -4.64761376e-01 -1.43359230e-01
  1.43359230e-01  3.93081761e-01  6.03496115e-01  7.72290048e-01
  9.06400296e-01  1.00582686e+00  1.08213097e+00  1.13531262e+00
  1.17230855e+00  1.20005549e+00  1.21855346e+00  1.23011469e+00
  1.23705142e+00  1.23473918e+00  1.22317795e+00  1.20005549e+00
  1.16305956e+00  1.10987791e+00  1.04051054e+00  9.52645209e-01
  8.48594155e-01  7.28357381e-01  5.98871624e-01  4.57824639e-01
  3.09840917e-01  1.59544950e-01  9.24898261e-03 -1.41046985e-01
 -2.84406215e-01 -4.20828709e-01 -5.43377728e-01 -6.47428783e-01
 -7.30669626e-01 -7.86163522e-01 -8.11598224e-01 -8.00036996e-01
 -7.53792083e-01 -6.72863485e-01 -5.61875694e-01 -4.25453200e-01
 -2.70532741e-01 -1.08675546e-01  5.54938957e-02  2.08102109e-01
  3.44524602e-01  4.57824639e-01  5.43377728e-01  5.96559378e-01
  6.17369589e-01  6.05808361e-01  5.68812431e-01  5.08694044e-01
  4.27765446e-01  3.30651128e-01  2.24287828e-01  1.08675546e-01
 -1.15612283e-02 -1.31798002e-01 -2.52034776e-01 -3.72271550e-01
 -4.90196078e-01 -6.05808361e-01 -7.21420644e-01 -8.37032926e-01
 -9.54957455e-01 -1.07981872e+00 -1.21624121e+00 -1.36653718e+00
 -1.53995560e+00 -1.73880873e+00 -1.97234554e+00 -2.23825379e+00
 -2.54115797e+00 -2.88105808e+00 -3.25332963e+00 -3.65334813e+00
 -4.07880133e+00 -4.51812801e+00 -4.96207917e+00 -5.40603034e+00
 -5.84073252e+00 -6.25693674e+00 -6.65233074e+00 -7.01997780e+00
 -7.35756567e+00 -7.66509434e+00 -7.93793933e+00 -8.18072512e+00
 -8.39345172e+00 -8.57611913e+00 -8.73103959e+00 -8.86514983e+00
 -8.97613762e+00 -9.06631521e+00 -9.14030707e+00 -9.19811321e+00
 -9.23742138e+00 -9.26285609e+00 -9.26979282e+00 -9.25591935e+00
 -9.22354791e+00 -9.16805401e+00 -9.08943766e+00 -8.99001110e+00
 -8.87671106e+00 -8.74953755e+00 -8.62005179e+00 -8.49750277e+00
 -8.38882723e+00 -8.30327414e+00 -8.25009249e+00 -8.23390677e+00
 -8.25702923e+00 -8.32408435e+00 -8.43044765e+00 -8.57149464e+00
 -8.74491306e+00 -8.93914169e+00 -9.14955605e+00 -9.36690714e+00
 -9.58657048e+00 -9.80160932e+00 -1.00027747e+01 -1.01900666e+01
 -1.03519238e+01 -1.04883463e+01 -1.05923973e+01 -1.06571402e+01
 -1.06802627e+01 -1.06571402e+01 -1.05854606e+01 -1.04629116e+01
 -1.02894932e+01 -1.00698298e+01 -9.80623381e+00 -9.50332963e+00
 -9.17267851e+00 -8.81890492e+00 -8.45357011e+00 -8.08361080e+00
 -7.71827599e+00 -7.36450240e+00 -7.02922679e+00 -6.71707362e+00
 -6.43497965e+00 -6.18294488e+00 -5.96328154e+00 -5.77598964e+00
 -5.61875694e+00 -5.49158343e+00 -5.38984462e+00 -5.31354051e+00
 -5.25573437e+00 -5.21180170e+00 -5.17943026e+00 -5.15399556e+00
 -5.13087310e+00 -5.11006289e+00 -5.08462819e+00 -5.05688124e+00
 -5.02450980e+00 -4.98751387e+00 -4.94358121e+00 -4.89502405e+00
 -4.83721791e+00 -4.77016278e+00 -4.69154643e+00 -4.59674436e+00
 -4.48575657e+00 -4.35395856e+00 -4.19672586e+00 -4.01405845e+00
 -3.80364410e+00 -3.56779504e+00 -3.30419904e+00 -3.02210507e+00
 -2.72151313e+00 -2.41167222e+00 -2.09720681e+00 -1.78505364e+00
 -1.47983722e+00 -1.18849427e+00 -9.11024787e-01 -6.49741028e-01
 -4.02330744e-01 -1.71106178e-01  5.08694044e-02  2.63596004e-01
  4.71698113e-01  6.79800222e-01  8.90214576e-01  1.10525342e+00
  1.32722900e+00  1.55614132e+00  1.79199038e+00  2.03477617e+00
  2.28218646e+00  2.53190899e+00  2.78163152e+00  3.02904181e+00
  3.26951535e+00  3.50305216e+00  3.72271550e+00  3.93081761e+00
  4.12735849e+00  4.30771365e+00  4.47881983e+00  4.63605253e+00
  4.78403626e+00  4.92508324e+00  5.05919349e+00  5.18636700e+00
  5.30429153e+00  5.41296707e+00  5.51008139e+00  5.59100999e+00
  5.65344062e+00  5.69737329e+00  5.71587125e+00  5.71124676e+00
  5.68812431e+00  5.64187939e+00  5.58176101e+00  5.51239364e+00
  5.43608953e+00  5.36209767e+00  5.29735479e+00  5.24879763e+00
  5.22798742e+00  5.23954865e+00  5.29041805e+00  5.38290788e+00
  5.51933037e+00  5.69506104e+00  5.90547540e+00  6.14132445e+00
  6.38642249e+00  6.62920829e+00  6.85349612e+00  7.04541250e+00
  7.19570847e+00  7.29513504e+00  7.33906770e+00  7.32981872e+00
  7.26970033e+00  7.16796152e+00  7.03616352e+00  6.88355531e+00
  6.72401036e+00  6.56677765e+00  6.42110618e+00  6.29162042e+00]","[-2.9418763  -2.51794188 -2.11478856 -1.73449444 -1.38329387 -1.05703061
 -0.75570467 -0.47931605 -0.22163042  0.01943033  0.25010053  0.47661451
  0.70312849  0.93379869  1.17070322  1.4179983   1.67152771  1.93129145
  2.18897708  2.44250649  2.68356724  2.905925    3.10542356  3.27582857
  3.41714004  3.52935798  3.61663859  3.67690378  3.71846598  3.74132519
  3.74755952  3.73509086  3.70599732  3.65820079  3.58962317  3.50026444
  3.39428083  3.27375046  3.14698575  3.02022105  2.90384689  2.81033195
  2.74798865  2.72512944  2.74383243  2.81241006  2.9267061   3.08464246
  3.2820629   3.50442066  3.74755952  3.99277649  4.23175913  4.45203878
  4.64322489  4.79700503  4.91130107  4.98195681  5.01728468  5.01936279
  4.99650358  4.95701949  4.90922296  4.85934833  4.80947369  4.75752094
  4.69933386  4.63075623  4.54347562  4.42917957  4.28578999  4.11122876
  3.9117302   3.69560677  3.47532712  3.26335991  3.0721738   2.91423744
  2.79370707  2.71266078  2.66694236  2.65031748  2.65031748  2.65239559
  2.64200504  2.60667717  2.52978711  2.39886618  2.20352385  1.941682
  1.60918441  1.2081092   0.7467688   0.23139754 -0.31930159 -0.89493804
 -1.47680881 -2.05244526 -2.60730061 -3.13306242 -3.61934014 -4.06613377
 -4.46720898 -4.826722   -5.14882904 -5.4335301  -5.68705951 -5.91772971
 -6.1255407  -6.31880492 -6.50167859 -6.67831794 -6.84872295 -7.01497174
 -7.17914243 -7.33915689 -7.4887808  -7.62593606 -7.74231021 -7.83166894
 -7.88985602 -7.91271523 -7.89401224 -7.83582516 -7.7402321  -7.61138929
 -7.45760916 -7.28512603 -7.10433047 -6.9214568  -6.74897367 -6.59103732
 -6.45180396 -6.33958602 -6.25022729 -6.18580589 -6.1463218  -6.1255407
 -6.11930637 -6.1255407 ]",6.242523739055355,3.936771427651132,4.324800000000001,0.1804749999999995
047,1,2,csp,38b.png,1,1,264,273,264,1,1,471,pos_feedback_onset,14,"[ 1.50099122  1.34919286  1.20419145  1.06372133  0.93231379  0.80317191
  0.68082696  0.55848202  0.43840272  0.31152648  0.17332201  0.019258
 -0.15519683 -0.36137072 -0.60152931 -0.87793826 -1.19512886 -1.54856981
 -1.93826112 -2.35740583 -2.79467573 -3.24780515 -3.70320023 -4.15632965
 -4.59813084 -5.0240725  -5.42962334 -5.80798641 -6.15689606 -6.47182101
 -6.75049561 -6.98838856 -7.18096856 -7.32143869 -7.40979892 -7.44151798
 -7.41433022 -7.32823563 -7.18549986 -6.98612291 -6.73690173 -6.44463325
 -6.11158312 -5.74681393 -5.35712263 -4.9470405  -4.52336449 -4.08836024
 -3.6488247  -3.20702351 -2.76069102 -2.31662419 -1.874823   -1.43302181
 -0.99348626 -0.56074766 -0.134806    0.27980742  0.67856131  1.05919003
  1.41716228  1.74794676  2.04927782  2.31662419  2.55451713  2.76295667
  2.94420844  3.10053809  3.23874257  3.36108751  3.47436987  3.58085528
  3.6828094   3.78476352  3.88898329  3.99546871  4.10648541  4.22203342
  4.34437836  4.46898895  4.59813084  4.72953837  4.85868026  4.98102521
  5.08751062  5.17587086  5.23704333  5.26649674  5.25743415  5.20758992
  5.11922968  4.99008779  4.82922685  4.64344378  4.4372699   4.21976777
  4.00226565  3.78929482  3.58312093  3.39054092  3.20702351  3.03256868
  2.8603795   2.68819031  2.50920419  2.31662419  2.105919    1.8702917
  1.61427358  1.33333333  1.02973662  0.70574908  0.37043331  0.02378929
 -0.32738601 -0.67629567 -1.01840838 -1.34919286 -1.66185217 -1.95638629
 -2.22826395 -2.47521948 -2.69498726 -2.88303597 -3.04389691 -3.17077315
 -3.26819598 -3.33389975 -3.37241575 -3.38147833 -3.36335316 -3.32257151
 -3.26139904 -3.18436703 -3.0914755  -2.98952138 -2.87850467 -2.76295667
 -2.64514302 -2.52732937 -2.41857831 -2.31662419 -2.22826395 -2.15802889
 -2.11271594 -2.09232512 -2.10365336 -2.1489663  -2.2305296  -2.34381195
 -2.48881337 -2.66100255 -2.85811385 -3.07108468 -3.2931181  -3.52194846
 -3.75304446 -3.97960918 -4.19937695 -4.41234778 -4.61625602 -4.80883602
 -4.98782215 -5.15321439 -5.3027471  -5.43642028 -5.54743699 -5.63806287
 -5.70829793 -5.75134523 -5.7694704  -5.76267346 -5.7309544  -5.66978193
 -5.58142169 -5.46587369 -5.31860663 -5.1396205  -4.92891532 -4.68195978
 -4.40328519 -4.09515718 -3.7598414  -3.40413481 -3.03709997 -2.66779949
 -2.30529595 -1.96091759 -1.6391957  -1.34692722 -1.08411215 -0.84848485
 -0.63777967 -0.44293401 -0.2548853  -0.06910224  0.12121212  0.32285472
  0.5335599   0.75332767  0.97536109  1.19966015  1.41263098  1.61427358
  1.79779099  1.96091759  2.105919    2.23506089  2.35514019  2.47068819
  2.58623619  2.70858114  2.84225432  2.98725573  3.14131974  3.29991504
  3.46077598  3.61483999  3.75531011  3.87538941  3.97054659  4.03398471
  4.06570377  4.06117247  4.02718777  3.961484    3.87312376  3.76890399
  3.65335599  3.54007363  3.43585387  3.34975927  3.2931181   3.27046163
  3.28632116  3.34522798  3.44491645  3.58312093  3.75077882  3.94109317
  4.14500142  4.3511753   4.5482866   4.73180402  4.89039932  5.0240725
  5.13055792  5.21212121  5.27329368  5.31634098  5.34579439  5.36618522
  5.3797791   5.38657604  5.38431039  5.37071651  5.34352875  5.2982158
  5.22571509  5.12602662]","[-1.8803777  -1.80477811 -1.69245873 -1.54125955 -1.35334058 -1.1308618
 -0.88246316 -0.61894461 -0.34894609 -0.08110756  0.17377105  0.41136975
  0.62952855  0.83040745  1.02048641  1.20840538  1.4049643   1.62312311
  1.87152174  2.16096016  2.49575832  2.88455619  3.3208738   3.80687114
  4.33390825  4.8911852   5.46790204  6.04677886  6.61917573  7.16565273
  7.67540994  8.13764741  8.54156519  8.88500331  9.16580177  9.38180059
  9.53947972  9.64315916  9.70147884  9.72307872  9.71443876  9.68419893
  9.63667919  9.5805195   9.51787984  9.45092021  9.38180059  9.31268097
  9.24356135  9.17444172  9.10316211  9.03188251  8.96276288  8.89796324
  8.83964356  8.79428381  8.76620396  8.759724    8.77916389  8.82884362
  8.90876318  9.01892258  9.15716182  9.31916093  9.50059994  9.69931885
  9.9088377  10.12483652 10.34299532 10.56115412 10.77283296 10.97371186
 11.15515087 11.31283001 11.43594933 11.5137089  11.53962876 11.50290896
 11.39706954 11.21779053 10.96291192 10.6389137  10.25011583  9.80731826
  9.32780088  8.82452364  8.31908641  7.8287691   7.36869162  6.9518139
  6.58893589  6.28437756  6.03597892  5.84157999  5.68822083  5.56294152
  5.44846214  5.32966279  5.19142355  5.02078449  4.81126563  4.55854702
  4.26262864  3.92999046  3.57143243  3.19559449  2.81543657  2.43743864
  2.07456063  1.72680254  1.39848434  1.08960603  0.79368765  0.50208925
  0.21265083 -0.08110756 -0.38566589 -0.70102416 -1.02934236 -1.36198054
 -1.6967787  -2.0250969  -2.33829519 -2.6277336  -2.88477219 -3.10509098
 -3.28437    -3.42044926 -3.51548874 -3.57380842 -3.59972827 -3.60188826
 -3.58676834 -3.56084849 -3.53276864 -3.50900877 -3.48956888 -3.47444896
 -3.46580901 -3.45716905]",4.684141519032479,9.269481203242995,4.41375,-0.258659999999999
047,2,2,csm,22a.png,1,1,56,259,57,1,0,206,neu_feedback_onset,1,"[ 2.15774247  1.81977636  1.43689071  1.0326148   0.62833889  0.24759226
 -0.09251287 -0.37486431 -0.59090593 -0.73849872 -0.81764269 -0.83475489
 -0.80053048 -0.72780359 -0.6294084  -0.52031807 -0.4155058  -0.32138866
 -0.2508008  -0.20802028 -0.19518612 -0.21229833 -0.2593569  -0.33208379
 -0.42833996 -0.53743028 -0.66149379 -0.78983535 -0.92031593 -1.04651847
 -1.16630392 -1.27325522 -1.36523334 -1.43368217 -1.47432367 -1.47860172
 -1.44223828 -1.35881626 -1.22619665 -1.04224042 -0.80480853 -0.52031807
 -0.19518612  0.15989219  0.53422174  0.91282934  1.28288084  1.6336811
  1.95025695  2.2261913   2.45506709  2.63474527  2.7609478   2.84009176
  2.87217715  2.86362105  2.82084053  2.74597462  2.64757942  2.52565494
  2.38875728  2.23474741  2.07004241  1.89250325  1.70640799  1.51389565
  1.31496623  1.11175876  0.91282934  0.71603895  0.52780466  0.35454356
  0.20053369  0.0700531  -0.03048112 -0.0946519  -0.11818119 -0.09892995
 -0.03048112  0.08930434  0.25614836  0.46791194  0.720317    1.00052941
  1.295715    1.59090058  1.86897396  2.1106839   2.30105721  2.42512072
  2.47004027  2.4315378   2.30747429  2.1021278   1.82405442  1.48822734
  1.10961973  0.70534382  0.2925118  -0.11176411 -0.49464976 -0.843311
 -1.15133074 -1.41443094 -1.63475062 -1.81015075 -1.94704841 -2.05186069
 -2.12886562 -2.18234127 -2.22084374 -2.24651205 -2.26148523 -2.26790231
 -2.26790231 -2.26148523 -2.24865108 -2.22939984 -2.19945348 -2.16309004
 -2.11389244 -2.05399971 -1.9791338  -1.88715568 -1.78020438 -1.6497238
 -1.49999198 -1.32673087 -1.12994048 -0.91175983 -0.67432794 -0.4240619
 -0.16310073  0.09786044  0.35454356  0.60053155  0.82512928  1.02833675
  1.20801493  1.35988578  1.49036636  1.59731766  1.68715675  1.76416169
  1.83047149  1.8882252   1.93956182  1.98234234  2.0122887   2.02726189
  2.01870578  1.98662039  1.92458864  1.82833247  1.70212994  1.54384201
  1.35774675  1.1481222   0.9256635   0.69250967  0.45935583  0.23261908
  0.01443843 -0.18876904 -0.37486431 -0.54170833 -0.6871621  -0.81122561
 -0.91389886 -0.99090379 -1.04437944 -1.06790873 -1.05935262 -1.01871113
 -0.94384522 -0.83261587 -0.68502307 -0.50534489 -0.29785937 -0.07112261
  0.1684483   0.41229726  0.64759012  0.8679098   1.06256116  1.22726616
  1.35774675  1.45186389  1.51389565  1.54170299  1.54384201  1.52459078
  1.48822734  1.43902974  1.38341506  1.32566136  1.26576863  1.20801493
  1.15240025  1.0989246   1.04972701  1.00266843  0.96202694  0.9256635
  0.89571714  0.87432688  0.86363175  0.86363175  0.87860493  0.91069032
  0.96416597  1.04330993  1.15240025  1.28929792  1.45828097  1.65507136
  1.87753007  2.12137903  2.37592312  2.63046722  2.87859423  3.10747001
  3.30853846  3.47752151  3.61014112  3.70639729  3.77056807  3.80479249
  3.8219047   3.82618275  3.82618275  3.82618275  3.83259983  3.84329496
  3.85612911  3.86896327  3.87110229  3.86040716  3.82618275  3.76629002
  3.67858995  3.56308255  3.42190683  3.25934086  3.08394073  2.90212352
  2.72244533  2.5470452   2.38447923  2.23260838  2.09571072  1.96950818
  1.84972273  1.73421533  1.6165689   1.49250539  1.35988578  1.21443201
  1.05400506  0.88502201]","[-1.15346499e+00 -1.02269128e+00 -8.87830893e-01 -7.50927165e-01
 -6.18110116e-01 -4.91423084e-01 -3.72909409e-01 -2.62569090e-01
 -1.60402129e-01 -6.43651856e-02  2.96284188e-02  1.23622023e-01
  2.23745645e-01  3.34085963e-01  4.56686317e-01  5.95633384e-01
  7.46840487e-01  9.14394303e-01  1.09012148e+00  1.26993533e+00
  1.44974918e+00  1.61934634e+00  1.77055344e+00  1.89519713e+00
  1.98919074e+00  2.04231756e+00  2.05253425e+00  2.01575415e+00
  1.93197724e+00  1.80529021e+00  1.63773639e+00  1.43544581e+00
  1.20454847e+00  9.55261088e-01  6.97800345e-01  4.38296264e-01
  1.84922200e-01 -5.21051502e-02 -2.68699108e-01 -4.62816334e-01
 -6.28326812e-01 -7.69317218e-01 -8.83744215e-01 -9.75694480e-01
 -1.04721135e+00 -1.10238151e+00 -1.14529164e+00 -1.17594172e+00
 -1.19841846e+00 -1.21272183e+00 -1.22293853e+00 -1.22498187e+00
 -1.21885185e+00 -1.20454847e+00 -1.18002840e+00 -1.14120496e+00
 -1.09012148e+00 -1.02064794e+00 -9.32784356e-01 -8.22444038e-01
 -6.89626988e-01 -5.34333207e-01 -3.54519356e-01 -1.56315451e-01
  5.82351679e-02  2.80959143e-01  5.09813137e-01  7.32537112e-01
  9.45044392e-01  1.13916162e+00  1.31284545e+00  1.46405255e+00
  1.59278293e+00  1.70516658e+00  1.80324687e+00  1.89519713e+00
  1.98714740e+00  2.08114100e+00  2.18535130e+00  2.29773496e+00
  2.42442199e+00  2.55928238e+00  2.70231613e+00  2.85147989e+00
  3.00064365e+00  3.14367740e+00  3.27649445e+00  3.39296478e+00
  3.48082837e+00  3.53804187e+00  3.55643192e+00  3.52782517e+00
  3.44609160e+00  3.31123121e+00  3.12120067e+00  2.87599996e+00
  2.58380245e+00  2.25278150e+00  1.89111045e+00  1.51309270e+00
  1.13303160e+00  7.63187201e-01  4.17862872e-01  1.07275309e-01
 -1.58358790e-01 -3.72909409e-01 -5.30246529e-01 -6.32413490e-01
 -6.75323614e-01 -6.67150257e-01 -6.11980098e-01 -5.15943154e-01
 -3.89256122e-01 -2.42135698e-01 -8.47985778e-02  7.04952033e-02
  2.13528949e-01  3.34085963e-01  4.19906211e-01  4.64859674e-01
  4.64859674e-01  4.17862872e-01  3.19782589e-01  1.78792182e-01
  1.02166961e-03 -2.09442271e-01 -4.36252925e-01 -6.73280275e-01
 -9.04177607e-01 -1.12281490e+00 -1.31693213e+00 -1.48039927e+00
 -1.60912964e+00 -1.70312324e+00 -1.76442342e+00 -1.79711685e+00
 -1.80733354e+00 -1.80324687e+00 -1.79507351e+00 -1.78894349e+00]",3.0812134694466935,1.903983489819057,4.675025,0.23684499999999975
047,2,2,csm,18a.png,1,1,212,212,NaN,0,0,213,neu_feedback_onset,2,"[  0.94830031   0.93149764   0.89579198   0.84328366   0.76977201
   0.68155803   0.57864171   0.46732407   0.3476051    0.22368545
   0.09346481  -0.04305682  -0.18797979  -0.34550476  -0.51773206
  -0.70466169  -0.90839398  -1.1268286   -1.35576489  -1.59100217
  -1.82623946  -2.05727608  -2.27781103  -2.48574399  -2.67477395
  -2.84910158  -3.00452622  -3.14524852  -3.27336883  -3.38888714
  -3.49180345  -3.5779171   -3.64932842  -3.69763608  -3.7186394
  -3.70813774  -3.65772975  -3.56741544  -3.43509446  -3.2586665
  -3.04863321  -2.80499459  -2.53825231  -2.2568077   -1.97116243
  -1.69391849  -1.42927654  -1.18983859  -0.9798053   -0.80547767
  -0.66895603  -0.57234072  -0.51563173  -0.4946284   -0.51143106
  -0.55973872  -0.63745104  -0.74246768  -0.87268832  -1.02391229
  -1.19403926  -1.38096888  -1.58050051  -1.7905338   -2.00896842
  -2.22950338  -2.45003833  -2.66637262  -2.87640591  -3.0801382
  -3.2712685   -3.45609779  -3.63042542  -3.80055239  -3.96647869
  -4.13240499  -4.30043162  -4.47055858  -4.64278588  -4.81291285
  -4.97463848  -5.12166178  -5.24558142  -5.33379541  -5.3779024
  -5.36950107  -5.30019008  -5.16576877  -4.96833748  -4.70999653
  -4.39914726  -4.04629134  -3.66613108  -3.27336883  -2.88690757
  -2.52144965  -2.19169738  -1.91235311  -1.68971782  -1.53429319
  -1.44817954  -1.42717621  -1.46918287  -1.56369785  -1.69811915
  -1.85564412  -2.02157042  -2.17699505  -2.30301503  -2.38702834
  -2.41223234  -2.37442635  -2.27361037  -2.10768407  -1.88924945
  -1.6309085   -1.34736356  -1.05541728  -0.76977201  -0.50933073
  -0.28249478  -0.09766548   0.03675583   0.12076914   0.15437447
   0.13547147   0.07036115  -0.04095649  -0.19218046  -0.37911009
  -0.59544438  -0.832782    -1.08062128  -1.32636023  -1.56159751
  -1.7653298   -1.92915577  -2.04047342  -2.08458041  -2.06147674
  -1.96486143  -1.7968348   -1.56159751  -1.27175157  -0.93359798
  -0.56183905  -0.1690768    0.23208679   0.62694937   1.00500929
   1.35576489   1.67081482   1.9438581    2.17699505   2.36602501
   2.51724898   2.63696796   2.73358327   2.81339592   2.88270691
   2.9457169    3.00452622   3.05073354   3.07803787   3.07593754
   3.02762988   2.9205129    2.74618527   2.49204499   2.16439306
   1.76112914   1.2990559    0.794976     0.26779245  -0.26359178
  -0.77397267  -1.25074824  -1.67921616  -2.05517575  -2.37652668
  -2.64956996  -2.88480724  -3.08853953  -3.27756949  -3.45819812
  -3.63882675  -3.82575638  -4.02108734  -4.2164183   -4.4138496
  -4.60077922  -4.77090619  -4.91792949  -5.03554813  -5.11956145
  -5.16576877  -5.17417011  -5.14686578  -5.08595612  -4.99774214
  -4.88432417  -4.75200319  -4.60918056  -4.46215725  -4.31723428
  -4.18281298  -4.06519433  -3.96647869  -3.89296704  -3.84886004
  -3.83625805  -3.85306071  -3.9034687   -3.98328135  -4.09039833
  -4.22481963  -4.38654527  -4.57137456  -4.77720719  -5.00404314
  -5.25188242  -5.5186247   -5.79796898  -6.09411592  -6.39866419
  -6.71161379  -7.03086439  -7.35431566  -7.67776693  -8.00121819
  -8.32676979  -8.65442173  -8.98417399  -9.31602659  -9.65418019
 -10.00073512 -10.35149071 -10.70644697 -11.06140323 -11.41425916
 -11.75871376 -12.08636569 -12.39091396 -12.66605757 -12.90549552
 -13.10922781 -13.27095345 -13.39487309 -13.48098674 -13.53559539
 -13.56079939 -13.56079939 -13.54399672 -13.51249173 -13.46838474
 -13.41797675 -13.35916743 -13.29615744 -13.22894679 -13.15753547]","[-1.17392889 -1.10286167 -1.02367249 -0.93026986 -0.81859281 -0.68458034
 -0.53026296 -0.35970164 -0.17695737  0.00984789  0.19259216  0.36315348
  0.51340988  0.63930037  0.73879448  0.81189218  0.86062399  0.88702039
  0.89514235  0.88905088  0.87280694  0.85250202  0.82813612  0.80173973
  0.77534333  0.74894694  0.72052005  0.69209316  0.66163578  0.62711742
  0.58853808  0.54183676  0.49107447  0.43015971  0.36112298  0.28396429
  0.19868363  0.1073115   0.01390887 -0.08152425 -0.17492688 -0.26426852
 -0.34954918 -0.43076886 -0.50589706 -0.57899476 -0.65006198 -0.7211292
 -0.79422691 -0.86732461 -0.94245281 -1.01758101 -1.09270921 -1.16783741
 -1.23890463 -1.30997185 -1.37697808 -1.43992333 -1.50083809 -1.55972235
 -1.61454563 -1.66733842 -1.72013121 -1.77089351 -1.82571679 -1.88257056
 -1.9475463  -2.02470499 -2.11810762 -2.23587615 -2.38207157 -2.56278535
 -2.78207847 -3.03995094 -3.33843325 -3.67143392 -4.03895296 -4.43083789
 -4.84099726 -5.25927859 -5.67959041 -6.09381076 -6.49178717 -6.87351964
 -7.22682523 -7.55170394 -7.84206428 -8.09384527 -8.30095545 -8.46542529
 -8.57913284 -8.64207809 -8.65426104 -8.61771218 -8.53243152 -8.40451053
 -8.24004069 -8.04308298 -7.82175936 -7.58216132 -7.32631934 -7.06641637
 -6.80448292 -6.54457996 -6.29685995 -6.06538387 -5.8562432  -5.67959041
 -5.53948647 -5.44811433 -5.4075045  -5.42374843 -5.50090712 -5.63898057
 -5.8318773  -6.07350584 -6.35574421 -6.66640947 -6.98925768 -7.31413639
 -7.62683214 -7.9131315  -8.16897347 -8.38420562 -8.55476694 -8.68268792
 -8.76593809 -8.80857842 -8.8146699  -8.7882735  -8.73548071 -8.65629153
 -8.55882792 -8.44715086 -8.32329086 -8.19130889 -8.05932691 -7.92937543
 -7.80957641 -7.70805181]",0.9407916154710577,0.278514024046503,4.76115,
047,2,2,csp,65b.png,1,1,328,NaN,328,1,1,172,pos_feedback_onset,3,"[-2.74571277e+00 -2.47585410e+00 -2.18218437e+00 -1.86271932e+00
 -1.52142747e+00 -1.16624584e+00 -8.03127186e-01 -4.41992787e-01
 -9.27639183e-02  2.36622401e-01  5.36244897e-01  8.02135058e-01
  1.02834012e+00  1.21486009e+00  1.36169495e+00  1.47678174e+00
  1.56408895e+00  1.63155362e+00  1.69108127e+00  1.74862466e+00
  1.81807359e+00  1.90339655e+00  2.00856206e+00  2.13952289e+00
  2.29627903e+00  2.47684623e+00  2.67924023e+00  2.89949253e+00
  3.13561886e+00  3.38166648e+00  3.63763536e+00  3.89757276e+00
  4.16346292e+00  4.42935308e+00  4.69921175e+00  4.96907043e+00
  5.23892910e+00  5.50878777e+00  5.77666219e+00  6.04652086e+00
  6.31241102e+00  6.57631693e+00  6.83427007e+00  7.08428619e+00
  7.31842827e+00  7.53074355e+00  7.71131075e+00  7.84822434e+00
  7.92759454e+00  7.93156305e+00  7.84425583e+00  7.64979885e+00
  7.33827082e+00  6.90173473e+00  6.33820633e+00  5.65363838e+00
  4.86192066e+00  3.97892721e+00  3.02648484e+00  2.03038886e+00
  1.01048183e+00 -9.42521095e-03 -1.00948970e+00 -1.97780611e+00
 -2.90048465e+00 -3.76958832e+00 -4.57916433e+00 -5.32524419e+00
 -6.00584363e+00 -6.61699415e+00 -7.16068000e+00 -7.63690119e+00
 -8.04565771e+00 -8.38893381e+00 -8.66672950e+00 -8.87904478e+00
 -9.01992688e+00 -9.08937580e+00 -9.07945453e+00 -8.98817880e+00
 -8.80761160e+00 -8.54370570e+00 -8.19646108e+00 -7.77976754e+00
 -7.30949912e+00 -6.80549837e+00 -6.29554485e+00 -5.80344963e+00
 -5.35699227e+00 -4.97799957e+00 -4.68234559e+00 -4.48392009e+00
 -4.38272309e+00 -4.37677033e+00 -4.45614052e+00 -4.59900688e+00
 -4.78751110e+00 -4.99387361e+00 -5.19428336e+00 -5.36492929e+00
 -5.48795309e+00 -5.54946500e+00 -5.54152798e+00 -5.46811054e+00
 -5.33318121e+00 -5.15261401e+00 -4.94228298e+00 -4.72401494e+00
 -4.51566817e+00 -4.34105374e+00 -4.21406142e+00 -4.14659675e+00
 -4.14064399e+00 -4.19620313e+00 -4.30335289e+00 -4.44820351e+00
 -4.61488092e+00 -4.78354259e+00 -4.93434596e+00 -5.04943275e+00
 -5.12086593e+00 -5.14070848e+00 -5.11292891e+00 -5.04347999e+00
 -4.94625149e+00 -4.83910173e+00 -4.73790473e+00 -4.66250304e+00
 -4.62877070e+00 -4.64861325e+00 -4.72401494e+00 -4.86092853e+00
 -5.05340126e+00 -5.29151185e+00 -5.56930754e+00 -5.87091430e+00
 -6.18641083e+00 -6.50786013e+00 -6.82732517e+00 -7.14083745e+00
 -7.44442846e+00 -7.74206670e+00 -8.03176792e+00 -8.31551638e+00
 -8.59926483e+00 -8.87904478e+00 -9.15882473e+00 -9.43265191e+00
 -9.69854207e+00 -9.95054245e+00 -1.01866688e+01 -1.04009683e+01
 -1.05874883e+01 -1.07442444e+01 -1.08712367e+01 -1.09644967e+01
 -1.10279929e+01 -1.10637095e+01 -1.10756150e+01 -1.10656937e+01
 -1.10398984e+01 -1.10002133e+01 -1.09525912e+01 -1.08970321e+01
 -1.08355201e+01 -1.07720240e+01 -1.07045593e+01 -1.06351104e+01
 -1.05636772e+01 -1.04922440e+01 -1.04227951e+01 -1.03513619e+01
 -1.02838973e+01 -1.02164326e+01 -1.01549207e+01 -1.00953931e+01
 -1.00398339e+01 -9.98824329e+00 -9.93863692e+00 -9.88903054e+00
 -9.83743991e+00 -9.77592801e+00 -9.70251058e+00 -9.60925060e+00
 -9.49416381e+00 -9.35129745e+00 -9.18263579e+00 -8.99016306e+00
 -8.77387927e+00 -8.54568995e+00 -8.31154787e+00 -8.08534280e+00
 -7.87898029e+00 -7.70039735e+00 -7.56348376e+00 -7.47022377e+00
 -7.43053868e+00 -7.44045995e+00 -7.50197185e+00 -7.60515311e+00
 -7.74206670e+00 -7.90477561e+00 -8.08137429e+00 -8.25995724e+00
 -8.42861891e+00 -8.58140654e+00 -8.70839886e+00 -8.80364309e+00
 -8.86515500e+00 -8.89095031e+00 -8.88499754e+00 -8.84729670e+00
 -8.78380054e+00 -8.70046184e+00 -8.60323334e+00 -8.49806783e+00
 -8.38893381e+00 -8.27583128e+00 -8.16272875e+00 -8.04962622e+00
 -7.93850794e+00 -7.82540541e+00 -7.71230288e+00 -7.59920035e+00
 -7.49006632e+00 -7.38093230e+00 -7.27973530e+00 -7.18845957e+00
 -7.10710512e+00 -7.04162471e+00 -6.99598684e+00 -6.97019153e+00
 -6.96820728e+00 -6.99201833e+00 -7.04360896e+00 -7.11901065e+00
 -7.21822340e+00 -7.33727869e+00 -7.47419228e+00 -7.62102715e+00
 -7.77183052e+00 -7.92064965e+00 -8.05756324e+00 -8.17860279e+00
 -8.27979979e+00 -8.35718573e+00 -8.41076061e+00 -8.44250869e+00
 -8.46036699e+00 -8.47227252e+00 -8.48814656e+00 -8.51592613e+00
 -8.57148526e+00 -8.65879248e+00 -8.78578480e+00 -8.95643072e+00
 -9.16874600e+00 -9.41876212e+00 -9.69854207e+00 -1.00001488e+01]","[-3.69436422 -3.67821267 -3.60553069 -3.46420463 -3.25019659 -2.95341186
 -2.56981255 -2.10343655 -1.5522649  -0.92639234 -0.23995146  0.48888723
  1.23791536  1.98088666  2.6935738   3.34973052  3.93118632  4.4238086
  4.81750263  5.11428736  5.31618173  5.43529941  5.48173512  5.46760251
  5.4070342   5.30406807  5.16879884  5.00122651  4.80740791  4.5853241
  4.34305085  4.07856921  3.80197392  3.51326497  3.22253707  2.93180917
  2.6471381   2.36852386  2.10202328  1.84965532  1.60738207  1.37924142
  1.16321444  0.95930112  0.75942569  0.56560709  0.36976955  0.16989412
 -0.04209498 -0.26821668 -0.51048993 -0.77093367 -1.04954791 -1.34229475
 -1.64513631 -1.95201576 -2.25889521 -2.55769889 -2.8443889  -3.11290842
 -3.35921956 -3.57928443 -3.76502725 -3.91644803 -4.02950888 -4.10017191
 -4.12843713 -4.11834241 -4.06988776 -3.98711106 -3.8780881  -3.74483781
 -3.59745492 -3.43997731 -3.27644286 -3.10887053 -2.9412982  -2.76968798
 -2.59807776 -2.42041071 -2.24072472 -2.05296295 -1.86318224 -1.67340153
 -1.48563976 -1.30595376 -1.14241932 -0.99907431 -0.88197558 -0.79717994
 -0.74064951 -0.71642219 -0.71844113 -0.7446874  -0.78506628 -0.83352093
 -0.88399452 -0.93244917 -0.97484699 -1.00513115 -1.02733953 -1.03743425
 -1.03945319 -1.03339636 -1.0212827  -1.00513115 -0.9889796  -0.97484699
 -0.96475227 -0.96273333 -0.97282805 -0.99705537 -1.03743425 -1.09194573
 -1.1646277  -1.2474044  -1.34027581 -1.43516616 -1.53005652 -1.61889005
 -1.6996478  -1.77434871 -1.8429928  -1.91163689 -1.9903757  -2.087285
 -2.21245951 -2.37599395 -2.58394516 -2.84236996 -3.15328729 -3.51669717
 -3.92452381 -4.37474826 -4.85121899 -5.34586021 -5.84655826 -6.34119947
 -6.81565126 -7.26587571]",3.897027090040551,2.3298106129816127,5.039674999999999,0.5351200000000009
047,2,2,csp,1b.png,1,1,256,80,258,1,1,368,pos_feedback_onset,4,"[-0.5289372  -0.46957275 -0.40308458 -0.3365964  -0.26298449 -0.186998
 -0.10863693 -0.02790129  0.0480852   0.11932253  0.18106155  0.22855311
  0.2617972   0.27604467  0.27367009  0.25467347  0.22380395  0.18818529
  0.15256662  0.11694796  0.09320218  0.07658013  0.06708182  0.06470724
  0.06233267  0.05520893  0.03146316 -0.01365382 -0.09201489 -0.2083692
 -0.37221507 -0.58117791 -0.84238146 -1.148702   -1.50013951 -1.88957026
 -2.30274679 -2.73491995 -3.1670931  -3.59214252 -3.99582074 -4.36625488
 -4.69394661 -4.97414678 -5.19735709 -5.36120296 -5.46093523 -5.49655389
 -5.46805896 -5.38019958 -5.23535034 -5.03826038 -4.79367887 -4.5134787
 -4.20240901 -3.87471728 -3.53752723 -3.20033719 -2.87027088 -2.55445204
 -2.25525524 -1.9703059  -1.69722946 -1.43127675 -1.16532404 -0.89462217
 -0.614422   -0.31997435 -0.01127924  0.30691418  0.62985675  0.95279933
  1.26149444  1.55356751  1.82189479  2.06172715  2.27543915  2.46303079
  2.62687666  2.7717259   2.90232768  3.02343115  3.13266172  3.23001941
  3.31075506  3.3701195   3.40336359  3.40811274  3.37961781  3.31550421
  3.2205211   3.09466848  2.94507008  2.77410048  2.59125799  2.39654261
  2.19232893  1.98336608  1.76727951  1.5440692   1.31373515  1.07627737
  0.83169586  0.5823652   0.33778369  0.09795133 -0.12525898 -0.32947267
 -0.50281684 -0.63816778 -0.73315089 -0.78301702 -0.78301702 -0.73790004
 -0.64291693 -0.50281684 -0.32234893 -0.1015132   0.15019204  0.43039222
  0.7319636   1.04778244  1.36835044  1.68891844  1.99761355  2.28493746
  2.54139186  2.75747844  2.92844804  3.05192608  3.12553799  3.15165835
  3.13741088  3.0922939   3.02343115  2.94507008  2.86433444  2.7930971
  2.73848181  2.69811399  2.67674279  2.66961906  2.66724448  2.66724448
  2.66012075  2.64112413  2.60313088  2.54376644  2.46303079  2.36329853
  2.24694422  2.11634244  1.97624235  1.82901853  1.67942013  1.52507257
  1.36597586  1.19975542  1.02403666  0.83407044  0.62273302  0.38527524
  0.12169711 -0.17512511 -0.50281684 -0.86375266 -1.255558   -1.66873453
 -2.10090768 -2.54257915 -2.98187604 -3.41167461 -3.82010199 -4.20003443
 -4.53959905 -4.83642127 -5.08337736 -5.28046732 -5.42294198 -5.51555052
 -5.55591834 -5.54642003 -5.49180474 -5.39444705 -5.25909612 -5.0905011
 -4.89103656 -4.67020083 -4.43036848 -4.17866323 -3.92458341 -3.67287817
 -3.42829666 -3.19796261 -2.98425061 -2.78953524 -2.61381648 -2.4618435
 -2.32886715 -2.21251284 -2.11515515 -2.0344195  -1.96555675 -1.90619231
 -1.85632617 -1.81120919 -1.77321595 -1.73759728 -1.70197862 -1.66873453
 -1.63311586 -1.59512262 -1.5547548  -1.50726324 -1.45264795 -1.38853435
 -1.31254786 -1.21519017 -1.10121044 -0.96111035 -0.79488991 -0.60254911
 -0.38408795 -0.1442556   0.11457338  0.38527524  0.65835169  0.9243044
  1.17363506  1.40159453  1.60105906  1.76490493  1.89313213  1.98811524
  2.05222884  2.0878475   2.10446955  2.10446955  2.09972039  2.09259666
  2.09022208  2.09022208  2.09734582  2.1092187   2.12346617  2.13296448
  2.13771364  2.12821533  2.10209497  2.05222884  1.97861693  1.88125924
  1.76253035  1.62243026  1.46570813  1.30186226  1.13564182  0.97179595
  0.8174484   0.67734831]","[-1.35174697 -1.24609015 -1.14263451 -1.04358124 -0.94672915 -0.84987706
 -0.75082379 -0.64956934 -0.53510778 -0.40743912 -0.25775862 -0.07946274
  0.12744854  0.36737758  0.64032437  0.94408773  1.26986293  1.61544879
  1.96983938  2.32643115  2.67641938  3.01540168  3.3389757   3.64494025
  3.93769769  4.21504685  4.48139009  4.7389286   4.98766236  5.22539021
  5.44991096  5.65462106  5.83511813  5.98039626  6.0838519   6.14328386
  6.15208859  6.11466847  6.0288223   5.90115364  5.74046722  5.55556778
  5.35746124  5.15495233  4.95904698  4.78075109  4.62886941  4.51220666
  4.43516523  4.40214747  4.41535458  4.47478654  4.57604099  4.71911794
  4.89301146  5.09331919  5.31123638  5.5401595   5.76688143  5.98699981
  6.19391109  6.37660934  6.53509457  6.66496442  6.7618165   6.82565084
  6.85866859  6.85866859  6.83225439  6.78162716  6.70898809  6.62094074
  6.52188747  6.41843183  6.31497619  6.21592292  6.12567439  6.04863295
  5.98479862  5.93197021  5.89455009  5.86373352  5.83731931  5.8109051
  5.78228972  5.74486959  5.69644355  5.6348104   5.5665737   5.48733109
  5.40588729  5.3222423   5.24520087  5.17696417  5.11973339  5.07570972
  5.04269196  5.02068012  5.00527184  4.99426592  4.98326     4.97005289
  4.95024224  4.92162685  4.88420673  4.83578068  4.77414754  4.70370966
  4.61786349  4.51881022  4.40654984  4.28108237  4.14240779  3.99492847
  3.84524797  3.69996984  3.56349645  3.44463252  3.34998162  3.28394611
  3.24872717  3.24652598  3.270739    3.31476268  3.37419464  3.4336266
  3.48425383  3.51947277  3.52607632  3.49966212  3.43802897  3.34337807
  3.21570941  3.06162654  2.88993421  2.70943714  2.52673888  2.35284536
  2.19436013  2.05788673]",1.9873435004838513,5.831761321238547,4.211274999999999,0.29304499999999933
047,2,2,csp,63b.png,1,1,320,55,320,1,0,191,neg_feedback_onset,5,"[ 0.70079993  0.6961894   0.67083151  0.62242099  0.5532631   0.46796837
  0.3665368   0.25588418  0.13831577  0.02074737 -0.09451578 -0.20286314
 -0.30198944 -0.38728417 -0.45874732 -0.51868416 -0.56939994 -0.61319994
 -0.65238941 -0.69388414 -0.73768413 -0.78839992 -0.84833675 -0.9197999
 -1.00278937 -1.09730515 -1.2056525  -1.32783144 -1.46614721 -1.61829457
 -1.78888402 -1.97791558 -2.18308398 -2.40438922 -2.64413656 -2.89771548
 -3.16512598 -3.44175753 -3.72530487 -4.01115747 -4.29470481 -4.57133636
 -4.83183107 -5.06927315 -5.28135734 -5.45655732 -5.59256783 -5.68477835
 -5.73088361 -5.73088361 -5.68477835 -5.59948362 -5.47730469 -5.32976786
 -5.16378893 -4.98858895 -4.81569423 -4.6497153  -4.50217847 -4.37769428
 -4.27626271 -4.20018903 -4.14486272 -4.10106273 -4.06187326 -4.02037852
 -3.96274695 -3.88667328 -3.78524171 -3.65614698 -3.50169437 -3.32649439
 -3.13515756 -2.93690495 -2.73865234 -2.54962078 -2.37672607 -2.22688398
 -2.1070103  -2.01941031 -1.96638927 -1.94794716 -1.96177874 -2.007884
 -2.07704189 -2.16464188 -2.27068397 -2.38594712 -2.50812605 -2.63491551
