sub,run,cat_cond,trial_type,picture,old,response_old,target_pos,response_pos,dot_resp_loc,cat_corr,TN_corr,TN_rt,feedback_type,trial,SP_timeseries,FB_timeseries,SP_peak_response,FB_peak_response,preStim_bl,anticipation
024,1,1,csp,9a.png,1,1,300,316,300,1,1,443,pos_feedback_onset,1,"[nan nan nan nan nan nan nan nan nan nan nan nan nan nan nan nan nan nan
 nan nan nan nan nan nan nan nan nan nan nan nan nan nan nan nan nan nan
 nan nan nan nan nan nan nan nan nan nan nan nan nan nan nan nan nan nan
 nan nan nan nan nan nan nan nan nan nan nan nan nan nan nan nan nan nan
 nan nan nan nan nan nan nan nan nan nan nan nan nan nan nan nan nan nan
 nan nan nan nan nan nan nan nan nan nan nan nan nan nan nan nan nan nan
 nan nan nan nan nan nan nan nan nan nan nan nan nan nan nan nan nan nan
 nan nan nan nan nan nan nan nan nan nan nan nan nan nan nan nan nan nan
 nan nan nan nan nan nan nan nan nan nan nan nan nan nan nan nan nan nan
 nan nan nan nan nan nan nan nan nan nan nan nan nan nan nan nan nan nan
 nan nan nan nan nan nan nan nan nan nan nan nan nan nan nan nan nan nan
 nan nan nan nan nan nan nan nan nan nan nan nan nan nan nan nan nan nan
 nan nan nan nan nan nan nan nan nan nan nan nan nan nan nan nan nan nan
 nan nan nan nan nan nan nan nan nan nan nan nan nan nan nan nan nan nan
 nan nan nan nan nan nan nan nan]","[ 0.11705105  0.06943186  0.01413215 -0.04270366 -0.09646727 -0.14255036
 -0.17788073 -0.20399448 -0.21781941 -0.21781941 -0.20706669 -0.18095294
 -0.14101426 -0.08571455 -0.01505381  0.07096796  0.17388686  0.29063069
  0.42273555  0.57020144  0.72842006  0.89892749  1.07865155  1.26605612
  1.458069    1.64854577  1.83441424  2.01260219  2.17542911  2.3198228
  2.44117493  2.53794943  2.61014627  2.65622936  2.68080701  2.68541532
  2.67466259  2.65315715  2.62089899  2.58403252  2.53948553  2.49033023
  2.43349442  2.36897809  2.29370904  2.20768727  2.11091278  2.00492167
  1.89125005  1.77604232  1.65929849  1.54869907  1.44731627  1.3582223
  1.28295325  1.22458134  1.18003435  1.15084839  1.13395126  1.12627074
  1.12627074  1.13241515  1.14009567  1.14931229  1.1554567   1.1569928
  1.15238449  1.14009567  1.11551802  1.07865155  1.02642404  0.95883551
  0.87127764  0.76528653  0.63778998  0.48725188  0.31367224  0.11397884
 -0.1102922  -0.35914089 -0.63103112 -0.9228907  -1.2285752  -1.54654853
 -1.86759406 -2.18710349 -2.50046851 -2.80154471 -3.08572377 -3.35146959
 -3.59417387 -3.8138366  -4.01045779 -4.18250133 -4.33303943 -4.45899987
 -4.56499098 -4.65101275 -4.71552908 -4.76161217 -4.78926203 -4.80001475
 -4.79233423 -4.76929269 -4.73242621 -4.68173481 -4.6218268  -4.55423826
 -4.48204142 -4.41138068 -4.34379215 -4.28388413 -4.23319273 -4.19786236
 -4.17635692 -4.1702125  -4.17942912 -4.19939846 -4.23012052 -4.266987
 -4.30538957 -4.34379215 -4.37605031 -4.40062796 -4.41598899 -4.41752509
 -4.40677237 -4.38373083 -4.34686435 -4.29924516 -4.24394545 -4.18403743
 -4.12259331 -4.06114919 -4.00738558 -3.9628386  -3.92904433 -3.90753889
 -3.90139447 -3.90907499]",,1.8126783799643207,6.424124999999999,0.007494999999999585
024,1,1,csm,47b.png,1,1,16,30,16,1,1,280,neu_feedback_onset,2,"[ 3.84253627e-01  3.50547168e-01  3.10420432e-01  2.62268348e-01
  2.10906126e-01  1.57938834e-01  1.04971542e-01  5.36093197e-02
  2.24709723e-03 -4.42999169e-02 -8.92418615e-02 -1.30973667e-01
 -1.67890265e-01 -1.99991654e-01 -2.24067695e-01 -2.36908251e-01
 -2.35303182e-01 -2.16042348e-01 -1.77520681e-01 -1.14922973e-01
 -2.82492223e-02  8.25005698e-02  2.14116265e-01  3.61782654e-01
  5.14264252e-01  6.61930642e-01  7.91941267e-01  8.91455573e-01
  9.47633004e-01  9.52448212e-01  8.96270782e-01  7.77495642e-01
  6.02543072e-01  3.73018140e-01  1.04971542e-01 -1.90361237e-01
 -4.96929502e-01 -7.98682559e-01 -1.08117478e+00 -1.33477576e+00
 -1.54985506e+00 -1.71999242e+00 -1.84518784e+00 -1.92383624e+00
 -1.95914777e+00 -1.95593763e+00 -1.91581090e+00 -1.84518784e+00
 -1.74406847e+00 -1.61887305e+00 -1.47120666e+00 -1.30588451e+00
 -1.12772180e+00 -9.43138810e-01 -7.61765962e-01 -5.90023530e-01
 -4.42357141e-01 -3.28397210e-01 -2.60984293e-01 -2.49748807e-01
 -3.02716099e-01 -4.26306446e-01 -6.22124919e-01 -8.88566448e-01
 -1.22242089e+00 -1.61405784e+00 -2.05384687e+00 -2.53055250e+00
 -3.03454430e+00 -3.54816653e+00 -4.06178875e+00 -4.56257042e+00
 -5.03446084e+00 -5.46622452e+00 -5.84662598e+00 -6.16442973e+00
 -6.41161043e+00 -6.58495793e+00 -6.68126210e+00 -6.70373307e+00
 -6.66039620e+00 -6.55927682e+00 -6.40840029e+00 -6.22060717e+00
 -6.00552786e+00 -5.76958265e+00 -5.51919182e+00 -5.25917056e+00
 -4.99593917e+00 -4.73270778e+00 -4.47268653e+00 -4.22229570e+00
 -3.98635049e+00 -3.76966611e+00 -3.57866285e+00 -3.41976097e+00
 -3.29617063e+00 -3.20949687e+00 -3.16294986e+00 -3.15492451e+00
 -3.18381576e+00 -3.24641347e+00 -3.33790243e+00 -3.45346743e+00
 -3.58829327e+00 -3.73595965e+00 -3.89165139e+00 -4.05376341e+00
 -4.21587542e+00 -4.37798744e+00 -4.53688931e+00 -4.69097598e+00
 -4.83864237e+00 -4.97667834e+00 -5.10668897e+00 -5.22385904e+00
 -5.32658348e+00 -5.41004709e+00 -5.47424987e+00 -5.51598168e+00
 -5.53363744e+00 -5.52721716e+00 -5.49993098e+00 -5.45498904e+00
 -5.39720654e+00 -5.32979362e+00 -5.26077563e+00 -5.19336272e+00
 -5.13237008e+00 -5.07940279e+00 -5.03446084e+00 -4.99433410e+00
 -4.95741751e+00 -4.91889584e+00 -4.87234883e+00 -4.81296126e+00
 -4.73270778e+00 -4.62837827e+00 -4.49676257e+00 -4.33304549e+00
 -4.13883209e+00 -3.91251729e+00 -3.65570618e+00 -3.37160889e+00
 -3.06022542e+00 -2.72316083e+00 -2.36041514e+00 -1.97519847e+00
 -1.56590576e+00 -1.13414207e+00 -6.84722628e-01 -2.19252487e-01
  2.52637932e-01  7.22923281e-01  1.18197314e+00  1.61694697e+00
  2.01500419e+00  2.36490933e+00  2.65382183e+00  2.87371635e+00
  3.01977767e+00  3.08719058e+00  3.07756017e+00  2.99730669e+00
  2.85124537e+00  2.65382183e+00  2.41627155e+00  2.15464523e+00
  1.88178342e+00  1.61373683e+00  1.36174092e+00  1.13703120e+00
  9.49238074e-01  7.99966615e-01  6.90821892e-01  6.21803905e-01
  5.86492378e-01  5.80072100e-01  5.92912655e-01  6.18593767e-01
  6.52300225e-01  6.86006684e-01  7.18108073e-01  7.43789184e-01
  7.66260156e-01  7.82310851e-01  7.93546337e-01  8.01571684e-01
  8.06386892e-01  8.09597031e-01  8.09597031e-01  8.09597031e-01
  8.09597031e-01  8.09597031e-01  8.07991962e-01  8.06386892e-01
  8.06386892e-01  8.04781823e-01  8.03176753e-01  8.03176753e-01
  8.01571684e-01  7.99966615e-01  7.99966615e-01  7.98361545e-01
  7.96756476e-01  7.96756476e-01  7.95151406e-01  7.93546337e-01
  7.93546337e-01  7.91941267e-01  7.90336198e-01  7.90336198e-01
  7.88731128e-01  7.87126059e-01  7.87126059e-01  7.85520989e-01
  7.83915920e-01  7.83915920e-01  7.82310851e-01  7.80705781e-01
  7.79100712e-01  7.79100712e-01  7.77495642e-01  7.75890573e-01
  7.75890573e-01  7.74285503e-01  7.72680434e-01  7.72680434e-01
  7.71075364e-01  7.69470295e-01  7.69470295e-01  7.67865226e-01
  7.66260156e-01  7.66260156e-01  7.64655087e-01  7.63050017e-01
  7.63050017e-01  7.61444948e-01  7.59839878e-01  7.59839878e-01
  7.58234809e-01  7.56629739e-01  7.56629739e-01  7.55024670e-01
  7.53419600e-01  7.51814531e-01  7.51814531e-01  7.50209462e-01
  7.48604392e-01  7.48604392e-01  7.46999323e-01  7.45394253e-01
  7.45394253e-01  7.43789184e-01  7.42184114e-01  7.42184114e-01
  7.40579045e-01  7.38973975e-01  7.38973975e-01  7.37368906e-01]","[-0.77860809 -0.70408558 -0.62956308 -0.55504057 -0.4789972  -0.40295383
 -0.32386872 -0.24174188 -0.1565733  -0.06684212  0.02593079  0.12174544
  0.21908096  0.31641647  0.41223112  0.50348317  0.58713088  0.66013251
  0.72248808  0.76963497  0.80157319  0.81221926  0.80309405  0.76963497
  0.71032114  0.62363169  0.50500403  0.35443816  0.1749758  -0.03186217
 -0.26303402 -0.51093542 -0.76948288 -1.03107208 -1.29114041 -1.54208354
 -1.78085973 -2.00746898 -2.21886955 -2.41810319 -2.60516988 -2.78311138
 -2.95192766 -3.11161874 -3.26370549 -3.40970876 -3.54506596 -3.67129796
 -3.78840475 -3.89486548 -3.99068012 -4.07889044 -4.16101728 -4.24010238
 -4.32222923 -4.41043954 -4.51081679 -4.62488185 -4.75719732 -4.90928406
 -5.07810035 -5.26212531 -5.45831721 -5.66059258 -5.86134708 -6.05449724
 -6.2339596  -6.39060895 -6.51684095 -6.60809299 -6.65523988 -6.65523988
 -6.60353039 -6.5001114  -6.34346206 -6.14118669 -5.90088963 -5.63321696
 -5.35185648 -5.07201688 -4.81042768 -4.57925582 -4.39066826 -4.25379019
 -4.17014248 -4.13972513 -4.15645468 -4.20816417 -4.28572841 -4.37241785
 -4.45758643 -4.52754633 -4.57469322 -4.5899019  -4.57165149 -4.51842113
 -4.43173168 -4.31614576 -4.17774682 -4.02109747 -3.85076032 -3.67738143
 -3.50248168 -3.33214452 -3.17245344 -3.02340843 -2.89109296 -2.77550704
 -2.67665065 -2.59756555 -2.53673085 -2.49262569 -2.46372921 -2.45156227
 -2.45156227 -2.46220835 -2.48197962 -2.50783437 -2.54129345 -2.57779427
 -2.61733682 -2.65840025 -2.69946367 -2.74204795 -2.78311138 -2.8241748
 -2.86371735 -2.90173904 -2.93976072 -2.97778241 -3.01580409 -3.05686751
 -3.10249354 -3.15268216 -3.21047513 -3.28043503 -3.361041   -3.45989739
 -3.57700418 -3.71844485]",0.5840847733481221,-0.25341453751562926,6.230260000000001,
024,1,1,csp,34a.png,1,1,220,306,NaN,0,1,309,neg_feedback_onset,3,"[ 2.60845321e-01  5.60870276e-03 -2.17113697e-01 -3.97567611e-01
 -5.30875909e-01 -6.13787167e-01 -6.46301386e-01 -6.28418565e-01
 -5.61764417e-01 -4.54467494e-01 -3.11404931e-01 -1.45582415e-01
  3.48714997e-02  2.18576836e-01  3.90902196e-01  5.43719025e-01
  6.67273057e-01  7.56687159e-01  8.07084198e-01  8.21715597e-01
  8.00581354e-01  7.51810026e-01  6.81904455e-01  6.02244619e-01
  5.17707650e-01  4.41299236e-01  3.76270798e-01  3.32376602e-01
  3.14493782e-01  3.24248048e-01  3.69767954e-01  4.54304923e-01
  5.82736088e-01  7.59938581e-01  9.90789535e-01  1.28016608e+00
  1.62481680e+00  2.02636741e+00  2.47506363e+00  2.96115120e+00
  3.46999872e+00  3.98534909e+00  4.48931949e+00  4.96402708e+00
  5.39484048e+00  5.77200542e+00  6.08576763e+00  6.33450141e+00
  6.51983245e+00  6.64501220e+00  6.71816919e+00  6.74743199e+00
  6.74255485e+00  6.70841492e+00  6.65639217e+00  6.58973802e+00
  6.51170390e+00  6.42879264e+00  6.34262996e+00  6.25321586e+00
  6.16217605e+00  6.06951052e+00  5.97847071e+00  5.88580519e+00
  5.79313966e+00  5.70047414e+00  5.60780861e+00  5.51676880e+00
  5.42410328e+00  5.33143775e+00  5.23877223e+00  5.14610671e+00
  5.05344118e+00  4.96077566e+00  4.86973585e+00  4.77707032e+00
  4.68440480e+00  4.59173927e+00  4.49907375e+00  4.40640823e+00
  4.31374270e+00  4.22270289e+00  4.13003737e+00  4.03737184e+00
  3.94470632e+00  3.85204080e+00  3.75937527e+00  3.66670975e+00
  3.57566994e+00  3.48300441e+00  3.39033889e+00  3.29767336e+00
  3.20500784e+00  3.11234232e+00  3.01967679e+00  2.92863698e+00
  2.83597146e+00  2.74330593e+00  2.65064041e+00  2.55960060e+00
  2.46856078e+00  2.37752097e+00  2.28810687e+00  2.20194419e+00
  2.11903293e+00  2.04262452e+00  1.97271894e+00  1.91256764e+00
  1.86379631e+00  1.83128209e+00  1.81502498e+00  1.81502498e+00
  1.83290780e+00  1.86542202e+00  1.90769051e+00  1.95483612e+00
  1.99873032e+00  2.03124454e+00  2.04587594e+00  2.03612167e+00
  1.99385319e+00  1.91907048e+00  1.81014785e+00  1.66708529e+00
  1.49801135e+00  1.30617746e+00  1.10133788e+00  8.93246878e-01
  6.88407299e-01  4.96573408e-01  3.24248048e-01  1.74682641e-01
  5.60057420e-02 -3.17826489e-02 -8.38053991e-02 -9.35596648e-02
 -5.94197350e-02  2.18658122e-02  1.56799821e-01  3.47008001e-01
  5.90864642e-01  8.88369745e-01  1.23139475e+00  1.61181112e+00
  2.01823885e+00  2.43767227e+00  2.85385428e+00  3.25052775e+00
  3.61468700e+00  3.93007492e+00  4.18368583e+00  4.36413974e+00
  4.46330811e+00  4.47468809e+00  4.39340254e+00  4.21945147e+00
  3.95771201e+00  3.61956413e+00  3.21801353e+00  2.76931731e+00
  2.29460971e+00  1.81502498e+00  1.35007165e+00  9.16006831e-01
  5.25836205e-01  1.89314039e-01 -9.35596648e-02 -3.22784908e-01
 -5.03238823e-01 -6.43049964e-01 -7.50346886e-01 -8.31632433e-01
 -8.93409449e-01 -9.38929356e-01 -9.68192153e-01 -9.82823551e-01
 -9.76320707e-01 -9.50309332e-01 -8.98286582e-01 -8.20252457e-01
 -7.11329823e-01 -5.74770104e-01 -4.10573299e-01 -2.18739407e-01
 -5.77127385e-03  2.23453969e-01  4.67310611e-01  7.16044385e-01
  9.64778160e-01  1.20863480e+00  1.43948576e+00  1.65245389e+00
  1.84428778e+00  2.01336172e+00  2.15479857e+00  2.27347547e+00
  2.36614099e+00  2.43604656e+00  2.48644360e+00  2.51895782e+00
  2.53846635e+00  2.54496920e+00  2.54009206e+00  2.52871209e+00
  2.50920356e+00  2.48319218e+00  2.45230367e+00  2.41653803e+00
  2.37589526e+00  2.33200106e+00  2.28648116e+00  2.23770983e+00
  2.18731279e+00  2.13691575e+00  2.08489300e+00  2.03124454e+00
  1.97922179e+00  1.92557333e+00  1.87192487e+00  1.81827641e+00
  1.76462794e+00  1.71097948e+00  1.65895673e+00  1.60530827e+00
  1.55165981e+00  1.49801135e+00  1.44436289e+00  1.39071443e+00
  1.33706597e+00  1.28504322e+00  1.23139475e+00  1.17774629e+00
  1.12409783e+00  1.07044937e+00  1.01680091e+00  9.63152449e-01
  9.09503987e-01  8.57481237e-01  8.03832776e-01  7.50184315e-01
  6.96535854e-01  6.42887393e-01  5.89238932e-01  5.35590470e-01
  4.81942009e-01  4.29919259e-01  3.76270798e-01  3.22622337e-01
  2.68973876e-01  2.15325414e-01  1.61676953e-01  1.08028492e-01
  5.60057420e-02  2.35728087e-03 -5.12911803e-02 -1.04939641e-01
 -1.58588103e-01 -2.12236564e-01 -2.65885025e-01 -3.19533486e-01]","[-1.01209044e+00 -9.27196477e-01 -8.31497823e-01 -7.24994482e-01
 -6.10773508e-01 -4.88834900e-01 -3.63809239e-01 -2.38783577e-01
 -1.15301443e-01  5.09363805e-03  1.20858139e-01  2.31992060e-01
  3.38495401e-01  4.37281109e-01  5.28349183e-01  6.11699624e-01
  6.84245378e-01  7.44442918e-01  7.90748718e-01  8.20075725e-01
  8.30880412e-01  8.18532199e-01  7.83031085e-01  7.19746491e-01
  6.27134890e-01  5.06739809e-01  3.58561248e-01  1.85686260e-01
 -7.25457540e-03 -2.12543624e-01 -4.25550306e-01 -6.33926408e-01
 -8.31497823e-01 -1.01209044e+00 -1.16953017e+00 -1.30227346e+00
 -1.40877680e+00 -1.49212724e+00 -1.55386831e+00 -1.59708706e+00
 -1.62795759e+00 -1.64802344e+00 -1.65882812e+00 -1.66500223e+00
 -1.66345870e+00 -1.65574107e+00 -1.64184933e+00 -1.62178348e+00
 -1.59400000e+00 -1.56004242e+00 -1.52299778e+00 -1.48440961e+00
 -1.45045202e+00 -1.42421207e+00 -1.41186385e+00 -1.41649443e+00
 -1.44427792e+00 -1.49367077e+00 -1.56776005e+00 -1.66500223e+00
 -1.78231026e+00 -1.91659708e+00 -2.06631917e+00 -2.22838947e+00
 -2.39663388e+00 -2.57259592e+00 -2.75164501e+00 -2.93378116e+00
 -3.11591731e+00 -3.29805346e+00 -3.47710255e+00 -3.65615165e+00
 -3.82902664e+00 -3.99727104e+00 -4.15934135e+00 -4.31060696e+00
 -4.45261142e+00 -4.57918060e+00 -4.69031452e+00 -4.78292613e+00
 -4.85238483e+00 -4.89869063e+00 -4.91721295e+00 -4.90640826e+00
 -4.86782009e+00 -4.79990492e+00 -4.70574979e+00 -4.59307234e+00
 -4.46495963e+00 -4.33375986e+00 -4.20564715e+00 -4.09605675e+00
 -4.01116278e+00 -3.96176993e+00 -3.95405230e+00 -3.98955341e+00
 -4.06827327e+00 -4.18712483e+00 -4.33530339e+00 -4.50509132e+00
 -4.68568394e+00 -4.86473304e+00 -5.03297745e+00 -5.18269954e+00
 -5.30772520e+00 -5.40805443e+00 -5.48214371e+00 -5.53308009e+00
 -5.56703768e+00 -5.58710353e+00 -5.59945174e+00 -5.60871290e+00
 -5.61797406e+00 -5.63186580e+00 -5.65193165e+00 -5.67662807e+00
 -5.70904213e+00 -5.74608677e+00 -5.78930552e+00 -5.83561132e+00
 -5.88346065e+00 -5.93130998e+00 -5.97915930e+00 -6.02237805e+00
 -6.06250974e+00 -6.09338028e+00 -6.11498965e+00 -6.12270728e+00
 -6.11653318e+00 -6.09338028e+00 -6.05324858e+00 -5.99922515e+00
 -5.93285350e+00 -5.86185128e+00 -5.79393610e+00 -5.73991267e+00
 -5.70749861e+00 -5.70904213e+00 -5.75226088e+00 -5.84332895e+00]",4.880587466906604,-0.17040534554161652,6.151155000000001,
024,1,1,csm,6b.png,1,1,28,15,28,1,1,301,neu_feedback_onset,4,"[-1.21510718 -1.18283342 -1.12508037 -1.04354665 -0.9416295  -0.81763031
 -0.67834354 -0.52207058 -0.35390729 -0.17215505  0.01809029  0.21343149
  0.41047131  0.60241527  0.78586613  0.95572804  1.10520652  1.23090434
  1.32942424  1.40076625  1.44323172  1.46021792  1.45512206  1.43473863
  1.40246487  1.36849248  1.33791734  1.32262977  1.33112286  1.37188972
  1.45342344  1.58421711  1.76596936  2.00207741  2.28744542  2.61527891
  2.97708478  3.35757546  3.743162    4.11855682  4.47356821  4.79630584
  5.07487938  5.30759019  5.4859452   5.60654716  5.67109468  5.6812864
  5.63882092  5.55219135  5.43158939  5.28890538  5.1394269   5.00014014
  4.88463404  4.80649756  4.77931965  4.80479894  4.88463404  5.01712633
  5.18868686  5.38402805  5.58786235  5.77980631  5.94117512  6.05668122
  6.11443427  6.10763979  6.03969503  5.91569584  5.74753254  5.55049273
  5.3432612   5.14792     4.98145533  4.86255199  4.8014017   4.80819618
  4.88633266  5.03411252  5.24474129  5.50802725  5.80698421  6.12292737
  6.44056914  6.7395261   7.00281206  7.21683807  7.37311103  7.46483646
  7.49201437  7.45464475  7.36291931  7.22023531  7.04018168  6.8278543
  6.59514348  6.34884371  6.09574946  5.84265521  5.59635544  5.36194601
  5.14792     4.9610719   4.80649756  4.69269008  4.62134808  4.60096465
  4.62814255  4.70627903  4.82688099  4.98315395  5.16490619  5.36194601
  5.55558858  5.73564221  5.88681931  5.99722955  6.05837984  6.06517432
  6.01591436  5.9122986   5.76282012  5.57257478  5.35685015  5.12413933
  4.88633266  4.65532046  4.43789721  4.23915878  4.06250239  3.90962667
  3.77713438  3.6633269   3.56990285  3.49006775  3.42552022  3.37626027
  3.33889065  3.31510998  3.29982241  3.29472655  3.29302793  3.28963069
  3.28283622  3.26924727  3.24206936  3.20469974  3.1571384   3.10448121
  3.05182402  3.00935854  2.98557787  2.99237235  3.03993369  3.13505636
  3.28283622  3.48497189  3.74146338  4.0455162   4.3920345   4.76912794
  5.17000205  5.58276649  5.99892817  6.41169261  6.81766258  7.21344083
  7.59732875  7.97102496  8.33452944  8.68784222  9.03605914  9.37578296
  9.71041092 10.03654579 10.35079033 10.65144591 10.93341668 11.18990816
 11.41412589 11.60437123 11.75215109 11.85576685 11.91521852 11.92710886
 11.89823233 11.83028757 11.72837042 11.59927537 11.44809827 11.2816336
 11.10157997 10.91473187 10.72448653 10.53254257 10.34059861 10.15375051
  9.97369688  9.80213635  9.64246616  9.49638491  9.36898848  9.26197548
  9.17874314  9.11929147  9.08701771  9.07852461  9.09211357  9.12268871
  9.16685281  9.21951     9.27046857  9.31972853  9.35879677  9.38937191
  9.4063581   9.41654982  9.41824843  9.41994705  9.42334429  9.43353601
  9.45391944  9.48959044  9.54054901  9.60849377  9.69172611  9.7885474
  9.89725902 10.01616236 10.14355879 10.27435247 10.41024199 10.54952876
 10.68881553 10.83149953 10.97248492 11.11516892 11.25785293 11.40053693
 11.54322094 11.68590494 11.82858895 11.97127295 12.11395696 12.25664096
 12.39932497 12.54200897 12.68469298 12.82737698 12.97006099 13.11274499
 13.255429   13.398113   13.54079701 13.68348101 13.82616502 13.96884902
 14.11153303 14.25421703]","[-1.00718142 -0.92123357 -0.82414434 -0.71750535 -0.59813334 -0.47239483
 -0.34347306 -0.21295966 -0.08562952  0.03215086  0.14197311  0.23906234
  0.32660181  0.40459152  0.47621473  0.54624631  0.61946114  0.7006341
  0.79454008  0.90117908  1.02691759  1.16698075  1.32136854  1.4853061
  1.65242691  1.81636447  1.96756901  2.09649078  2.19676327  2.26042834
  2.28430274  2.26520322  2.20631303  2.10763217  1.97711877  1.81636447
  1.63491902  1.43914893  1.23064582  1.0157762   0.79931496  0.58285372
  0.37116736  0.16584751 -0.02833096 -0.20977641 -0.37212234 -0.51377712
 -0.6315575  -0.72387185 -0.79072018 -0.83687736 -0.86552664 -0.88462616
 -0.90054243 -0.92441683 -0.96261587 -1.01991443 -1.09949577 -1.20295151
 -1.3270984  -1.4639783  -1.60722471 -1.74728787 -1.87461801 -1.98284863
 -2.06720485 -2.11972853 -2.14360293 -2.13723643 -2.10540389 -2.05128858
 -1.98444026 -1.90804217 -1.82846083 -1.75206275 -1.68203117 -1.62154935
 -1.5706173  -1.53082663 -1.50376897 -1.48626108 -1.47989457 -1.48307782
 -1.49421921 -1.51172711 -1.53400988 -1.56106754 -1.58971682 -1.61995773
 -1.65179026 -1.6836228  -1.71545533 -1.74728787 -1.78230366 -1.81891107
 -1.86029337 -1.90326729 -1.94783284 -1.99239839 -2.03378069 -2.0703881
 -2.09903738 -2.11654528 -2.11972853 -2.10858714 -2.08312112 -2.04333045
 -1.99239839 -1.93032495 -1.86347662 -1.79026179 -1.71386371 -1.63269074
 -1.54833452 -1.45442854 -1.3509728  -1.23319242 -1.09790415 -0.9403331
 -0.7620709  -0.5599343  -0.33710655 -0.09677091  0.159481    0.42846593
  0.70381736  0.98394367  1.26406998  1.54260467  1.81636447  2.08375777
  2.34000968  2.58352857  2.80635632  3.00212641  3.16606397  3.28543598
  3.35705918  3.37297545]",12.82737698388094,1.438087840820353,5.887135000000001,
024,1,1,csp,4a.png,1,1,308,298,307,1,1,282,pos_feedback_onset,5,"[ 6.31946395e-02 -8.05815244e-02 -1.70859581e-01 -2.09311346e-01
 -1.99280450e-01 -1.49125975e-01 -6.88788134e-02  2.64146906e-02
  1.21708195e-01  2.05298988e-01  2.65484358e-01  2.92233412e-01
  2.85546149e-01  2.42078936e-01  1.68519039e-01  7.15537188e-02
 -4.04579438e-02 -1.60828686e-01 -2.77855796e-01 -3.84852011e-01
 -4.76801883e-01 -5.48689965e-01 -5.98844441e-01 -6.28937126e-01
 -6.40639837e-01 -6.37296206e-01 -6.25593495e-01 -6.07203520e-01
 -5.90485362e-01 -5.75439019e-01 -5.68751755e-01 -5.67079940e-01
 -5.72095387e-01 -5.80454466e-01 -5.90485362e-01 -5.93828993e-01
 -5.88813546e-01 -5.70423571e-01 -5.35315438e-01 -4.76801883e-01
 -3.96554722e-01 -2.89558507e-01 -1.59156870e-01 -2.00617903e-03
  1.76878118e-01  3.77496021e-01  5.94832083e-01  8.25542671e-01
  1.05959689e+00  1.29365111e+00  1.51934625e+00  1.72665142e+00
  1.91055116e+00  2.06101459e+00  2.17804170e+00  2.25494523e+00
  2.29172518e+00  2.29339700e+00  2.26330431e+00  2.20479076e+00
  2.12287178e+00  2.02590646e+00  1.91389480e+00  1.79185224e+00
  1.66145060e+00  1.52268988e+00  1.37557009e+00  1.22009121e+00
  1.05792508e+00  8.87399858e-01  7.08515561e-01  5.26287633e-01
  3.37372440e-01  1.45113617e-01 -4.88170231e-02 -2.44419479e-01
 -4.43365566e-01 -6.42311653e-01 -8.41257741e-01 -1.04020383e+00
 -1.24082173e+00 -1.43976782e+00 -1.64038572e+00 -1.83933181e+00
 -2.03994971e+00 -2.23889580e+00 -2.43784189e+00 -2.63678797e+00
 -2.83406225e+00 -3.03133652e+00 -3.22359534e+00 -3.41251053e+00
 -3.59473846e+00 -3.76693549e+00 -3.92408619e+00 -4.06284690e+00
 -4.17653038e+00 -4.25844936e+00 -4.30526020e+00 -4.31194746e+00
 -4.27516752e+00 -4.19492035e+00 -4.07120598e+00 -3.91071166e+00
 -3.72012465e+00 -3.50780404e+00 -3.28545253e+00 -3.06310102e+00
 -2.84910859e+00 -2.65517795e+00 -2.48632455e+00 -2.34589201e+00
 -2.23889580e+00 -2.16366409e+00 -2.11685324e+00 -2.09344782e+00
 -2.09010419e+00 -2.10180690e+00 -2.12354050e+00 -2.15028956e+00
 -2.18205406e+00 -2.21549038e+00 -2.24725488e+00 -2.27734756e+00
 -2.30409662e+00 -2.32750204e+00 -2.34254838e+00 -2.34756383e+00
 -2.34422020e+00 -2.32583022e+00 -2.29573754e+00 -2.25227033e+00
 -2.19710040e+00 -2.12855595e+00 -2.05165242e+00 -1.96806163e+00
 -1.88112721e+00 -1.79419278e+00 -1.71060199e+00 -1.63202664e+00
 -1.56013856e+00 -1.49828137e+00 -1.44645508e+00 -1.40298787e+00
 -1.36620792e+00 -1.33611523e+00 -1.30435073e+00 -1.27091442e+00
 -1.22911902e+00 -1.17562091e+00 -1.10540465e+00 -1.02181385e+00
 -9.24848533e-01 -8.17852318e-01 -7.10856103e-01 -6.15562599e-01
 -5.45346333e-01 -5.15253648e-01 -5.45346333e-01 -6.50670733e-01
 -8.46273188e-01 -1.14218460e+00 -1.54509222e+00 -2.04998061e+00
 -2.65183432e+00 -3.33059156e+00 -4.06786235e+00 -4.83689764e+00
 -5.60593294e+00 -6.34821918e+00 -7.03700732e+00 -7.65056374e+00
 -8.17049847e+00 -8.58845243e+00 -8.90108200e+00 -9.10838717e+00
 -9.22039883e+00 -9.24547607e+00 -9.19699341e+00 -9.08832538e+00
 -8.92950287e+00 -8.73222860e+00 -8.50653346e+00 -8.25910471e+00
 -7.99830144e+00 -7.72913908e+00 -7.45663310e+00 -7.18747074e+00
 -6.92666747e+00 -6.67756691e+00 -6.44518450e+00 -6.23119207e+00
 -6.03893325e+00 -5.86506440e+00 -5.71292916e+00 -5.57751207e+00
 -5.45714133e+00 -5.35014511e+00 -5.25317979e+00 -5.16457355e+00
 -5.08098276e+00 -5.00073560e+00 -4.92383207e+00 -4.84692854e+00
 -4.77336864e+00 -4.69813693e+00 -4.62457703e+00 -4.55101713e+00
 -4.47745723e+00 -4.40556915e+00 -4.33200926e+00 -4.25844936e+00
 -4.18488946e+00 -4.11132956e+00 -4.03776966e+00 -3.96420977e+00
 -3.89064987e+00 -3.81708997e+00 -3.74520189e+00 -3.67164199e+00
 -3.59808209e+00 -3.52452220e+00 -3.45096230e+00 -3.37740240e+00
 -3.30384250e+00 -3.23028260e+00 -3.15672271e+00 -3.08483462e+00
 -3.01127473e+00 -2.93771483e+00 -2.86415493e+00 -2.79059503e+00
 -2.71703513e+00 -2.64347524e+00 -2.56991534e+00 -2.49802726e+00
 -2.42446736e+00 -2.35090746e+00 -2.27734756e+00 -2.20378767e+00
 -2.13022777e+00 -2.05666787e+00 -1.98310797e+00 -1.90954807e+00
 -1.83765999e+00 -1.76410009e+00 -1.69054020e+00 -1.61698030e+00
 -1.54342040e+00 -1.46986050e+00 -1.39630061e+00 -1.32274071e+00
 -1.25085263e+00 -1.17729273e+00 -1.10373283e+00 -1.03017293e+00
 -9.56613035e-01 -8.83053137e-01 -8.09493239e-01 -7.35933341e-01]","[-0.98079067 -0.80366247 -0.62199251 -0.43880864 -0.2586526  -0.09060789
  0.06381157  0.19552229  0.30149643  0.37719225  0.42260973  0.43623498
  0.42109582  0.37719225  0.31209384  0.23185628  0.14253522  0.05170024
 -0.03307907 -0.10574705 -0.16024804 -0.1935542  -0.20112378 -0.18598462
 -0.15116454 -0.09969139 -0.04064865  0.01839408  0.06835332  0.10014556
  0.10468731  0.07895073  0.01688017 -0.08001048 -0.21323511 -0.3797659
 -0.57203327 -0.7885233  -1.02469425 -1.27297652 -1.53034229 -1.79527764
 -2.06172691 -2.32969009 -2.59613936 -2.8595608  -3.11541265 -3.36218101
 -3.59835195 -3.81786981 -4.01922068 -4.19937672 -4.35682402 -4.49004865
 -4.59753671 -4.68382994 -4.74741442 -4.79434583 -4.82765198 -4.85036073
 -4.87004164 -4.88972255 -4.91394521 -4.94422354 -4.98358536 -5.03505852
 -5.09561517 -5.16676923 -5.24549288 -5.33027219 -5.41353759 -5.49528907
 -5.56947097 -5.63154154 -5.67847294 -5.70875127 -5.72237652 -5.72237652
 -5.71026519 -5.69209819 -5.67695903 -5.67090336 -5.68150078 -5.71783477
 -5.78141925 -5.87679598 -5.9994232  -6.147787   -6.31280387 -6.48690425
 -6.6594907  -6.82299366 -6.96984354 -7.0954986  -7.19693099 -7.2726268
 -7.32561387 -7.35740612 -7.37103136 -7.37103136 -7.35740612 -7.33166954
 -7.29684946 -7.25143198 -7.19390316 -7.12426301 -7.04251153 -6.9471348
 -6.84116066 -6.7245891  -6.60498972 -6.48387641 -6.36730486 -6.26133072
 -6.17049574 -6.09631384 -6.04332677 -6.0085067  -5.9903397  -5.98428403
 -5.98882578 -5.9994232  -6.01002061 -6.01910411 -6.02364586 -6.02213194
 -6.01456236 -5.9994232  -5.97974229 -5.95249179 -5.91918563 -5.88285164
 -5.84348982 -5.804128   -5.76628009 -5.73600176 -5.71480693 -5.70723735
 -5.71632085 -5.74357134]",0.979057162727873,-0.0238979012895947,5.98152,0.12655499999999886
024,1,1,csm,35b.png,1,1,348,31,348,1,1,298,neu_feedback_onset,6,"[ 2.29492250e+00  2.26601170e+00  2.21669327e+00  2.13676340e+00
  2.01941956e+00  1.85615855e+00  1.64187849e+00  1.37487872e+00
  1.05685990e+00  6.92923911e-01  2.88172676e-01 -1.47189998e-01
 -6.08062202e-01 -1.08083886e+00 -1.55871741e+00 -2.02979343e+00
 -2.48556373e+00 -2.92092640e+00 -3.32397700e+00 -3.68961362e+00
 -4.01443499e+00 -4.29333921e+00 -4.52292499e+00 -4.70489298e+00
 -4.84094382e+00 -4.93277813e+00 -4.98379720e+00 -5.00250419e+00
 -4.99059974e+00 -4.95488639e+00 -4.89876542e+00 -4.82563810e+00
 -4.74060633e+00 -4.64026884e+00 -4.52632626e+00 -4.39537733e+00
 -4.24572141e+00 -4.07225660e+00 -3.87158162e+00 -3.64199583e+00
 -3.38179861e+00 -3.08758868e+00 -2.75936604e+00 -2.40223259e+00
 -2.01448771e+00 -1.60293394e+00 -1.17267317e+00 -7.30507954e-01
 -2.84941468e-01  1.55523111e-01  5.84083243e-01  9.92235749e-01
  1.37487872e+00  1.72691026e+00  2.04492909e+00  2.33063584e+00
  2.58062925e+00  2.80171186e+00  2.99558430e+00  3.16734848e+00
  3.31870503e+00  3.45305523e+00  3.56869844e+00  3.66733530e+00
  3.74216326e+00  3.79148169e+00  3.81018868e+00  3.79318232e+00
  3.73876199e+00  3.64692767e+00  3.51597875e+00  3.35271774e+00
  3.15884530e+00  2.94116397e+00  2.70307500e+00  2.45308159e+00
  2.19288437e+00  1.92758524e+00  1.66058548e+00  1.39528635e+00
  1.13168786e+00  8.76592539e-01  6.31701035e-01  4.00414615e-01
  1.86134549e-01 -4.33662038e-03 -1.70998894e-01 -3.08750365e-01
 -4.14189762e-01 -4.90718357e-01 -5.34934878e-01 -5.53641868e-01
 -5.50240597e-01 -5.28132337e-01 -4.94119628e-01 -4.53304377e-01
 -4.10788491e-01 -3.66571970e-01 -3.25756719e-01 -2.86642104e-01
 -2.47527489e-01 -2.08412873e-01 -1.65896987e-01 -1.18279195e-01
 -6.04575900e-02  1.09690986e-02  9.77015062e-02  2.03140904e-01
  3.32389197e-01  4.85446387e-01  6.65713744e-01  8.71490632e-01
  1.10277705e+00  1.35447110e+00  1.62317150e+00  1.90207571e+00
  2.18608183e+00  2.46668668e+00  2.73708771e+00  2.99388366e+00
  3.23367326e+00  3.45305523e+00  3.65032895e+00  3.82889567e+00
  3.98705476e+00  4.12820750e+00  4.25235389e+00  4.36119456e+00
  4.45302887e+00  4.52955747e+00  4.58737907e+00  4.62479305e+00
  4.64009877e+00  4.63499687e+00  4.60438543e+00  4.55166573e+00
  4.47853841e+00  4.38670409e+00  4.27786342e+00  4.15711831e+00
  4.03297192e+00  3.91052617e+00  3.79658359e+00  3.70134801e+00
  3.62822068e+00  3.58740543e+00  3.57890226e+00  3.60441179e+00
  3.66223339e+00  3.75066644e+00  3.86290838e+00  3.99215667e+00
  4.13330941e+00  4.27956406e+00  4.42751934e+00  4.57207336e+00
  4.71152546e+00  4.84757630e+00  4.97852523e+00  5.10437225e+00
  5.22851864e+00  5.35266502e+00  5.47511078e+00  5.59755653e+00
  5.72170291e+00  5.84244803e+00  5.96319315e+00  6.07713572e+00
  6.18597639e+00  6.28461325e+00  6.37134565e+00  6.44787425e+00
  6.50909712e+00  6.55671492e+00  6.58902699e+00  6.60943462e+00
  6.61963843e+00  6.61793779e+00  6.60773398e+00  6.59072763e+00
  6.56861936e+00  6.54310983e+00  6.51419903e+00  6.48528823e+00
  6.45297615e+00  6.42066408e+00  6.38835201e+00  6.35603993e+00
  6.32372786e+00  6.28971515e+00  6.25740308e+00  6.22339037e+00
  6.19107830e+00  6.15706559e+00  6.12475351e+00  6.09074081e+00
  6.05842873e+00  6.02441602e+00  5.99210395e+00  5.95809124e+00
  5.92577917e+00  5.89176646e+00  5.85945439e+00  5.82714231e+00
  5.79312960e+00  5.76081753e+00  5.72680482e+00  5.69449275e+00
  5.66048004e+00  5.62816796e+00  5.59415526e+00  5.56184318e+00
  5.52783047e+00  5.49551840e+00  5.46150569e+00  5.42919362e+00
  5.39518091e+00  5.36286884e+00  5.32885613e+00  5.29654405e+00
  5.26253134e+00  5.23021927e+00  5.19620656e+00  5.16389449e+00
  5.12988178e+00  5.09756971e+00  5.06525763e+00  5.03124492e+00
  4.99893285e+00  4.96492014e+00  4.93260807e+00  4.89859536e+00
  4.86628329e+00  4.83397121e+00  4.79995850e+00  4.76934707e+00
  4.73873563e+00  4.70982483e+00  4.68431529e+00  4.66390767e+00
  4.65200322e+00  4.65030259e+00  4.66390767e+00  4.69792038e+00
  4.75574198e+00  4.84417503e+00  4.96492014e+00  5.11797733e+00
  5.30334660e+00  5.51422539e+00  5.74381118e+00  5.97849887e+00
  6.20468338e+00  6.40875963e+00  6.57712254e+00  6.69786766e+00
  6.76079117e+00  6.76419244e+00  6.70637084e+00  6.59072763e+00]","[-1.01537375e+00 -9.74020810e-01 -9.31077371e-01 -8.83362439e-01
 -8.24514023e-01 -7.52941626e-01 -6.67054748e-01 -5.65262893e-01
 -4.49156559e-01 -3.15554750e-01 -1.67638461e-01 -2.22669682e-03
  1.77499547e-01  3.73130768e-01  5.83076468e-01  8.05746150e-01
  1.03954932e+00  1.27971447e+00  1.52306063e+00  1.76640678e+00
  2.00498144e+00  2.23719411e+00  2.45986379e+00  2.66980949e+00
  2.86862171e+00  3.05630044e+00  3.23125519e+00  3.39507646e+00
  3.54935474e+00  3.69249953e+00  3.82451084e+00  3.94220767e+00
  4.04399953e+00  4.12829591e+00  4.19191582e+00  4.23167826e+00
  4.24917374e+00  4.24440224e+00  4.21895428e+00  4.17442034e+00
  4.11557193e+00  4.04240903e+00  3.95970315e+00  3.86904478e+00
  3.77361492e+00  3.67341356e+00  3.57162170e+00  3.46982985e+00
  3.36485700e+00  3.26147465e+00  3.15650180e+00  3.05152895e+00
  2.94655610e+00  2.84158325e+00  2.73661039e+00  2.63163754e+00
  2.52666469e+00  2.42169184e+00  2.31671899e+00  2.21174614e+00
  2.10518280e+00  1.99861945e+00  1.89046560e+00  1.77913076e+00
  1.66302443e+00  1.54055610e+00  1.41013529e+00  1.26539999e+00
  1.10475972e+00  9.21852485e-01  7.13497282e-01  4.74922622e-01
  2.04538008e-01 -9.76565606e-02 -4.30070586e-01 -7.89523073e-01
 -1.16806153e+00 -1.55455248e+00 -1.93945293e+00 -2.31162940e+00
 -2.66153890e+00 -2.98122895e+00 -3.26274704e+00 -3.50450270e+00
 -3.70808641e+00 -3.87667917e+00 -4.01346197e+00 -4.12797781e+00
 -4.22499817e+00 -4.30929455e+00 -4.38722894e+00 -4.45880134e+00
 -4.52878324e+00 -4.59558414e+00 -4.65761355e+00 -4.71805247e+00
 -4.77371989e+00 -4.82779681e+00 -4.87869274e+00 -4.93117916e+00
 -4.98684658e+00 -5.04569500e+00 -5.11090541e+00 -5.18247780e+00
 -5.25564070e+00 -5.32880360e+00 -5.39560450e+00 -5.44809093e+00
 -5.47831038e+00 -5.47831038e+00 -5.44172893e+00 -5.36379455e+00
 -5.24132622e+00 -5.07432396e+00 -4.87074025e+00 -4.63534659e+00
 -4.38086695e+00 -4.11843482e+00 -3.86077419e+00 -3.62060903e+00
 -3.40589184e+00 -3.22298460e+00 -3.07665881e+00 -2.96532397e+00
 -2.88738958e+00 -2.83649365e+00 -2.80786469e+00 -2.79514071e+00
 -2.79355021e+00 -2.79991220e+00 -2.81104569e+00 -2.82217917e+00
 -2.83490315e+00 -2.84921763e+00 -2.86035112e+00 -2.87307510e+00
 -2.88579908e+00 -2.89693257e+00 -2.90806605e+00 -2.91919953e+00]",5.550234497293822,3.2622301322976086,5.880155,-0.2580650000000002
024,1,1,csm,21b.png,1,0,224,22,224,1,0,282,neu_feedback_onset,7,"[-0.9253837  -0.87318508 -0.81119921 -0.74431973 -0.67091542 -0.58935507
 -0.49800748 -0.39524144 -0.27942575 -0.14892919 -0.00538298  0.14631926
  0.30291513  0.45787979  0.60305721  0.73029135  0.8363198   0.91461773
  0.96355394  0.98639084  0.98639084  0.96844756  0.93582343  0.89993687
  0.86078791  0.82653256  0.79880204  0.77596514  0.75965307  0.74986583
  0.74497221  0.74497221  0.74986583  0.76128428  0.77922756  0.80206446
  0.82979497  0.85589428  0.87709998  0.8836248   0.86894394  0.82327015
  0.74334101  0.62263169  0.4611422   0.26050375  0.02560995 -0.24027678
 -0.52900041 -0.8324049  -1.14396543 -1.45389475 -1.75240562 -2.03134201
 -2.28254788 -2.49297358 -2.65935668 -2.77027876 -2.82084617 -2.80942772
 -2.7343922  -2.59900203 -2.4048884  -2.16183857 -1.87311494 -1.54850475
 -1.19290164 -0.81283042 -0.41807834 -0.01517022  0.38773789  0.78085877
  1.15440516  1.49695861  1.80036311  2.05483139  2.25546984  2.39575364
  2.4805764   2.50993813  2.49362606  2.43653382  2.35334226  2.25220743
  2.14291657  2.03851932  1.94227811  1.86234897  1.80199431  1.76121414
  1.73837724  1.73348362  1.74163966  1.75958293  1.78405104  1.80851914
  1.82972483  1.84440569  1.8460369   1.82972483  1.79220707  1.73022121
  1.64213603  1.52632034  1.38440534  1.21802223  1.03695826  0.84610704
  0.65362462  0.46929824  0.30291513  0.16100013  0.05007805 -0.02332626
 -0.06084402 -0.05758161 -0.01680143  0.05660288  0.16263133  0.2947591
  0.44646134  0.61284445  0.78738359  0.96355394  1.13646188  1.29958257
  1.44802241  1.57688776  1.68617862  1.775895    1.8460369   1.90312914
  1.95043415  1.99610794  2.04667536  2.10703001  2.18206553  2.27830674
  2.39575364  2.53440623  2.68937089  2.85738521  3.03029314  3.20156987
  3.36305936  3.50497437  3.62405247  3.71376885  3.77412351  3.80674765
  3.81327248  3.80022282  3.77575472  3.74476179  3.71376885  3.68603834
  3.66483265  3.65015178  3.63710213  3.62568368  3.6077404   3.58164109
  3.54249213  3.4886623   3.4185204   3.33532884  3.23908763  3.13469039
  3.02376832  2.91284624  2.80518659  2.70405175  2.61270417  2.53114382
  2.46263313  2.40717209  2.3631295   2.33213657  2.31093088  2.29788123
  2.28972519  2.28483157  2.27993795  2.27504433  2.26525709  2.25383864
  2.23589536  2.21468967  2.18859036  2.15922863  2.1282357   2.09234915
  2.0564626   2.01731363  1.97816466  1.9390157   1.89823552  1.85419294
  1.81015035  1.76284535  1.71064672  1.65518569  1.59156862  1.52142672
  1.44149758  1.35014999  1.24901516  1.13483067  1.00922774  0.87057515
  0.72376652  0.56717066  0.40568117  0.24092927  0.07617736 -0.08694333
 -0.2451704  -0.39687265 -0.53878765 -0.66928421 -0.78836232 -0.89602198
 -0.99226319 -1.07708595 -1.15212147 -1.21736974 -1.2777244  -1.33481664
 -1.39027768 -1.44900113 -1.51098699 -1.58112889 -1.65942683 -1.74914321
 -1.84864683 -1.96120011 -2.08190943 -2.21077477 -2.34779616 -2.48971116
 -2.63488858 -2.780066   -2.92524342 -3.06715842 -3.2025486  -3.32978274
 -3.44559843 -3.54673326 -3.62992482 -3.69191068 -3.73432206 -3.75552775
 -3.75715896 -3.73921568 -3.70985396 -3.66907378 -3.62339999 -3.57609499
 -3.53042119 -3.48800981]","[-0.12195562 -0.02935097  0.08208853  0.20451503  0.32694152  0.43838102
  0.5294161   0.59376849  0.62359033  0.61103377  0.55452923  0.45250715
  0.30339796  0.11191037 -0.11567734 -0.36994775 -0.643053   -0.92086697
 -1.19083308 -1.44039478 -1.66170421 -1.84534395 -1.98660529 -2.08548822
 -2.14199276 -2.16239717 -2.15297975 -2.12315791 -2.08077951 -2.03840111
 -2.00230099 -1.98189657 -1.98660529 -2.02270541 -2.09333607 -2.203206
 -2.35231519 -2.54223322 -2.76982093 -3.03036962 -3.31917058 -3.63151509
 -3.96112488 -4.30329123 -4.64859673 -4.99233265 -5.32822072 -5.64841309
 -5.94663147 -6.21502801 -6.45046357 -6.64509031 -6.79733864 -6.90720857
 -6.97470009 -7.0060915  -7.00923064 -6.99510451 -6.96999138 -6.94958697
 -6.93859997 -6.94644783 -6.97783924 -7.03434377 -7.11439186 -7.2132748
 -7.3247143  -7.44243208 -7.55544115 -7.65746323 -7.74065046 -7.797155
 -7.82069855 -7.80971156 -7.75948531 -7.67158936 -7.54602373 -7.38592755
 -7.19443995 -6.97783924 -6.74397324 -6.49755069 -6.25112813 -6.01098385
 -5.78653528 -5.5840607  -5.41297752 -5.27328575 -5.16969411 -5.10063301
 -5.06139375 -5.04883718 -5.05668504 -5.07708945 -5.10377215 -5.13045485
 -5.15085926 -5.16184625 -5.15713754 -5.13673313 -5.0959243  -5.03471105
 -4.94838468 -4.84008432 -4.7082404  -4.55599207 -4.38647846 -4.20597787
 -4.02076856 -3.83712882 -3.6629065  -3.50594946 -3.3709664  -3.26109647
 -3.1747701  -3.11198728 -3.06960888 -3.04449575 -3.02880005 -3.02252177
 -3.02252177 -3.02566091 -3.03507833 -3.0523436  -3.07745673 -3.11512642
 -3.16535267 -3.22656592 -3.30033573 -3.38352296 -3.47298848 -3.56559313
 -3.65819779 -3.74923287 -3.83869839 -3.92502476 -4.00821199 -4.08982965
 -4.16987775 -4.24992584]",3.1300414489685133,-0.5771310450042824,6.13043,
024,1,1,csp,51a.png,1,0,184,320,186,1,1,690,neg_feedback_onset,8,"[-0.84728116 -0.97358818 -1.05722391 -1.09818835 -1.09306779 -1.0435691
 -0.95481281 -0.82679894 -0.66635488 -0.47689435 -0.26524475 -0.03311292
  0.21267371  0.47040831  0.73838402  1.01318714  1.29481766  1.57986188
  1.86831981  2.15848459  2.44694252  2.72857304  2.99996245  3.25769705
  3.49665628  3.71171958  3.89947327  4.05479677  4.17256953  4.25279156
  4.29204914  4.29034229  4.247671    4.16574212  4.04967621  3.90288697
  3.7322018   3.54615498  3.35157389  3.1569928   2.96582542  2.78660599
  2.62274824  2.47425214  2.34282457  2.22846551  2.13117496  2.04924608
  1.98438572  1.93659388  1.90587055  1.89392258  1.90074999  1.92805962
  1.97243776  2.03047072  2.09703793  2.16360514  2.2216381   2.26260254
  2.2745505   2.24724087  2.17384625  2.04753923  1.86319925  1.61911947
  1.31359303  0.94661992  0.52502757  0.05052281 -0.46836009 -1.02479373
 -1.60853699 -2.20593506 -2.80674684 -3.39731751 -3.96399226 -4.49823682
 -4.9898101  -5.43359152 -5.82446055 -6.16241718 -6.4508751  -6.69154118
 -6.89294968 -7.06192799 -7.20188983 -7.31795574 -7.41695313 -7.49888201
 -7.56374237 -7.61153422 -7.6405507  -7.64737811 -7.63030959 -7.591052
 -7.52960534 -7.44767646 -7.35038592 -7.24456112 -7.13532261 -7.02779096
 -6.92879356 -6.84174413 -6.76493581 -6.69836859 -6.63862878 -6.57718212
 -6.50720121 -6.42015177 -6.30579271 -6.15900347 -5.97124979 -5.74423852
 -5.47455596 -5.16732267 -4.83107289 -4.47263405 -4.10054039 -3.72503303
 -3.35293937 -2.98767312 -2.63606168 -2.29469135 -1.96356213 -1.63926032
 -1.31495851 -0.98894984 -0.65440692 -0.31303659  0.036868    0.39359999
  0.74862513  1.10023657  1.4381932   1.75396075  2.04412553  2.30015328
  2.52033714  2.69955656  2.84122525  2.94363635  3.01361726  3.051168
  3.06311596  3.051168    3.01873782  2.96582542  2.89413765  2.80196766
  2.69272915  2.56300843  2.41451234  2.25065458  2.07314201  1.88709518
  1.6993415   1.51329467  1.33748895  1.17533804  1.03708306  0.92101715
  0.83567456  0.77764161  0.75203883  0.75545254  0.78958957  0.85444993
  0.94661992  1.06951324  1.21800933  1.39381505  1.59351669  1.81370056
  2.05095294  2.29844642  2.55106047  2.80196766  3.03922004  3.2594039
  3.45057128  3.60760163  3.72366755  3.79364846  3.81413068  3.78682106
  3.71342644  3.60077423  3.45227813  3.27988612  3.09213244  2.89755135
  2.70638397  2.52375084  2.35306568  2.19774218  2.05265979  1.91611166
  1.77956352  1.63789484  1.48598504  1.31529988  1.1275462   0.922724
  0.70595384  0.48406313  0.26387926  0.05735022 -0.12698976 -0.28402011
 -0.40520658 -0.49225601 -0.54516842 -0.57077119 -0.5775986  -0.57247804
 -0.56394378 -0.56394378 -0.57589174 -0.60490822 -0.65270007 -0.71756043
 -0.79607561 -0.88653874 -0.97870873 -1.07087872 -1.1562213  -1.23302963
 -1.29447629 -1.34397498 -1.38152572 -1.4071285  -1.42419701 -1.43614497
 -1.44809293 -1.4600409  -1.47710941 -1.49759163 -1.52490126 -1.55903829
 -1.59829588 -1.64438087 -1.69217272 -1.74337827 -1.79799752 -1.85432363
 -1.91064973 -1.96868269 -2.02671564 -2.0847486  -2.14278155 -2.20252136
 -2.26055432 -2.31858727 -2.37662023 -2.43636004 -2.49439299 -2.5541328
 -2.61216576 -2.67019871]","[-2.18035358 -2.03286437 -1.88537516 -1.73617096 -1.5783918  -1.4103227
 -1.22681868 -1.02273478 -0.79292601 -0.53567738 -0.25098891  0.0645694
  0.41099755  0.78143557  1.17759845  1.59091123  2.01622896  2.44840664
  2.87372437  3.28875215  3.67977005  4.03991813  4.36405139  4.64702488
  4.8854086   5.08263255  5.24212669  5.37418098  5.48737038  5.59198482
  5.70345922  5.83379852  5.98986269  6.18365665  6.42032539  6.70158388
  7.02743214  7.39444017  7.79403303  8.21592077  8.64809846  9.07684617
  9.48672897  9.86231196 10.19330519 10.46598873 10.67350262 10.81241688
 10.88101651 10.88444649 10.82956678 10.72152236 10.56888818 10.38366917
 10.1727253   9.94291653  9.70110282  9.45071417  9.19689552  8.94136189
  8.68582826  8.43029463  8.17647599  7.92437233  7.67226868  7.42359502
  7.17835133  6.93653762  6.70158388  6.47520509  6.25911625  6.05674733
  5.86981333  5.70174423  5.55597001  5.42906069  5.32273126  5.23355174
  5.15809214  5.0912075   5.02603785  4.95915321  4.8854086   4.80137405
  4.70533456  4.59557515  4.47724079  4.34861647  4.21656218  4.08107791
  3.94730862  3.8203993   3.70034994  3.59230552  3.49798103  3.42080644
  3.36249675  3.32305196  3.30590206  3.30933204  3.33162692  3.36935672
  3.42423642  3.48940607  3.56486567  3.64718523  3.73636475  3.83240424
  3.93530369  4.04849308  4.17025743  4.30059673  4.43951099  4.58185523
  4.72248447  4.85796875  4.9797331   5.08263255  5.16323711  5.2215468
  5.2592766   5.2781415   5.28671645  5.29186143  5.30558135  5.33302121
  5.38447093  5.4650755   5.5765499   5.72060913  5.89553819  6.09619212
  6.31399595  6.54380472  6.77532849  6.99999228  7.20579118  7.38758021
  7.53506942  7.64654382]",2.6579093798325237,8.57199574339278,5.85874,0.3204899999999995
024,1,1,csp,21a.png,1,1,68,53,70,1,1,302,pos_feedback_onset,9,"[ 0.2245855   0.43314029  0.60434199  0.73040869  0.80822764  0.83468609
  0.81289678  0.7444161   0.63391319  0.48761356  0.3132991   0.11563896
 -0.09602859 -0.31703441 -0.541153   -0.76060244 -0.97226999 -1.17304289
 -1.35669562 -1.52634094 -1.67730971 -1.81271468 -1.93411225 -2.04305878
 -2.13955428 -2.22982427 -2.31386874 -2.39324407 -2.46950664 -2.54421284
 -2.61736265 -2.69051247 -2.76210591 -2.83525572 -2.90840554 -2.98155535
 -3.05781793 -3.13563688 -3.21812497 -3.30683857 -3.40333408 -3.51072423
 -3.63056542 -3.76752677 -3.92316468 -4.09903551 -4.29825203 -4.51925786
 -4.76516575 -5.03286294 -5.32234945 -5.62895612 -5.95268296 -6.29041722
 -6.63593337 -6.98456228 -7.3316348  -7.67248182 -7.99776504 -8.30437171
 -8.58296356 -8.83042783 -9.03742625 -9.20240243 -9.32224361 -9.39694981
 -9.42340825 -9.40628808 -9.34870206 -9.25687569 -9.13392175 -8.98450936
 -8.81642042 -8.63276769 -8.43666393 -8.22966552 -8.01488521 -7.79387938
 -7.56353528 -7.32852205 -7.08728329 -6.8413754  -6.59079838 -6.34022135
 -6.08964432 -5.84062367 -5.59627216 -5.35658979 -5.12313293 -4.89745797
 -4.67800852 -4.46789735 -4.26556807 -4.07257707 -3.89048072 -3.71927902
 -3.56364112 -3.423567   -3.30216944 -3.19944842 -3.11851671 -3.0593743
 -3.02202121 -3.0080138  -3.01112655 -3.03291586 -3.06871258 -3.11540395
 -3.16676446 -3.21968135 -3.26948548 -3.31150771 -3.34419167 -3.36286822
 -3.36598098 -3.35352995 -3.32240236 -3.27415461 -3.21034307 -3.13096774
 -3.037585   -2.9333076  -2.82280469 -2.70918902 -2.60024248 -2.5021906
 -2.42125889 -2.36367287 -2.33410167 -2.3387708  -2.37923666 -2.45549923
 -2.56288939 -2.69985074 -2.85860141 -3.03291586 -3.21656859 -3.4017777
 -3.58076129 -3.74729385 -3.89826261 -4.02744208 -4.13171947 -4.20798205
 -4.25311704 -4.26401169 -4.23755325 -4.17374171 -4.07413345 -3.94028485
 -3.77686505 -3.59165594 -3.39243942 -3.19011014 -2.99400638 -2.81502279
 -2.65938489 -2.53176181 -2.4352663  -2.368342   -2.32476339 -2.29830495
 -2.2796284  -2.25783909 -2.22515513 -2.17379462 -2.10064481 -2.00259293
 -1.88430812 -1.75045952 -1.60882903 -1.46875491 -1.33646269 -1.21973426
 -1.12323876 -1.05008895 -1.00028482 -0.96915724 -0.95514982 -0.95203707
 -0.9567062  -0.9644881  -0.97226999 -0.98316465 -0.99717206 -1.01584861
 -1.04230705 -1.07966015 -1.13102066 -1.19950134 -1.28354581 -1.38315406
 -1.49988249 -1.62906195 -1.77224883 -1.92633035 -2.08975015 -2.26095185
 -2.43837906 -2.61891903 -2.80257176 -2.98311173 -3.15742618 -3.32240236
 -3.47492751 -3.61033249 -3.7286173  -3.82822556 -3.90760089 -3.96985605
 -4.01499104 -4.04611862 -4.06323879 -4.06790793 -4.06012604 -4.03678035
 -3.99942725 -3.94184123 -3.86402227 -3.76285764 -3.63523455 -3.48115303
 -3.30061306 -3.0967274  -2.87105244 -2.62981369 -2.38079304 -2.12865963
 -1.88430812 -1.65396402 -1.44696561 -1.26953839 -1.12479514 -1.01896137
 -0.95203707 -0.92246586 -0.927135   -0.9644881  -1.02829964 -1.11390049
 -1.21506513 -1.3286808  -1.45007836 -1.57614507 -1.70532453 -1.83606037
 -1.96368345 -2.08819378 -2.20803496 -2.31853788 -2.41658976 -2.49907785
 -2.55977663 -2.59401697 -2.60024248 -2.57534042 -2.51775439 -2.43370993
 -2.32476339 -2.20180945]","[-0.22452724 -0.40349228 -0.56275475 -0.69410524 -0.79097622 -0.85500958
 -0.8796378  -0.86978651 -0.82053008 -0.73022662 -0.59887613 -0.42319485
 -0.19989902  0.06936948  0.38461065  0.73761509  1.12017338  1.51915049
  1.9181276   2.30396966  2.65533221  2.96400586  3.21521367  3.40731376
  3.53866425  3.61419078  3.6470284   3.64538652  3.62732583  3.60269761
  3.5862788   3.58463692  3.60598137  3.64867028  3.71434553  3.79808146
  3.89823621  4.00660036  4.11824828  4.22989619  4.33497658  4.43348945
  4.51886727  4.59111003  4.65021775  4.69290666  4.72081864  4.73395369
  4.73395369  4.72246052  4.70111607  4.67156221  4.63544082  4.5943938
  4.55006301  4.50409034  4.4548339   4.40557747  4.35632104  4.30542272
  4.25616629  4.20690986  4.16093719  4.11496451  4.07391749  4.0377961
  4.00660036  3.98361403  3.9688371   3.96226957  3.96555333  3.97540462
  3.99018155  4.00495848  4.01645165  4.01480977  3.99674908  3.95241829
  3.88017552  3.77345325  3.63060959  3.45164455  3.23820001  2.99355972
  2.72264934  2.42875262  2.12007897  1.80155404  1.47810346  1.15629477
  0.83941171  0.53237995  0.24176699 -0.02914339 -0.27378367 -0.4888701
 -0.66783514 -0.81067879 -0.9141173  -0.97979255 -1.00606265 -0.99949512
 -0.96173186 -0.89934037 -0.81560444 -0.71544969 -0.60215989 -0.47901881
 -0.34602644 -0.20154091 -0.04720408  0.11862591  0.29923283  0.49625856
  0.70641934  0.92807329  1.15957853  1.39436753  1.62751464  1.85081047
  2.05932937  2.24486194  2.40576629  2.53711677  2.6389134   2.71443993
  2.76533825  2.79981775  2.82444597  2.84250666  2.86385111  2.88847933
  2.92295883  2.96400586  3.01490418  3.06908625  3.12819397  3.18565981
  3.23984189  3.28909832]",-0.3842699881870766,4.2308813207291545,6.42517,-0.5659849999999995
024,1,1,csp,42a.png,1,1,44,329,47,1,1,261,pos_feedback_onset,10,"[nan nan nan nan nan nan nan nan nan nan nan nan nan nan nan nan nan nan
 nan nan nan nan nan nan nan nan nan nan nan nan nan nan nan nan nan nan
 nan nan nan nan nan nan nan nan nan nan nan nan nan nan nan nan nan nan
 nan nan nan nan nan nan nan nan nan nan nan nan nan nan nan nan nan nan
 nan nan nan nan nan nan nan nan nan nan nan nan nan nan nan nan nan nan
 nan nan nan nan nan nan nan nan nan nan nan nan nan nan nan nan nan nan
 nan nan nan nan nan nan nan nan nan nan nan nan nan nan nan nan nan nan
 nan nan nan nan nan nan nan nan nan nan nan nan nan nan nan nan nan nan
 nan nan nan nan nan nan nan nan nan nan nan nan nan nan nan nan nan nan
 nan nan nan nan nan nan nan nan nan nan nan nan nan nan nan nan nan nan
 nan nan nan nan nan nan nan nan nan nan nan nan nan nan nan nan nan nan
 nan nan nan nan nan nan nan nan nan nan nan nan nan nan nan nan nan nan
 nan nan nan nan nan nan nan nan nan nan nan nan nan nan nan nan nan nan
 nan nan nan nan nan nan nan nan nan nan nan nan nan nan nan nan nan nan
 nan nan nan nan nan nan nan nan]","[-0.30185571 -0.28949408 -0.27404203 -0.25704478 -0.23850233 -0.21686946
 -0.19214619 -0.16587771 -0.13651882 -0.10252432 -0.06543941 -0.02217369
  0.02572766  0.08135502  0.14470841  0.21578782  0.29922887  0.39194114
  0.49546985  0.60826978  0.72879574  0.85704772  0.9868449   1.11664209
  1.24025845  1.357694    1.46431311  1.55857059  1.63892123  1.70381982
  1.75635678  1.79498689  1.82434578  1.84443344  1.85679508  1.86297589
  1.8660663   1.8660663   1.8660663   1.86297589  1.85988548  1.85524987
  1.85215946  1.84752385  1.84288823  1.83825262  1.83361701  1.82743619
  1.82125537  1.81198414  1.79962251  1.78417046  1.76099239  1.7300883
  1.68836778  1.63428562  1.56629662  1.47976516  1.37778166  1.2572557
  1.1212777   0.96984765  0.80760117  0.63917387  0.46611096  0.29459325
  0.12771116 -0.03299012 -0.18442017 -0.32503378 -0.45328576 -0.5691761
 -0.67270481 -0.76387188 -0.84267731 -0.90912111 -0.96320327 -1.0080142
 -1.0404635  -1.06518677 -1.08063882 -1.08991005 -1.09609086 -1.10072648
 -1.1084525  -1.11926893 -1.13935659 -1.16871548 -1.2088908  -1.26297296
 -1.32941675 -1.40822219 -1.49475364 -1.59055633 -1.69099463 -1.79452333
 -1.89650683 -1.99694513 -2.0896574  -2.17618886 -2.25344909 -2.31834768
 -2.37397505 -2.41878598 -2.45278048 -2.47904896 -2.50068182 -2.51767907
 -2.53004071 -2.54085714 -2.54549275 -2.54703796 -2.54085714 -2.5269503
 -2.50377223 -2.47286814 -2.43732843 -2.39869832 -2.36161341 -2.33225452
 -2.31525727 -2.31216686 -2.3245285  -2.3569778  -2.40642434 -2.47132293
 -2.55012837 -2.63820503 -2.7309173  -2.82362958 -2.91325144 -2.99360208
 -3.06313629 -3.11567324 -3.14966774 -3.16202938 -3.14966774 -3.11258283
 -3.04922945 -2.96269799]",,1.5409166308050286,5.9123149999999995,-0.3330300000000008
024,1,1,csp,53a.png,1,1,176,333,176,1,1,291,pos_feedback_onset,11,"[ 6.13347927e-01  5.31336890e-01  4.44594448e-01  3.53120599e-01
  2.60069615e-01  1.67018631e-01  7.71219173e-02 -8.04339015e-03
 -8.53230210e-02 -1.51562705e-01 -2.05185306e-01 -2.43036553e-01
 -2.65116448e-01 -2.71424989e-01 -2.61962177e-01 -2.41459418e-01
 -2.13070982e-01 -1.84682546e-01 -1.62602652e-01 -1.53139840e-01
 -1.62602652e-01 -1.95722494e-01 -2.52499365e-01 -3.32933267e-01
 -4.35447063e-01 -5.52155077e-01 -6.79903038e-01 -8.09228134e-01
 -9.33821825e-01 -1.04895270e+00 -1.15146650e+00 -1.24136321e+00
 -1.32337425e+00 -1.40223102e+00 -1.48581919e+00 -1.58517871e+00
 -1.70661813e+00 -1.85644599e+00 -2.04097082e+00 -2.25861550e+00
 -2.50780288e+00 -2.78380156e+00 -3.07872586e+00 -3.38469012e+00
 -3.69696291e+00 -4.00608143e+00 -4.30889142e+00 -4.59908432e+00
 -4.87350586e+00 -5.12900178e+00 -5.35926354e+00 -5.55798259e+00
 -5.71727326e+00 -5.83082700e+00 -5.89075814e+00 -5.88918101e+00
 -5.81978706e+00 -5.68257628e+00 -5.47597155e+00 -5.20943569e+00
 -4.88927721e+00 -4.52811323e+00 -4.14486934e+00 -3.75373978e+00
 -3.37049590e+00 -3.01248618e+00 -2.69232771e+00 -2.42263757e+00
 -2.21130144e+00 -2.06462785e+00 -1.98103968e+00 -1.96053692e+00
 -1.99838817e+00 -2.08670775e+00 -2.21445571e+00 -2.37374637e+00
 -2.55353980e+00 -2.74595031e+00 -2.94466936e+00 -3.14181128e+00
 -3.33737606e+00 -3.52663230e+00 -3.71115713e+00 -3.89095056e+00
 -4.06758971e+00 -4.23792033e+00 -4.40194240e+00 -4.56123307e+00
 -4.71263806e+00 -4.85458024e+00 -4.99179101e+00 -5.12269324e+00
 -5.25044120e+00 -5.38134344e+00 -5.51855421e+00 -5.66838206e+00
 -5.83240414e+00 -6.01535184e+00 -6.21722516e+00 -6.43802410e+00
 -6.67617154e+00 -6.92535892e+00 -7.18400911e+00 -7.44581357e+00
 -7.70761804e+00 -7.96469109e+00 -8.21545561e+00 -8.45991159e+00
 -8.69648188e+00 -8.92674364e+00 -9.15227399e+00 -9.37307294e+00
 -9.59071761e+00 -9.80678515e+00 -1.00228527e+01 -1.02357660e+01
 -1.04502564e+01 -1.06647468e+01 -1.08776600e+01 -1.10921504e+01
 -1.13066408e+01 -1.15195541e+01 -1.17340445e+01 -1.19469578e+01
 -1.21614482e+01 -1.23743615e+01 -1.25856976e+01 -1.27954566e+01
 -1.30036385e+01 -1.32070889e+01 -1.34026537e+01 -1.35887557e+01
 -1.37606634e+01 -1.39136455e+01 -1.40398164e+01 -1.41344445e+01
 -1.41927985e+01 -1.42069927e+01 -1.41770271e+01 -1.40981704e+01
 -1.39751538e+01 -1.38095546e+01 -1.36092584e+01 -1.33805738e+01
 -1.31329635e+01 -1.28758905e+01 -1.26156632e+01 -1.23633215e+01
 -1.21204427e+01 -1.18964895e+01 -1.16930390e+01 -1.15132456e+01
 -1.13586863e+01 -1.12309383e+01 -1.11268474e+01 -1.10464135e+01
 -1.09849052e+01 -1.09391683e+01 -1.09013171e+01 -1.08634658e+01
 -1.08177289e+01 -1.07562206e+01 -1.06694782e+01 -1.05527702e+01
 -1.03982109e+01 -1.02042233e+01 -9.97080723e+00 -9.69796281e+00
 -9.38884429e+00 -9.04976020e+00 -8.68386480e+00 -8.29904378e+00
 -7.90002855e+00 -7.49155050e+00 -7.07991818e+00 -6.66986299e+00
 -6.26296208e+00 -5.86394684e+00 -5.47597155e+00 -5.10534475e+00
 -4.75522071e+00 -4.42875370e+00 -4.13382939e+00 -3.87360207e+00
 -3.65438026e+00 -3.48089537e+00 -3.35472455e+00 -3.27902205e+00
 -3.25221075e+00 -3.27113637e+00 -3.33264465e+00 -3.42727277e+00
 -3.54871219e+00 -3.68434583e+00 -3.82313374e+00 -3.95561310e+00
 -4.07074398e+00 -4.16221783e+00 -4.22214897e+00 -4.24580600e+00
 -4.23161178e+00 -4.18114345e+00 -4.09440101e+00 -3.97769300e+00
 -3.83575082e+00 -3.67488302e+00 -3.49982100e+00 -3.31845043e+00
 -3.13550274e+00 -2.95728644e+00 -2.78695583e+00 -2.62924230e+00
 -2.48256871e+00 -2.35008934e+00 -2.23180420e+00 -2.12613613e+00
 -2.02993087e+00 -1.94161130e+00 -1.85802312e+00 -1.77758922e+00
 -1.69715532e+00 -1.61356715e+00 -1.52682471e+00 -1.43535086e+00
 -1.33914560e+00 -1.23820894e+00 -1.13569515e+00 -1.03318135e+00
 -9.33821825e-01 -8.42347976e-01 -7.58759804e-01 -6.89365850e-01
 -6.31011843e-01 -5.88429189e-01 -5.58463618e-01 -5.41115129e-01
 -5.34806588e-01 -5.34806588e-01 -5.39537994e-01 -5.45846535e-01
 -5.52155077e-01 -5.55309347e-01 -5.55309347e-01 -5.49000806e-01
 -5.37960859e-01 -5.22189505e-01 -5.01686746e-01 -4.81183987e-01
 -4.60681228e-01 -4.43332739e-01 -4.33869927e-01 -4.32292792e-01
 -4.40178469e-01 -4.60681228e-01 -4.93801070e-01 -5.37960859e-01
 -5.96314866e-01 -6.65708820e-01 -7.44565586e-01 -8.34462299e-01]","[-1.41999693e-01 -2.53034696e-01 -3.42175473e-01 -4.03166531e-01
 -4.36007869e-01 -4.36007869e-01 -4.09422024e-01 -3.54686459e-01
 -2.81184415e-01 -1.93607512e-01 -9.66473685e-02  5.00439448e-03
  1.05092284e-01  2.02052427e-01  2.95884824e-01  3.81897854e-01
  4.66347011e-01  5.47668421e-01  6.28989832e-01  7.15002862e-01
  8.05707512e-01  9.05795402e-01  1.01213878e+00  1.12786541e+00
  1.24671978e+00  1.36713802e+00  1.48286464e+00  1.58764415e+00
  1.67522105e+00  1.73777598e+00  1.77374507e+00  1.77530894e+00
  1.74246760e+00  1.67522105e+00  1.57669704e+00  1.44689556e+00
  1.29207210e+00  1.11691829e+00  9.24561881e-01  7.21258355e-01
  5.08571589e-01  2.88065457e-01  6.44315790e-02 -1.60766173e-01
 -3.89091671e-01 -6.17417169e-01 -8.45742668e-01 -1.07563204e+00
 -1.30395754e+00 -1.53384691e+00 -1.76373628e+00 -1.99362565e+00
 -2.22195115e+00 -2.45184052e+00 -2.68172989e+00 -2.91161927e+00
 -3.14150864e+00 -3.36983414e+00 -3.59972351e+00 -3.82961288e+00
 -4.05793838e+00 -4.28782775e+00 -4.51615325e+00 -4.74291487e+00
 -4.96811262e+00 -5.19018263e+00 -5.40599714e+00 -5.61399229e+00
 -5.80947645e+00 -5.98775800e+00 -6.14101758e+00 -6.26299970e+00
 -6.34744885e+00 -6.38498181e+00 -6.37090695e+00 -6.30209653e+00
 -6.17855054e+00 -6.00652448e+00 -5.79227384e+00 -5.54987348e+00
 -5.29339827e+00 -5.03848692e+00 -4.80077818e+00 -4.59121916e+00
 -4.42232085e+00 -4.29564712e+00 -4.21276183e+00 -4.17053725e+00
 -4.16271789e+00 -4.17679275e+00 -4.20337859e+00 -4.23152831e+00
 -4.25029479e+00 -4.25029479e+00 -4.22840056e+00 -4.17992049e+00
 -4.10485458e+00 -4.00320281e+00 -3.88122070e+00 -3.74359985e+00
 -3.59659576e+00 -3.45115555e+00 -3.31040695e+00 -3.18529709e+00
 -3.08208145e+00 -3.00232392e+00 -2.95071610e+00 -2.92725800e+00
 -2.93351349e+00 -2.96322708e+00 -3.01639878e+00 -3.08833695e+00
 -3.17591385e+00 -3.27600174e+00 -3.38703674e+00 -3.50432724e+00
 -3.62630935e+00 -3.75454696e+00 -3.88434844e+00 -4.01727767e+00
 -4.14707915e+00 -4.27218902e+00 -4.38947951e+00 -4.49269515e+00
 -4.57558043e+00 -4.63344374e+00 -4.65690184e+00 -4.64126311e+00
 -4.58339980e+00 -4.48018416e+00 -4.33318007e+00 -4.14551528e+00
 -3.92657302e+00 -3.68417266e+00 -3.43238907e+00 -3.18373322e+00
 -2.95071610e+00 -2.74584870e+00 -2.58007813e+00 -2.45809602e+00]",4.2049697057677804e-15,0.5878208676994489,6.34061,0.4370850000000006
024,1,1,csm,55b.png,1,0,152,163,NaN,0,0,322,neu_feedback_onset,12,"[ 7.30318648e-01  6.81835445e-01  6.33352242e-01  5.83252932e-01
  5.31537515e-01  4.78205992e-01  4.20026149e-01  3.58614091e-01
  2.89121501e-01  2.11548376e-01  1.24278610e-01  2.40799908e-02
 -9.06635896e-02 -2.19952131e-01 -3.63785633e-01 -5.20547989e-01
 -6.90239200e-01 -8.71243158e-01 -1.05871154e+00 -1.25102825e+00
 -1.44657717e+00 -1.64374219e+00 -1.83929111e+00 -2.03322392e+00
 -2.22392452e+00 -2.41300901e+00 -2.59886129e+00 -2.77824914e+00
 -2.95117257e+00 -3.11278324e+00 -3.26308117e+00 -3.39560193e+00
 -3.51034551e+00 -3.60084749e+00 -3.66872397e+00 -3.71235885e+00
 -3.73013603e+00 -3.72690381e+00 -3.70427832e+00 -3.66387565e+00
 -3.61377634e+00 -3.55559650e+00 -3.49256833e+00 -3.42954017e+00
 -3.36651201e+00 -3.30509995e+00 -3.24368789e+00 -3.18065973e+00
 -3.11278324e+00 -3.03682622e+00 -2.94794035e+00 -2.84127731e+00
 -2.71522098e+00 -2.56653916e+00 -2.39361573e+00 -2.19806681e+00
 -1.97989240e+00 -1.74232470e+00 -1.49021205e+00 -1.22840275e+00
 -9.61745137e-01 -6.91855307e-01 -4.26813797e-01 -1.65004501e-01
  8.87242615e-02  3.35988597e-01  5.80020718e-01  8.19204520e-01
  1.05838832e+00  1.30080434e+00  1.54483646e+00  1.79371690e+00
  2.04259734e+00  2.29309389e+00  2.53712601e+00  2.77307760e+00
  2.99610033e+00  3.20134589e+00  3.38719817e+00  3.55365717e+00
  3.69910678e+00  3.82839532e+00  3.94313890e+00  4.04818584e+00
  4.14838446e+00  4.24696697e+00  4.34716559e+00  4.45221253e+00
  4.56372390e+00  4.68008359e+00  4.80129159e+00  4.92734792e+00
  5.05502035e+00  5.18430890e+00  5.31036522e+00  5.43318934e+00
  5.55116513e+00  5.66106039e+00  5.76125901e+00  5.85176099e+00
  5.92933412e+00  5.99236228e+00  6.04084548e+00  6.07478372e+00
  6.09417701e+00  6.09902533e+00  6.09256090e+00  6.07478372e+00
  6.05215823e+00  6.02630052e+00  6.00205892e+00  5.98104953e+00
  5.96812068e+00  5.96327236e+00  5.96650457e+00  5.97458510e+00
  5.98266564e+00  5.98589785e+00  5.97458510e+00  5.94064686e+00
  5.87600259e+00  5.77257176e+00  5.62712215e+00  5.43642155e+00
  5.20208607e+00  4.93381235e+00  4.63968092e+00  4.33585284e+00
  4.04010531e+00  3.77183158e+00  3.54880885e+00  3.38881428e+00
  3.30477673e+00  3.30639283e+00  3.39689481e+00  3.57305045e+00
  3.82839532e+00  4.14515225e+00  4.50877627e+00  4.89825800e+00
  5.29258805e+00  5.67560535e+00  6.02791663e+00  6.34144134e+00
  6.60486674e+00  6.81657673e+00  6.97657130e+00  7.08808267e+00
  7.15757526e+00  7.18666518e+00  7.18181686e+00  7.14141419e+00
  7.06545717e+00  6.95071359e+00  6.78910292e+00  6.57416072e+00
  6.29942257e+00  5.95842404e+00  5.54954903e+00  5.07602974e+00
  4.54594672e+00  3.96899661e+00  3.36134046e+00  2.74398768e+00
  2.13794764e+00  1.55938142e+00  1.03091451e+00  5.67091864e-01
  1.80842347e-01 -1.19753511e-01 -3.28231284e-01 -4.42974865e-01
 -4.67216466e-01 -4.05804409e-01 -2.66819227e-01 -5.83414543e-02
  2.06700055e-01  5.13760341e-01  8.49910548e-01  1.19737350e+00
  1.54160424e+00  1.86644170e+00  2.15572482e+00  2.39814083e+00
  2.58237700e+00  2.70358501e+00  2.75691653e+00  2.74721989e+00
  2.67611119e+00  2.55490319e+00  2.39167640e+00  2.19774359e+00
  1.98603361e+00  1.76462698e+00  1.54160424e+00  1.32342983e+00
  1.11171984e+00  9.11322606e-01  7.17389794e-01  5.31537515e-01
  3.50533558e-01  1.72761813e-01 -1.61610677e-04 -1.71468928e-01
 -3.34695711e-01 -4.88225854e-01 -6.25594929e-01 -7.41954616e-01
 -8.30840489e-01 -8.89020332e-01 -9.14878041e-01 -9.06797507e-01
 -8.68010944e-01 -8.01750567e-01 -7.16096908e-01 -6.17514395e-01
 -5.14083562e-01 -4.15501050e-01 -3.29847391e-01 -2.63587014e-01
 -2.23184344e-01 -2.11871597e-01 -2.29648772e-01 -2.79748081e-01
 -3.57321206e-01 -4.57519826e-01 -5.73879513e-01 -6.96703627e-01
 -8.17911635e-01 -9.24574681e-01 -1.01022834e+00 -1.06517597e+00
 -1.08295314e+00 -1.06355986e+00 -1.00538002e+00 -9.10029720e-01
 -7.80741179e-01 -6.25594929e-01 -4.49439292e-01 -2.55506480e-01
 -5.02609204e-02  1.64681280e-01  3.84471800e-01  6.09110640e-01
  8.33749481e-01  1.06000443e+00  1.28787548e+00  1.51413043e+00
  1.74038538e+00  1.96502422e+00  2.18804695e+00  2.40622136e+00
  2.62116356e+00  2.82802523e+00  3.02519026e+00  3.20942643e+00
  3.37911764e+00  3.52941557e+00  3.65708800e+00  3.75890273e+00]","[ 0.32500533  0.45676425  0.557152    0.62303146  0.64655984  0.62460002
  0.56342623  0.46303849  0.33284813  0.18383506  0.02541065 -0.13301377
 -0.27888971 -0.40908007 -0.51731061 -0.60358133 -0.66632368 -0.71024331
 -0.73534025 -0.74788872 -0.74788872 -0.73847737 -0.72122322 -0.69769485
 -0.66632368 -0.63024683 -0.58632719 -0.53456476 -0.47652809 -0.41378575
 -0.34476917 -0.27418404 -0.20516746 -0.14242512 -0.09223124 -0.06086007
 -0.05458584 -0.08281989 -0.15340503 -0.27575259 -0.45613683 -0.70083196
 -1.01297512 -1.39413485 -1.84431115 -2.35566124 -2.92034232 -3.52423737
 -4.15479791 -4.79163268 -5.41748755 -6.0135398  -6.56410385 -7.05663124
 -7.48014205 -7.83463628 -8.11697682 -8.33500646 -8.49343088 -8.60322998
 -8.67381511 -8.71459763 -8.73185178 -8.73185178 -8.71930331 -8.69577493
 -8.66597232 -8.62675835 -8.5797016  -8.52323349 -8.45421691 -8.37578898
 -8.28324403 -8.17971917 -8.06678295 -7.94286682 -7.81424502 -7.68091754
 -7.54602151 -7.41269403 -7.28407223 -7.16329322 -7.05192556 -6.95310637
 -6.86683565 -6.79625052 -6.74448809 -6.71311691 -6.702137   -6.71468547
 -6.7476252  -6.80252475 -6.87467845 -6.96094917 -7.05349412 -7.14603908
 -7.22917268 -7.29505214 -7.33583466 -7.34367745 -7.31073772 -7.23544691
 -7.11309935 -6.94369502 -6.72566538 -6.4637161  -6.15941574 -5.81590142
 -5.44101592 -5.03789637 -4.61752268 -4.18460052 -3.75167836 -3.32816755
 -2.92347944 -2.54545683 -2.20351106 -1.90234782 -1.64824133 -1.43962304
 -1.2749244  -1.15257683 -1.06473755 -1.00670088 -0.96905548 -0.94709566
 -0.93611575 -0.92984151 -0.92827295 -0.92827295 -0.92984151 -0.93454719
 -0.94238998 -0.95493845 -0.97062404 -0.98787818 -1.00670088 -1.02395503
 -1.03336638 -1.03179782]",4.7880395170426535,-0.12105350666951283,6.18771,
024,1,1,csm,41b.png,1,1,180,39,178,1,1,278,neu_feedback_onset,13,"[-2.40206408 -2.00093597 -1.63447325 -1.30267592 -1.00389325 -0.73317305
 -0.4855631  -0.25776195 -0.0448174   0.15657202  0.34640631  0.52633621
  0.69471097  0.8515306   0.9918429   1.11399714  1.21304112  1.2873241
  1.33354463  1.35005196  1.33519536  1.2922763   1.22459625  1.13215521
  1.0215561   0.89940186  0.76734322  0.63198312  0.49497228  0.35631071
  0.21599841  0.07073391 -0.08113353 -0.24455609 -0.42283525 -0.61927247
 -0.83386776 -1.06662111 -1.31423105 -1.57009466 -1.8325612  -2.09172628
 -2.34593916 -2.5885969  -2.81639805 -3.0293426  -3.22743056 -3.40901119
 -3.57738595 -3.73255485 -3.87781935 -4.01317945 -4.13863516 -4.250885
 -4.34992898 -4.42916416 -4.48528908 -4.51170081 -4.50509788 -4.46052809
 -4.37799144 -4.2558372  -4.1006683  -3.92073841 -3.72925338 -3.53776836
 -3.36279066 -3.22082763 -3.12343438 -3.08216606 -3.10362559 -3.18616224
 -3.32812527 -3.52456249 -3.76226804 -4.03298825 -4.32021578 -4.61404625
 -4.90127379 -5.17529546 -5.42620687 -5.65070655 -5.84384231 -6.00726488
 -6.13767278 -6.24166896 -6.31760267 -6.37042613 -6.40013932 -6.41169445
 -6.40509152 -6.38198126 -6.34236367 -6.28623875 -6.2136065  -6.12281618
 -6.01221707 -5.88180917 -5.7332432  -5.56486844 -5.37998635 -5.18024766
 -4.97225531 -4.75600929 -4.53481107 -4.31526358 -4.0957161  -3.88112081
 -3.66982699 -3.46348537 -3.26374669 -3.06730946 -2.8741737  -2.68599015
 -2.49945732 -2.31622596 -2.13629607 -1.95636618 -1.77808702 -1.60145859
 -1.42648089 -1.24985247 -1.07322404 -0.89494488 -0.71666572 -0.53838656
 -0.3601074  -0.18678044 -0.02005641  0.13511249  0.27377406  0.3909761
  0.48341715  0.54779574  0.58411186  0.59401626  0.58246113  0.55439867
  0.51808254  0.48341715  0.45700542  0.44545029  0.45040249  0.47186202
  0.50982888  0.5560494   0.60722212  0.65509338  0.69306024  0.71451976
  0.71947196  0.70461537  0.67490217  0.63528458  0.59071479  0.5510972
  0.52468547  0.51643181  0.53458987  0.58081039  0.65674411  0.76074029
  0.88784673  1.03476196  1.19158159  1.35170269  1.50687159  1.64883462
  1.77098886  1.87003284  1.94266509  1.98723488  2.00374221  1.99713928
  1.97237829  1.93110996  1.88158797  1.83041525  1.78089326  1.74127567
  1.71156248  1.69835661  1.70165808  1.72146687  1.757783    1.80895572
  1.87003284  1.93936363  2.01199588  2.08627886  2.15560964  2.22163896
  2.28271608  2.33719027  2.38671226  2.43458352  2.48245477  2.53032603
  2.57984802  2.63267147  2.68879639  2.74822278  2.80764917  2.86707555
  2.92485121  2.97932539  3.02554592  3.06021131  3.08332157  3.0899245
  3.07671864  3.04535471  2.99253126  2.91824828  2.82580723  2.71520812
  2.59140315  2.45439231  2.30912781  2.15726038  2.00209148  1.84197038
  1.68184928  1.52007745  1.35830562  1.19653379  1.03476196  0.87299013
  0.7112183   0.5510972   0.38932537  0.22755354  0.06578171 -0.09599012
 -0.25776195 -0.41788305 -0.57965488 -0.74142671 -0.90319854 -1.06497037
 -1.2267422  -1.38851403 -1.54863513 -1.71040696 -1.87217879 -2.03395062
 -2.19572246 -2.35749429 -2.51926612 -2.68103795 -2.84280978 -3.00623234
 -3.17130564 -3.3396804  -3.5097059  -3.68468359 -3.86626422 -4.05609851
 -4.25748793 -4.47043248]","[ -1.12166532  -0.99386561  -0.87498217  -0.76798707  -0.66693614
  -0.57182938  -0.47523658  -0.37567169  -0.26867659  -0.15127919
  -0.02347948   0.11620857   0.26481288   0.41638927   0.56945171
   0.71954206   0.8622022    0.99594607   1.11780161   1.22925484
   1.33030577   1.42244044   1.50565885   1.58293309   1.65277712
   1.71370488   1.76125826   1.79395121   1.8073256    1.80138143
   1.77166056   1.71964906   1.64386086   1.5487541    1.43581483
   1.30652908   1.16535499   1.01526463   0.85923011   0.69725141
   0.53230063   0.36586381   0.19942698   0.03001807  -0.1379048
  -0.30582767  -0.47375053  -0.6416734   -0.80662419  -0.97008892
  -1.12909553  -1.28513006  -1.43522041  -1.57936659  -1.71608255
  -1.84388226  -1.96722383  -2.08610728  -2.20499073  -2.32981835
  -2.46802035  -2.62554092  -2.81129631  -3.03420277  -3.30020448
  -3.61375957  -3.97784013  -4.39244615  -4.85460554  -5.36134624
  -5.905238    -6.47439251  -7.06286557  -7.65431071  -8.23832565
  -8.80004993  -9.32610918  -9.80312901 -10.22070712 -10.5684412
 -10.84038708 -11.0306006  -11.13908174 -11.16880261 -11.12273527
 -11.009796   -10.83890104 -10.61896667 -10.36336725 -10.07953303
  -9.78083837  -9.47322745  -9.16561653  -8.86394978  -8.57565743
  -8.30371154  -8.05108422  -7.82074754  -7.61418755  -7.43437634
  -7.27834181  -7.14905607  -7.04354701  -6.96330068  -6.90385896
  -6.86819392  -6.85184745  -6.85779162  -6.88305435  -6.92763565
  -6.99004946  -7.07178183  -7.16837463  -7.27834181  -7.40019735
  -7.53245518  -7.66917114  -7.81183128  -7.9574635   -8.10458177
  -8.25170003  -8.39584621  -8.53850635  -8.67522231  -8.80302202
  -8.92041942  -9.02295639  -9.10617481  -9.16561653  -9.19830948
  -9.19979552  -9.16710257  -9.10171668  -9.00512388  -8.88029626
  -8.73615008  -8.57862951  -8.41516477  -8.25615816  -8.10606781]",2.3677700991182697,0.8737933330162942,6.0579149999999995,0.7910500000000003
024,1,1,csm,64b.png,1,1,332,39,331,1,1,351,neu_feedback_onset,14,"[-1.3638212  -1.42012575 -1.46391817 -1.48425037 -1.47173825 -1.41386969
 -1.30595264 -1.14173105 -0.92276893 -0.6506303  -0.33313522  0.02189621
  0.40038788  0.78826363  1.17301135  1.5389909   1.87369014  2.16616097
  2.41014733  2.59939316  2.73233445  2.81053521  2.83712346  2.81679127
  2.76048672  2.6760299   2.57436892  2.46332384  2.3554068   2.25687385
  2.17554506  2.11298445  2.07075604  2.0457318   2.03009165  2.01914355
  2.00037536  1.96753105  1.91279052  1.82989771  1.71885264  1.57809128
  1.40917764  1.21836779  1.00878977  0.7851356   0.55522537  0.3206231
  0.08914886 -0.1345053  -0.34721136 -0.54114924 -0.71162689 -0.84926022
 -0.9509212  -1.01035378 -1.02130189 -0.98220151 -0.89461666 -0.76011136
 -0.58337765 -0.37379962 -0.13919735  0.10635303  0.35503144  0.59588977
  0.8164159   1.0119178   1.17613939  1.30595264  1.40135757  1.46391817
  1.50145453  1.5186587   1.52647878  1.53273484  1.549939    1.58121931
  1.63752385  1.71728862  1.82207764  1.94719885  2.08326817  2.22246551
  2.35384279  2.46488786  2.54621665  2.5931371   2.60095718  2.5728049
  2.51493634  2.43517157  2.34602271  2.25530983  2.17867309  2.12080453
  2.08952423  2.08796021  2.11454847  2.16616097  2.23810566  2.32256248
  2.41327536  2.50242422  2.58375301  2.65100566  2.70261816  2.73233445
  2.74171854  2.72920642  2.6963621   2.64631362  2.58062498  2.50555225
  2.42265945  2.33820263  2.25374582  2.17554506  2.10516438  2.04416779
  1.99255529  1.95189089  1.91904658  1.89558635  1.87838218  1.86587006
  1.85804999  1.85022991  1.84397385  1.83458976  1.82520567  1.80956552
  1.7876693   1.75951703  1.72198067  1.67506021  1.61719165  1.549939
  1.47643029  1.39666552  1.31533673  1.23713598  1.16675529  1.11045075
  1.06978636  1.05101817  1.0541462   1.07760643  1.11827082  1.16988332
  1.22618787  1.27936438  1.32002878  1.34505302  1.34661704  1.32784885
  1.28874848  1.23400795  1.17144734  1.10888673  1.0541462   1.01348181
  0.99314961  0.99627764  1.02442992  1.07604242  1.14955113  1.24339204
  1.35130908  1.47017423  1.59842347  1.72823673  1.86117802  1.99255529
  2.1176765   2.23810566  2.34758672  2.44768369  2.53370453  2.60408521
  2.66038975  2.69949013  2.72295036  2.73233445  2.72920642  2.71200225
  2.68697801  2.65413369  2.61503331  2.57124089  2.52432044  2.47583597
  2.42422347  2.37417498  2.32099847  2.26938597  2.21777347  2.16459695
  2.11142044  2.05980794  2.00663142  1.95501892  1.90184241  1.8486659
  1.7970534   1.74387688  1.69226438  1.63908787  1.58591135  1.53429885
  1.48112234  1.42950984  1.37633332  1.32315681  1.27154431  1.21836779
  1.16675529  1.11357878  1.06040226  1.00878977  0.95561325  0.90400075
  0.85082424  0.79764772  0.74603522  0.69285871  0.64124621  0.58806969
  0.53489318  0.48328068  0.43010416  0.37849166  0.32531515  0.27213863
  0.22052613  0.16734962  0.11573712  0.06256061  0.00938409 -0.04222841
 -0.09540492 -0.14701742 -0.20019394 -0.25337045 -0.30498295 -0.35815947
 -0.40977197 -0.46294848 -0.516125   -0.5677375  -0.62091401 -0.67252651
 -0.72570302 -0.77887954 -0.83049204 -0.88366855 -0.93528105 -0.98845757
 -1.04163408 -1.0948106 ]","[-1.09993653e-01 -7.37233443e-02 -3.42990960e-02  3.54818235e-03
  3.66645509e-02  6.34730397e-02  8.23966789e-02  9.02815286e-02
  8.71275887e-02  7.45118292e-02  5.40112201e-02  2.72027313e-02
 -1.18272745e-03 -2.95681862e-02 -5.16457652e-02 -6.58384946e-02
 -6.74154646e-02 -5.63766750e-02 -3.27221261e-02  3.54818235e-03
  5.08572803e-02  1.04474258e-01  1.59668206e-01  2.10131243e-01
  2.51132462e-01  2.77940950e-01  2.85825800e-01  2.73210041e-01
  2.36939732e-01  1.77014875e-01  9.65894083e-02 -5.91363724e-03
 -1.24186382e-01 -2.58228826e-01 -4.03310060e-01 -5.57853113e-01
 -7.18704046e-01 -8.84285889e-01 -1.05302167e+00 -1.22491139e+00
 -1.39680112e+00 -1.56869084e+00 -1.74215753e+00 -1.91562422e+00
 -2.08909092e+00 -2.26255761e+00 -2.43287036e+00 -2.60318311e+00
 -2.76876496e+00 -2.92803892e+00 -3.07942803e+00 -3.21820139e+00
 -3.33962807e+00 -3.43582324e+00 -3.50363294e+00 -3.53359537e+00
 -3.52255658e+00 -3.46420870e+00 -3.36012868e+00 -3.21031654e+00
 -3.02265712e+00 -2.80661223e+00 -2.57637462e+00 -2.34456005e+00
 -2.12693819e+00 -1.93770180e+00 -1.79262057e+00 -1.69800237e+00
 -1.66015509e+00 -1.68380964e+00 -1.76896602e+00 -1.90931634e+00
 -2.10328365e+00 -2.33982914e+00 -2.61422190e+00 -2.91542316e+00
 -3.23554806e+00 -3.56355780e+00 -3.89314452e+00 -4.21484638e+00
 -4.52077855e+00 -4.80463314e+00 -5.06167924e+00 -5.28560897e+00
 -5.47484536e+00 -5.62781144e+00 -5.74293025e+00 -5.82335571e+00
 -5.86908784e+00 -5.88328057e+00 -5.86593390e+00 -5.82335571e+00
 -5.75712298e+00 -5.66881266e+00 -5.56000173e+00 -5.43384414e+00
 -5.29507079e+00 -5.14210470e+00 -4.97967680e+00 -4.81251799e+00
 -4.64062826e+00 -4.46716157e+00 -4.29842579e+00 -4.13126698e+00
 -3.97041604e+00 -3.81587299e+00 -3.66606085e+00 -3.52097961e+00
 -3.38062929e+00 -3.24185594e+00 -3.10781349e+00 -2.97534802e+00
 -2.84919042e+00 -2.73091768e+00 -2.62526069e+00 -2.53379644e+00
 -2.46283279e+00 -2.41236975e+00 -2.38871520e+00 -2.38871520e+00
 -2.41236975e+00 -2.45967885e+00 -2.52433462e+00 -2.60633705e+00
 -2.69937828e+00 -2.80188133e+00 -2.91069225e+00 -3.02423409e+00
 -3.13777592e+00 -3.25447170e+00 -3.37116747e+00 -3.48786325e+00
 -3.60298205e+00 -3.71967783e+00 -3.83637360e+00 -3.95149240e+00
 -4.06661121e+00 -4.18330698e+00 -4.29842579e+00 -4.41354459e+00]",1.3132253120210113,-0.34918056699954536,6.393800000000001,
024,2,1,csm,31b.png,1,0,172,202,173,1,1,373,neu_feedback_onset,1,"[-3.61322446 -3.1843289  -2.73601831 -2.28241272 -1.83410214 -1.40167658
 -0.99219604 -0.61095555 -0.25795509  0.06504033  0.36332572  0.64396109
  0.91577144  1.18581679  1.46645216  1.76120754  2.08067296  2.42484841
  2.8007939   3.20497942  3.63563999  4.08924558  4.56226619  5.04764182
  5.53654746  6.0272181   6.50906373  6.97855434  7.42862993  7.85576048
  8.254651    8.62706649  8.96771193  9.27835234  9.5572227   9.80255802
 10.0161233  10.19791853 10.34617873 10.46090388 10.54562399 10.60210406
 10.6338741  10.64269911 10.6338741  10.61269407 10.58092403 10.54562399
 10.50855894 10.47325889 10.44501885 10.42560383 10.42207382 10.43972385
 10.4803189  10.55091899 10.65681913 10.80154932 10.98510956 11.21102985
 11.4775452  11.78112559 12.11824103 12.48183151 12.86483701 13.26372753
 13.66614805 14.06680357 14.45863408 14.83457957 15.19287504 15.52469547
 15.83180587 16.11244124 16.36483657 16.59075686 16.79373212 16.97376236
 17.13790757 17.28440276 17.42030794 17.54738811 17.66740826 17.78036841
 17.89156355 17.99922869 18.10689383 18.21102897 18.3133991  18.41400423
 18.51107936 18.60285948 18.68757959 18.76170969 18.82171977 18.86407982
 18.88525985 18.87996484 18.8464298  18.78112471 18.68581459 18.56049943
 18.41223923 18.24279901 18.06276878 17.87920854 17.6991783  17.53326809
 17.38500789 17.25969273 17.1573226  17.07789749 17.02141742 16.97905737
 16.95081733 16.9296373  16.91551728 16.90492727 16.89786726 16.89786726
 16.90669227 16.9261073  16.96140734 17.01435741 17.0831925  17.16967761
 17.26851774 17.37441788 17.48208302 17.58268815 17.67093827 17.73800835
 17.78036841 17.79625343 17.78389841 17.74506836 17.68505828 17.60739818
 17.51914807 17.42383794 17.32852782 17.2332177  17.14496758 17.06201247
 16.98611737 16.91551728 16.8484472  16.78490711 16.72313203 16.66312195
 16.60311188 16.5413368  16.48132672 16.41778663 16.35601155 16.29247147
 16.22893139 16.16539131 16.10538123 16.04713615 15.99595108 15.95359103
 15.92358599 15.91123097 15.91652598 15.94653102 15.99771609 16.07361119
 16.17068631 16.28717646 16.41955164 16.56251682 16.71607202 16.87315723
 17.03377244 17.19615265 17.36029786 17.52620808 17.6938833  17.86508852
 18.03982375 18.21808898 18.39988422 18.58520946 18.7705347  18.95232994
 19.12530016 19.28591537 19.42711555 19.5400757  19.6195008  19.65656585
 19.64597584 19.58596576 19.47300561 19.3123904  19.11118014 18.87466983
 18.6205095  18.36281917 18.11748385 17.89862356 17.72388834 17.60563318
 17.54915311 17.56327313 17.64269823 17.78742842 17.98863868 18.235739
 18.51284436 18.81112975 19.11294514 19.40417052 19.67598088 19.91249119
 20.10664144 20.25313663 20.34491675 20.3819818  20.36256677 20.29020168
 20.17018152 20.00956631 19.81188605 19.58949577 19.34769045 19.09529512
 18.83936979 18.58520946 18.33987414 18.10689383 17.88626855 17.67976328
 17.49090803 17.3161728  17.1555576  17.0055324  16.86786222 16.73901705
 16.61546689 16.49721174 16.38072159 16.26599644 16.15303629 16.03831114
 15.92358599 15.80709584 15.69237069 15.57588054 15.45939039 15.34113523
 15.22464508 15.10638993 14.98989977 14.87164462 14.75338947 14.63513431
 14.51687916 14.40038901]","[-6.75378883e-01 -5.93622883e-01 -5.17812774e-01 -4.43489138e-01
 -3.73624920e-01 -3.06733647e-01 -2.39842374e-01 -1.75924047e-01
 -1.13492193e-01 -5.10603382e-02  1.13715164e-02  7.52898436e-02
  1.42181116e-01  2.12045334e-01  2.87855444e-01  3.69611443e-01
  4.57313334e-01  5.49474643e-01  6.46095371e-01  7.39743152e-01
  8.30417989e-01  9.10687516e-01  9.74605843e-01  1.01622708e+00
  1.03109181e+00  1.01176766e+00  9.58254643e-01  8.67579807e-01
  7.41229625e-01  5.80690571e-01  3.90422062e-01  1.74883516e-01
 -6.29521200e-02 -3.17138956e-01 -5.83217574e-01 -8.58215029e-01
 -1.14064485e+00 -1.42604761e+00 -1.71442332e+00 -2.00428550e+00
 -2.29414768e+00 -2.58549634e+00 -2.87684499e+00 -3.16968012e+00
 -3.46102877e+00 -3.75237743e+00 -4.04521255e+00 -4.33656121e+00
 -4.62790986e+00 -4.91925852e+00 -5.21060717e+00 -5.50046935e+00
 -5.79033154e+00 -6.07722077e+00 -6.36262354e+00 -6.64356688e+00
 -6.91856433e+00 -7.18612943e+00 -7.44477568e+00 -7.69153015e+00
 -7.92639284e+00 -8.14936375e+00 -8.36044288e+00 -8.56260317e+00
 -8.76030404e+00 -8.95949139e+00 -9.16908404e+00 -9.39651437e+00
 -9.64772826e+00 -9.93015808e+00 -1.02438038e+01 -1.05916384e+01
 -1.09692025e+01 -1.13690637e+01 -1.17793302e+01 -1.21895966e+01
 -1.25849984e+01 -1.29521571e+01 -1.32762082e+01 -1.35482327e+01
 -1.37563389e+01 -1.38975538e+01 -1.39689045e+01 -1.39703909e+01
 -1.39109320e+01 -1.37949872e+01 -1.36344481e+01 -1.34397202e+01
 -1.32226952e+01 -1.29922919e+01 -1.27589157e+01 -1.25285124e+01
 -1.23055415e+01 -1.20929759e+01 -1.18878427e+01 -1.16901418e+01
 -1.14939274e+01 -1.12947400e+01 -1.10896068e+01 -1.08725818e+01
 -1.06451515e+01 -1.04058294e+01 -1.01546155e+01 -9.89894215e+00
 -9.64029590e+00 -9.38610906e+00 -9.14232753e+00 -8.91638368e+00
 -8.71273692e+00 -8.53584666e+00 -8.38868586e+00 -8.27125452e+00
 -8.18206615e+00 -8.12112077e+00 -8.08395895e+00 -8.06760775e+00
 -8.06760775e+00 -8.08395895e+00 -8.11517488e+00 -8.16422848e+00
 -8.23260623e+00 -8.32476753e+00 -8.44517183e+00 -8.59679204e+00
 -8.78260113e+00 -9.00111262e+00 -9.24935357e+00 -9.51691866e+00
 -9.79488906e+00 -1.00698865e+01 -1.03315057e+01 -1.05663684e+01
 -1.07670422e+01 -1.09275813e+01 -1.10450126e+01 -1.11208227e+01
 -1.11579846e+01 -1.11609575e+01 -1.11342010e+01 -1.10836609e+01]",18.673547822296026,-0.1828733071862651,5.6657150000000005,0.3748249999999995
024,2,1,csm,40b.png,1,1,104,101,104,1,1,296,neu_feedback_onset,2,"[-5.66985608e-01 -4.70647055e-01 -3.59359415e-01 -2.38105718e-01
 -1.08546974e-01  2.59947994e-02  1.62197582e-01  2.90095317e-01
  4.06365985e-01  4.99382520e-01  5.62500882e-01  5.85755016e-01
  5.60839873e-01  4.82772424e-01  3.44908632e-01  1.48909506e-01
 -1.01902936e-01 -3.99223644e-01 -7.33086563e-01 -1.09186462e+00
 -1.45728672e+00 -1.81772580e+00 -2.15823275e+00 -2.46718053e+00
 -2.73294205e+00 -2.95053431e+00 -3.11663526e+00 -3.23290593e+00
 -3.29768530e+00 -3.31761741e+00 -3.29602429e+00 -3.23954997e+00
 -3.15317747e+00 -3.04355084e+00 -2.91233109e+00 -2.76782326e+00
 -2.61334937e+00 -2.45389245e+00 -2.29277453e+00 -2.13331761e+00
 -1.97386069e+00 -1.81772580e+00 -1.65992989e+00 -1.49548994e+00
 -1.31776192e+00 -1.11844078e+00 -8.89221460e-01 -6.23459933e-01
 -3.16173167e-01  3.76218662e-02  4.37925167e-01  8.83075725e-01
  1.36642950e+00  1.88134246e+00  2.41618753e+00  2.96432068e+00
  3.51079282e+00  4.04729891e+00  4.56387288e+00  5.05553170e+00
  5.51729236e+00  5.94583282e+00  6.34281410e+00  6.70657519e+00
  7.04043811e+00  7.34440285e+00  7.62345246e+00  7.87924793e+00
  8.11012825e+00  8.32107647e+00  8.51043156e+00  8.68317655e+00
  8.83765044e+00  8.97883625e+00  9.11005600e+00  9.23463172e+00
  9.35754642e+00  9.47880012e+00  9.60005382e+00  9.72629054e+00
  9.85252727e+00  9.97710298e+00  1.00966957e+01  1.02063223e+01
  1.03059829e+01  1.03890334e+01  1.04554737e+01  1.05069650e+01
  1.05451682e+01  1.05734054e+01  1.05949985e+01  1.06165917e+01
  1.06398458e+01  1.06664219e+01  1.06996421e+01  1.07378454e+01
  1.07777096e+01  1.08159128e+01  1.08474720e+01  1.08690651e+01
  1.08757091e+01  1.08674041e+01  1.08391669e+01  1.07943197e+01
  1.07345233e+01  1.06614389e+01  1.05783884e+01  1.04870329e+01
  1.03923554e+01  1.02893728e+01  1.01830682e+01  1.00667975e+01
  9.94056077e+00  9.79937496e+00  9.64157906e+00  9.46551204e+00
  9.27283494e+00  9.06520874e+00  8.84595548e+00  8.62338020e+00
  8.40080493e+00  8.18985671e+00  7.99551860e+00  7.82111259e+00
  7.67162173e+00  7.54372400e+00  7.43741939e+00  7.34440285e+00
  7.26135238e+00  7.17996291e+00  7.09192940e+00  6.99725186e+00
  6.88928624e+00  6.77301557e+00  6.65010086e+00  6.52552515e+00
  6.40925448e+00  6.30627189e+00  6.22488242e+00  6.17339113e+00
  6.15512002e+00  6.17006911e+00  6.21491636e+00  6.28800078e+00
  6.37769530e+00  6.47569486e+00  6.57037241e+00  6.64843986e+00
  6.70159216e+00  6.71654125e+00  6.68996509e+00  6.61355865e+00
  6.49064395e+00  6.32122097e+00  6.11193377e+00  5.86942638e+00
  5.60698687e+00  5.33624231e+00  5.06881978e+00  4.81302431e+00
  4.58214398e+00  4.38116183e+00  4.21339986e+00  4.08384112e+00
  3.98916357e+00  3.92604521e+00  3.89116401e+00  3.87953694e+00
  3.88285896e+00  3.89448603e+00  3.90943512e+00  3.91774016e+00
  3.91607915e+00  3.89780805e+00  3.85794382e+00  3.79482546e+00
  3.70845296e+00  3.60214835e+00  3.47591162e+00  3.34136985e+00
  3.20184505e+00  3.06896429e+00  2.95103261e+00  2.85635506e+00
  2.79323670e+00  2.76333853e+00  2.76832156e+00  2.80652478e+00
  2.87462617e+00  2.96598169e+00  3.07394731e+00  3.19021798e+00
  3.30981067e+00  3.42774235e+00  3.53736898e+00  3.64035157e+00
  3.73502911e+00  3.81807959e+00  3.89282502e+00  3.95760439e+00
  4.00909569e+00  4.04563790e+00  4.06557001e+00  4.06224799e+00
  4.03567184e+00  3.97919752e+00  3.89282502e+00  3.77489334e+00
  3.62540248e+00  3.44767446e+00  3.24337029e+00  3.01747299e+00
  2.77330459e+00  2.51750912e+00  2.25506961e+00  1.98764707e+00
  1.72022454e+00  1.45446301e+00  1.19534552e+00  9.39550049e-01
  6.92059627e-01  4.52874252e-01  2.21993926e-01  2.74066575e-03
 -2.03224518e-01 -3.94240616e-01 -5.70307627e-01 -7.28103534e-01
 -8.69289345e-01 -9.93865061e-01 -1.10349169e+00 -1.19983024e+00
 -1.28454173e+00 -1.35928716e+00 -1.42904956e+00 -1.49216792e+00
 -1.55196427e+00 -1.61009960e+00 -1.66657393e+00 -1.72138724e+00
 -1.77620056e+00 -1.83101387e+00 -1.88416618e+00 -1.93897949e+00
 -1.99213180e+00 -2.04694511e+00 -2.10009742e+00 -2.15324972e+00
 -2.20474102e+00 -2.25457131e+00 -2.30274058e+00 -2.34924885e+00
 -2.39077409e+00 -2.42731630e+00 -2.45887548e+00 -2.48379062e+00
 -2.50040072e+00 -2.51036678e+00 -2.51036678e+00 -2.50040072e+00]","[ -1.04762977  -1.02573246  -0.98819422  -0.93657914  -0.86932312
  -0.78642617  -0.68632419  -0.56901719  -0.43294106  -0.27809581
  -0.10604553   0.07851749   0.27402917   0.47736131   0.68069346
   0.88246151   1.07640909   1.25784393   1.42520192   1.5737908
   1.69891827   1.79745616   1.86471218   1.90068632   1.89912223
   1.86158399   1.78494341   1.67232868   1.5253039    1.34543316
   1.13740874   0.90592291   0.65566796   0.39133617   0.11449164
  -0.17173746  -0.46109474  -0.7567084   -1.05388615  -1.3510639
  -1.65136983  -1.95167577  -2.25198171  -2.55228764  -2.85259358
  -3.15289952  -3.45320545  -3.75351139  -4.05225323  -4.35255917
  -4.65130101  -4.94847876  -5.24409242  -5.53657789  -5.82593517
  -6.10903608  -6.38588062  -6.65334059  -6.90985191  -7.15385049
  -7.38064403  -7.59179664  -7.78418013  -7.9577945   -8.11263975
  -8.25027997  -8.36915107  -8.47707352  -8.57404731  -8.66632882
  -8.75861033  -8.85714822  -8.96507067  -9.08863405  -9.23096655
  -9.39206817  -9.57663119  -9.77996334  -9.99893642 -10.23042224
 -10.46347216 -10.6933939  -10.90923879 -11.10475046 -11.27367255
 -11.41131277 -11.51610703 -11.58805533 -11.62872176 -11.6427986
 -11.63184995 -11.60213217 -11.55677346 -11.49733791 -11.4285178
 -11.34874904 -11.25646753 -11.15167327 -11.02967398 -10.88577739
 -10.71372711 -10.51039496 -10.27108867  -9.99424414  -9.67986136
  -9.33419671  -8.96507067  -8.58499596  -8.20648536  -7.84674387
  -7.51828425  -7.23361925  -6.99900524  -6.81913449  -6.68931474
  -6.6032896   -6.54854633  -6.51413628  -6.4844185   -6.45000845
  -6.39839336  -6.32331688  -6.2232149   -6.09965152  -5.95419083
  -5.79934558  -5.64137215  -5.49591146  -5.37234808  -5.28475885
  -5.24096423  -5.25034879  -5.31447662  -5.43491182  -5.60696209
  -5.82124289  -6.06836965  -6.33426553  -6.60016141  -6.85198046]",10.289954131221432,0.34918385605333685,6.020434999999999,0.4460449999999989
024,2,1,csm,33b.png,1,1,236,161,237,1,1,316,neu_feedback_onset,3,"[ 4.40394349e-01  6.73025244e-01  8.28647291e-01  9.08864841e-01
  9.20095298e-01  8.67151715e-01  7.62868900e-01  6.16872959e-01
  4.37185647e-01  2.38246123e-01  2.64717915e-02 -1.86906891e-01
 -3.92263819e-01 -5.81577237e-01 -7.46825390e-01 -8.78382172e-01
 -9.68225828e-01 -1.01154331e+00 -1.00512590e+00 -9.48973616e-01
 -8.47899503e-01 -7.09925317e-01 -5.46281515e-01 -3.74615958e-01
 -2.10972156e-01 -7.46023215e-02  1.68456855e-02  4.89327055e-02
  7.21957950e-03 -1.13106745e-01 -3.16859322e-01 -5.97620747e-01
 -9.48973616e-01 -1.35808312e+00 -1.81051010e+00 -2.29021105e+00
 -2.77632941e+00 -3.25282165e+00 -3.70364428e+00 -4.11435814e+00
 -4.47533711e+00 -4.77535075e+00 -5.01279470e+00 -5.18606461e+00
 -5.29676483e+00 -5.35291711e+00 -5.35933452e+00 -5.32403879e+00
 -5.25826040e+00 -5.16681240e+00 -5.05932088e+00 -4.94059890e+00
 -4.81545953e+00 -4.68229839e+00 -4.54592856e+00 -4.40474567e+00
 -4.25874973e+00 -4.10633638e+00 -3.95071434e+00 -3.79188359e+00
 -3.63305284e+00 -3.47582644e+00 -3.32341310e+00 -3.17902151e+00
 -3.04586037e+00 -2.92232535e+00 -2.81483383e+00 -2.72017712e+00
 -2.63995957e+00 -2.57578553e+00 -2.52765500e+00 -2.49877668e+00
 -2.49075493e+00 -2.50679844e+00 -2.54690721e+00 -2.61589431e+00
 -2.71536407e+00 -2.84531650e+00 -3.00254290e+00 -3.18223021e+00
 -3.37956538e+00 -3.58331796e+00 -3.78386183e+00 -3.97157090e+00
 -4.13521470e+00 -4.26195843e+00 -4.34538468e+00 -4.38068041e+00
 -4.36142819e+00 -4.29083675e+00 -4.17051042e+00 -4.00526227e+00
 -3.80471840e+00 -3.57850491e+00 -3.33785226e+00 -3.09559525e+00
 -2.86456871e+00 -2.65921178e+00 -2.49075493e+00 -2.37524166e+00
 -2.32229807e+00 -2.33994593e+00 -2.43781134e+00 -2.61589431e+00
 -2.87419482e+00 -3.20789982e+00 -3.61059193e+00 -4.07264501e+00
 -4.58443298e+00 -5.13151667e+00 -5.70747868e+00 -6.29948420e+00
 -6.89630277e+00 -7.49151699e+00 -8.07229206e+00 -8.63060620e+00
 -9.15522898e+00 -9.63332558e+00 -1.00536655e+01 -1.04082271e+01
 -1.06873842e+01 -1.08911368e+01 -1.10178805e+01 -1.10740328e+01
 -1.10740328e+01 -1.10323197e+01 -1.09681456e+01 -1.08975542e+01
 -1.08414019e+01 -1.08093149e+01 -1.08141279e+01 -1.08574454e+01
 -1.09392673e+01 -1.10531762e+01 -1.11911504e+01 -1.13403550e+01
 -1.14895597e+01 -1.16291382e+01 -1.17478602e+01 -1.18393082e+01
 -1.18986692e+01 -1.19243388e+01 -1.19179214e+01 -1.18826257e+01
 -1.18264734e+01 -1.17526732e+01 -1.16740601e+01 -1.15954469e+01
 -1.15280641e+01 -1.14783292e+01 -1.14526596e+01 -1.14542640e+01
 -1.14847466e+01 -1.15408989e+01 -1.16195121e+01 -1.17093558e+01
 -1.18024081e+01 -1.18874387e+01 -1.19500084e+01 -1.19804911e+01
 -1.19708650e+01 -1.19131083e+01 -1.18072212e+01 -1.16515991e+01
 -1.14510553e+01 -1.12136113e+01 -1.09472890e+01 -1.06617146e+01
 -1.03649096e+01 -1.00648960e+01 -9.76327801e+00 -9.46486872e+00
 -9.16485509e+00 -8.86323710e+00 -8.55359736e+00 -8.23112281e+00
 -7.89420910e+00 -7.54125188e+00 -7.17545985e+00 -6.80004171e+00
 -6.42462358e+00 -6.05883155e+00 -5.71068738e+00 -5.39302589e+00
 -5.11066011e+00 -4.87000746e+00 -4.67106794e+00 -4.50742413e+00
 -4.37426300e+00 -4.25874973e+00 -4.14804951e+00 -4.03253624e+00
 -3.90097946e+00 -3.74856611e+00 -3.57369185e+00 -3.37956538e+00
 -3.17581280e+00 -2.97045588e+00 -2.77953811e+00 -2.61108125e+00
 -2.47631577e+00 -2.38005471e+00 -2.32390242e+00 -2.30465021e+00
 -2.31588067e+00 -2.34636334e+00 -2.38486776e+00 -2.42016348e+00
 -2.44262440e+00 -2.44422875e+00 -2.42016348e+00 -2.37042860e+00
 -2.29341975e+00 -2.19394999e+00 -2.07522802e+00 -1.94206689e+00
 -1.79767530e+00 -1.64526195e+00 -1.49124425e+00 -1.33722656e+00
 -1.18802192e+00 -1.04844338e+00 -9.21699649e-01 -8.15812483e-01
 -7.33990582e-01 -6.77838297e-01 -6.52168681e-01 -6.55377383e-01
 -6.87464403e-01 -7.43616688e-01 -8.17416834e-01 -9.00843086e-01
 -9.90686742e-01 -1.07411299e+00 -1.14791314e+00 -1.20246107e+00
 -1.23775680e+00 -1.24738290e+00 -1.23133939e+00 -1.18962627e+00
 -1.12384788e+00 -1.03560857e+00 -9.26512702e-01 -7.98164622e-01
 -6.48959979e-01 -4.78898773e-01 -2.87981004e-01 -7.46023215e-02
  1.61237275e-01  4.19537786e-01  7.00299211e-01  9.98708497e-01
  1.30834824e+00  1.62600974e+00  1.94206689e+00  2.25010228e+00
  2.54209416e+00  2.80841643e+00  3.04586037e+00  3.24640425e+00]","[ -0.96035718  -0.84306397  -0.71663103  -0.58410494  -0.4454857
  -0.30534316  -0.16824721  -0.04181427   0.07243236   0.16535296
   0.23694751   0.28721603   0.3176818    0.33596126   0.34814757
   0.36338045   0.39079964   0.43802158   0.50809285   0.60101344
   0.71526007   0.84473959   0.97574239   1.10065204   1.20575894
   1.28040008   1.316959     1.30934256   1.25298089   1.15244385
   1.00925474   0.82798342   0.61472304   0.37709005   0.1196543
  -0.15149103  -0.4317761   -0.71967761  -1.01214899  -1.30766694
  -1.60318489  -1.90022613  -2.19726737  -2.4958319   -2.79287314
  -3.0883911   -3.38390905  -3.67638042  -3.96428193  -4.24609029
  -4.5202822   -4.78228781  -5.02906053  -5.25603051  -5.46015116
  -5.6383759   -5.78918145  -5.91561439  -6.019198    -6.10602544
  -6.18828302  -6.27358717  -6.3741242   -6.50360372  -6.66811887
  -6.87680938  -7.13272183  -7.43737952  -7.78621256  -8.17465111
  -8.59355542  -9.03378578  -9.48467915  -9.9370958  -10.38189602
 -10.80841678 -11.20904163 -11.57920072 -11.91280088 -12.20374897
 -12.45052169 -12.65159576 -12.80544789 -12.91360137 -12.97300961
 -12.9882425  -12.96082331 -12.89227533 -12.78716843 -12.64854918
 -12.48098746 -12.28905312 -12.07579274 -11.84882276 -11.60966648
 -11.36746363 -11.12373748 -10.8845812  -10.65304136 -10.43368783
 -10.22956718 -10.04524928  -9.885304    -9.75277791  -9.64919429
  -9.5821696   -9.54865726  -9.55170384  -9.58978605  -9.65985731
  -9.75734777  -9.87768756 -10.0163068  -10.16711236 -10.32401106
 -10.48547963 -10.64390163 -10.79775376 -10.94094287 -11.0688991
 -11.17705257 -11.26235673 -11.32024168 -11.34613759 -11.33852115
 -11.29891565 -11.22732109 -11.12830734 -11.00949085 -10.87544147
 -10.73529893 -10.59363311 -10.45653715 -10.33010422 -10.21281101
 -10.10618082 -10.00869036  -9.91881634  -9.83046562  -9.7405916 ]",0.6897563334620413,0.006435893549568727,6.233050000000001,0.10070999999999941
024,2,1,csp,56a.png,1,1,144,231,145,1,0,215,neg_feedback_onset,4,"[ -1.32290866  -1.28686424  -1.25081981  -1.21007395  -1.15522374
  -1.07843345  -0.97500163  -0.83552538  -0.66000472  -0.44373818
  -0.19299437   0.08595811   0.38214923   0.68460895   0.97923293
   1.25348397   1.49639203   1.70012138   1.8584034    1.97123812
   2.04019267   2.07310279   2.07310279   2.05272986   2.01981973
   1.98064101   1.94146229   1.90698502   1.87720919   1.85056766
   1.82235898   1.78944886   1.74243439   1.67504699   1.58258522
   1.45878046   1.30363273   1.11400772   0.89617404   0.65013168
   0.38058209   0.095361    -0.20239727  -0.50955843  -0.82142104
  -1.13641795  -1.45454916  -1.77111322  -2.08924442  -2.40580848
  -2.72237254  -3.0389366   -3.35550065  -3.67206471  -3.98862877
  -4.30519283  -4.62018973  -4.93518664  -5.25018355  -5.56361331
  -5.87547592  -6.18420424  -6.48979825  -6.78912367  -7.0821805
  -7.36426728  -7.63695117  -7.89709788  -8.14314024  -8.37664541
  -8.59447909  -8.79977558  -8.99410204  -9.17745845  -9.34984481
  -9.51596259  -9.67267747  -9.8215566   -9.96103285 -10.0911062
 -10.2102095  -10.31677562 -10.41080455 -10.49072914 -10.55498224
 -10.60669815 -10.64274257 -10.66468266 -10.67095125 -10.66154836
 -10.63647398 -10.59416096 -10.5377436  -10.46408761 -10.37946157
 -10.28229835 -10.17729938 -10.06759896  -9.9563314   -9.84976528
  -9.74946776  -9.65700598  -9.57708139  -9.51126114  -9.45641093
  -9.41409791  -9.37962064  -9.34984481  -9.32163613  -9.29029316
  -9.25268159  -9.20409997  -9.14454832  -9.06932518  -8.9799977
  -8.87813302  -8.76373116  -8.63679211  -8.50045016  -8.35157103
  -8.19485615  -8.02717123  -7.85008341  -7.66829415  -7.48023629
  -7.29531274  -7.11665777  -6.95210715  -6.81106376  -6.69822904
  -6.62143875  -6.58539433  -6.58852863  -6.6261402   -6.6935276
  -6.77972078  -6.87218256  -6.95524145  -7.0179274   -7.04770323
  -7.03516604  -6.97561438  -6.86591397  -6.70919909  -6.51017119
  -6.27509887  -6.01495217  -5.73913398  -5.45548005  -5.17496041
  -4.90384367  -4.64683126  -4.4101918   -4.19705956  -4.00743455
  -3.84445108  -3.70497484  -3.58900582  -3.49340975  -3.41505231
  -3.35079921  -3.2928147   -3.2348302   -3.17527854  -3.10475685
  -3.02326511  -2.92923618  -2.82110291  -2.70670105  -2.59073204
  -2.48103162  -2.38856984  -2.32118245  -2.28827232  -2.29297377
  -2.33998823  -2.42304712  -2.53901613  -2.67849237  -2.83050581
  -2.98095209  -3.12042833  -3.23953164  -3.33199342  -3.39624652
  -3.42915665  -3.43542524  -3.4213209   -3.39311222  -3.3570678
  -3.31945623  -3.28811325  -3.26617317  -3.25677028  -3.26147173
  -3.28027751  -3.31475478  -3.36176925  -3.41975375  -3.485574
  -3.55766285  -3.63131884  -3.70340769  -3.76766079  -3.82407814
  -3.86795831  -3.89773414  -3.91183848  -3.91027133  -3.89459984
  -3.86639116  -3.82877959  -3.78489942  -3.73788496  -3.69243765
  -3.65012463  -3.61564735  -3.59057297  -3.58117008  -3.58587153
  -3.60937876  -3.65012463  -3.70967628  -3.78646657  -3.8773612
  -3.97765873  -4.08579199  -4.19549241  -4.30205853  -4.40549035
  -4.49951928  -4.58727961  -4.66877135  -4.75026309  -4.83645627
  -4.93518664  -5.0527228   -5.19690049  -5.37398831  -5.58712054
  -5.8394315   -6.13092118  -6.45845528  -6.82046665  -7.21225385
  -7.62598113  -8.06008135  -8.50828591  -8.96746051  -9.4329037
  -9.90461549 -10.37946157 -10.85587481 -11.33385519 -11.81340273
 -12.29138311 -12.77093064 -13.25047818 -13.73002571 -14.20957324]","[ 0.59489086  0.64324329  0.68379694  0.71187255  0.71967133  0.70563353
  0.66507988  0.59801038  0.50442503  0.38588359  0.24394581  0.0817312
 -0.09608096 -0.28949068 -0.49225893 -0.70126621 -0.91495275 -1.13019906
 -1.34856487 -1.56537093 -1.78217698 -1.99742328 -2.21266958 -2.42791589
 -2.64160243 -2.85528898 -3.06897552 -3.28266207 -3.49634861 -3.71003516
 -3.9237217  -4.138968   -4.3542143  -4.57102036 -4.78938617 -5.0108715
 -5.23391658 -5.46164093 -5.69092503 -5.92176889 -6.1541725  -6.38501636
 -6.61118095 -6.83266628 -7.04323331 -7.24288205 -7.428493   -7.59538687
 -7.74668318 -7.87770267 -7.98844533 -8.07891117 -8.14442091 -8.18653432
 -8.20213187 -8.18965383 -8.14910018 -8.08047092 -7.98688557 -7.87146364
 -7.74200391 -7.60630516 -7.4706064  -7.34426618 -7.23664303 -7.15241622
 -7.09626501 -7.07130892 -7.07598818 -7.10406379 -7.15085646 -7.20544792
 -7.26003937 -7.30059302 -7.31775033 -7.30059302 -7.24288205 -7.13681866
 -6.98084308 -6.7718358  -6.51447609 -6.21344322 -5.87809573 -5.51623238
 -5.13877147 -4.75351179 -4.37137162 -3.99547047 -3.63048761 -3.28110231
 -2.94887432 -2.63380365 -2.33433054 -2.05513425 -1.79777454 -1.56381117
 -1.35948316 -1.18946978 -1.05845029 -0.97422348 -0.93990885 -0.95706616
 -1.02569542 -1.14111735 -1.30021244 -1.49518191 -1.71822699 -1.96310866
 -2.21890861 -2.48250734 -2.74766583 -3.0097048  -3.27018402 -3.52442422
 -3.77242539 -4.01730705 -4.2590692  -4.49771184 -4.73323496 -4.96875809
 -5.20272146 -5.43512508 -5.66908845 -5.89993231 -6.13233592 -6.36317978
 -6.59090413 -6.81862848 -7.04167356 -7.26159912 -7.47372591 -7.67649417
 -7.86678438 -8.04303678 -8.20213187 -8.33783063 -8.4516928  -8.53903913
 -8.5998696  -8.63730374]",0.8888476206371603,-0.35084107232172473,6.381015,
024,2,1,csp,50a.png,1,1,352,241,352,1,1,288,pos_feedback_onset,5,"[ 0.16307091  0.07223793 -0.01859505 -0.10428655 -0.1762674  -0.23110995
 -0.26367272 -0.2739557  -0.26195889 -0.22768229 -0.17798123 -0.11285569
 -0.04087484  0.0362475   0.11165601  0.18192304  0.24704857  0.30531879
  0.35844751  0.41329006  0.47327411  0.54696879  0.64294326  0.76633901
  0.92401136  1.12110179  1.35589647  1.62668159  1.92660181  2.25051565
  2.5864263   2.92233694  3.24967844  3.55645398  3.83409442  4.07745825
  4.281404    4.44421784  4.56075827  4.63616678  4.67044338  4.66530189
  4.62759763  4.55733061  4.46135614  4.34481571  4.21113698  4.06546144
  3.90950293  3.74840292  3.58387526  3.41591994  3.24796461  3.08000929
  2.91034014  2.74238481  2.57271566  2.40476033  2.23680501  2.06884969
  1.90260819  1.73465287  1.56841137  1.40388371  1.24278371  1.08682519
  0.93600816  0.79547412  0.66865071  0.56067943  0.47498794  0.41843155
  0.39443794  0.40814858  0.45613581  0.5418273   0.66008156  0.80404327
  0.96514327  1.13481243  1.30276775  1.45872626  1.59583265  1.70723159
  1.78606776  1.82891351  1.83748266  1.81006138  1.75007734  1.66267201
  1.54955925  1.42102201  1.28391562  1.1450954   1.01484434  0.90001774
  0.81089859  0.75262837  0.72692092  0.73891773  0.78347731  0.86059965
  0.96171561  1.07654221  1.1965103   1.31305073  1.41245286  1.4895752
  1.53584861  1.55127308  1.53242095  1.48614754  1.41759435  1.33361669
  1.24449754  1.1622337   1.09368051  1.0474071   1.02855498  1.04226561
  1.08682519  1.1622337   1.26506349  1.39360073  1.54270393  1.71065925
  1.88889755  2.07913266  2.27279544  2.4715997   2.66869013  2.8623529
  3.05087418  3.23254014  3.40906462  3.5804476   3.74840292  3.91464442
  4.08431357  4.25741039  4.43564869  4.61902848  4.80754976  4.99607105
  5.1828785   5.35940297  5.52393063  5.66617851  5.78271894  5.86841043
  5.91639767  5.92496682  5.88897639  5.80842639  5.68674447  5.52564446
