sub,run,cat_cond,trial_type,picture,old,response_old,target_pos,response_pos,dot_resp_loc,cat_corr,TN_corr,TN_rt,feedback_type,trial,SP_timeseries,FB_timeseries,SP_peak_response,FB_peak_response,preStim_bl,anticipation
051,1,2,csp,49b.png,1,0,288,NaN,288,1,1,626,neg_feedback_onset,1,"[ 0.08617816 -0.02270642 -0.10768951 -0.17408255 -0.21922981 -0.24578703
 -0.25375419 -0.24844275 -0.2298527  -0.20063976 -0.16080394 -0.11300095
 -0.0572308   0.00650652  0.08086672  0.16319409  0.25880007  0.36237321
  0.47656923  0.59873242  0.72886278  0.86430458  1.00505782  1.14581106
  1.28922003  1.42466183  1.5574479   1.6796111   1.7911514   1.88675738
  1.96642902  2.02751062  2.06734644  2.08593649  2.08328077  2.05937928
  2.01688773  1.95846186  1.88675738  1.80443001  1.71413548  1.62118522
  1.52823497  1.43262899  1.34233446  1.25735137  1.17236828  1.09535235
  1.02099215  0.95194339  0.88820607  0.8297802   0.77401005  0.72355134
  0.67574835  0.63060108  0.59076526  0.55092944  0.51374933  0.47391351
  0.43142197  0.3862747   0.33847171  0.288013    0.23755429  0.1897513
  0.1525712   0.12601399  0.11804682  0.13132543  0.17116125  0.23489857
  0.32253738  0.43407769  0.56686377  0.71558417  0.87492747  1.04223792
  1.21485982  1.38748173  1.5574479   1.72741408  1.89206882  2.05141211
  2.21075541  2.36478726  2.51616339  2.66222807  2.80829276  2.95170172
  3.08979924  3.22258532  3.34474851  3.45628882  3.55455051  3.63422216
  3.7006152   3.74576246  3.76966396  3.77763112  3.76700824  3.74045102
  3.7006152   3.65281221  3.59969778  3.54392763  3.4908132   3.44566593
  3.40583011  3.37661717  3.35802712  3.35005995  3.35271567  3.36599428
  3.38724005  3.41379727  3.44035449  3.46956742  3.49346892  3.51205897
  3.52533758  3.5279933   3.52002613  3.50143608  3.47222314  3.43238732
  3.38192861  3.32084702  3.25445398  3.18009377  3.10307785  3.02075048
  2.93842311  2.85609574  2.7764241   2.69940817  2.62239225  2.55068777
  2.47898328  2.41259024  2.34354148  2.27449272  2.20013252  2.1231166
  2.03547778  1.94252753  1.83629867  1.71944692  1.59197228  1.45653049
  1.30781008  1.15377823  0.99443494  0.83509164  0.67309263  0.51640506
  0.36768465  0.22693141  0.09945677 -0.01473925 -0.11034523 -0.18736116
 -0.24578703 -0.28562285 -0.3042129  -0.30155718 -0.28031141 -0.24313131
 -0.18470543 -0.11034523 -0.02270642  0.07555528  0.18709558  0.30394733
  0.42611052  0.54827371  0.66512546  0.77135433  0.86164886  0.93069762
  0.97053344  0.98381205  0.96787772  0.92273045  0.85633741  0.77666577
  0.69168268  0.61201103  0.54561799  0.50312645  0.48984784  0.50843789
  0.55624088  0.6332568   0.73682994  0.86164886  0.99974638  1.15377823
  1.31312152  1.47777626  1.64774244  1.82036434  1.99298624  2.16560814
  2.33557432  2.5055405   2.67285096  2.83484997  2.99153754  3.14291367
  3.28366691  3.41379727  3.53596046  3.64750077  3.75107391  3.84667988
  3.93697442  4.03258039  4.13084209  4.23707095  4.35923414  4.49202022
  4.63542918  4.78946103  4.94349288  5.08955757  5.22499937  5.33653967
  5.41886704  5.46932575  5.48526008  5.46667003  5.41621132  5.3391954
  5.24358942  5.13470484  5.01785309  4.90365706  4.79211676  4.68854362
  4.59559336  4.51857744  4.44952868  4.3911028   4.34329981  4.29815255
  4.25300528  4.20254657  4.14146498  4.06976049  3.97681024  3.86261421
  3.72717241  3.5651734   3.38192861  3.18009377  2.96498033  2.74455544
  2.52944199  2.3329186 ]","[-4.77411289e-01 -4.95529365e-01 -5.00705958e-01 -4.92941068e-01
 -4.74822993e-01 -4.41175138e-01 -3.97174098e-01 -3.40231575e-01
 -2.70347569e-01 -1.92698674e-01 -1.02108297e-01 -3.75302992e-03
  1.02367127e-01  2.16252173e-01  3.35313812e-01  4.56963747e-01
  5.83790276e-01  7.08028507e-01  8.32266739e-01  9.53916675e-01
  1.07039002e+00  1.18427506e+00  1.29298352e+00  1.39651538e+00
  1.49487064e+00  1.58804932e+00  1.67605140e+00  1.75887689e+00
  1.83134919e+00  1.89864490e+00  1.95817572e+00  2.00735335e+00
  2.04617780e+00  2.07723736e+00  2.09794373e+00  2.11088521e+00
  2.11606180e+00  2.11347351e+00  2.10570862e+00  2.09276713e+00
  2.07723736e+00  2.05394269e+00  2.02805972e+00  1.99441187e+00
  1.95558742e+00  1.91158638e+00  1.85723215e+00  1.79770133e+00
  1.72781733e+00  1.65275673e+00  1.56993124e+00  1.48192916e+00
  1.38875049e+00  1.29039522e+00  1.18945166e+00  1.08850809e+00
  9.90152826e-01  8.91797559e-01  8.01207181e-01  7.13205100e-01
  6.38144502e-01  5.70848793e-01  5.16494567e-01  4.75081823e-01
  4.49198858e-01  4.36257375e-01  4.36257375e-01  4.51787154e-01
  4.80258416e-01  5.19082863e-01  5.68260497e-01  6.22614723e-01
  6.79557246e-01  7.39088065e-01  7.93442292e-01  8.40031629e-01
  8.76267780e-01  8.96974152e-01  8.99562448e-01  8.86620966e-01
  8.52973111e-01  8.01207181e-01  7.36499769e-01  6.56262578e-01
  5.68260497e-01  4.72493526e-01  3.74138259e-01  2.75782992e-01
  1.77427725e-01  8.68373476e-02  1.42356307e-03 -7.88136284e-02
 -1.51285930e-01 -2.15993343e-01 -2.75524162e-01 -3.29878389e-01
 -3.79056022e-01 -4.25645359e-01 -4.69646400e-01 -5.11059144e-01
 -5.49883591e-01 -5.86119742e-01 -6.22355893e-01 -6.58592044e-01
 -6.89651602e-01 -7.20711160e-01 -7.51770718e-01 -7.82830276e-01
 -8.13889834e-01 -8.47537689e-01 -8.81185543e-01 -9.17421694e-01
 -9.56246142e-01 -9.97658886e-01 -1.04165993e+00 -1.08566097e+00
 -1.13483860e+00 -1.18401623e+00 -1.23060557e+00 -1.27719491e+00
 -1.31860765e+00 -1.35743210e+00 -1.38849166e+00 -1.41696292e+00
 -1.43766929e+00 -1.45319907e+00 -1.46355226e+00 -1.46872885e+00
 -1.47131715e+00 -1.47131715e+00 -1.46872885e+00 -1.46614055e+00
 -1.46096396e+00 -1.45837566e+00 -1.45578737e+00 -1.45319907e+00
 -1.45319907e+00 -1.45061077e+00 -1.44802248e+00 -1.44543418e+00]",4.558147687331273,1.6515272890570754,3.765455,0.02042500000000036
051,1,2,csp,36b.png,1,1,276,268,275,1,1,271,pos_feedback_onset,2,"[ 1.36008978e+00  1.21846943e+00  1.07684908e+00  9.27212484e-01
  7.77575887e-01  6.27939290e-01  4.78302693e-01  3.28666097e-01
  1.81701582e-01  3.47370671e-02 -1.09555366e-01 -2.51175716e-01
 -3.90123985e-01 -5.26400171e-01 -6.57332193e-01 -7.85592133e-01
 -9.08507909e-01 -1.02340744e+00 -1.13029072e+00 -1.22915776e+00
 -1.31733647e+00 -1.40017101e+00 -1.47498931e+00 -1.54179136e+00
 -1.60592133e+00 -1.66470714e+00 -1.72349295e+00 -1.78227875e+00
 -1.84106456e+00 -1.90252245e+00 -1.96130825e+00 -2.02276614e+00
 -2.08422403e+00 -2.14300983e+00 -2.20446772e+00 -2.26325353e+00
 -2.32203933e+00 -2.37815306e+00 -2.43426678e+00 -2.48770842e+00
 -2.54115006e+00 -2.59191962e+00 -2.64268918e+00 -2.68811458e+00
 -2.73353997e+00 -2.77629329e+00 -2.81637452e+00 -2.85378367e+00
 -2.88852074e+00 -2.91791364e+00 -2.94463446e+00 -2.96601112e+00
 -2.98204361e+00 -2.99273194e+00 -2.99807610e+00 -3.00074818e+00
 -2.99807610e+00 -2.98738777e+00 -2.97402736e+00 -2.95799487e+00
 -2.93394613e+00 -2.90455323e+00 -2.86714408e+00 -2.82171868e+00
 -2.76827704e+00 -2.70147499e+00 -2.62131253e+00 -2.52778965e+00
 -2.41823429e+00 -2.29264643e+00 -2.15369816e+00 -2.00138948e+00
 -1.83839248e+00 -1.67005130e+00 -1.49903805e+00 -1.32802480e+00
 -1.15968363e+00 -9.96686618e-01 -8.39033775e-01 -6.94741342e-01
 -5.55793074e-01 -4.30205216e-01 -3.09961522e-01 -2.00406156e-01
 -9.61949551e-02  0.00000000e+00  9.08507909e-02  1.79029500e-01
  2.59191962e-01  3.36682343e-01  4.08828559e-01  4.72958529e-01
  5.31744335e-01  5.82513895e-01  6.22595126e-01  6.54660111e-01
  6.76036768e-01  6.84053014e-01  6.81380932e-01  6.65348440e-01
  6.35955537e-01  5.98546387e-01  5.47776828e-01  4.86318940e-01
  4.16844805e-01  3.42026507e-01  2.61864044e-01  1.81701582e-01
  1.06883283e-01  3.74091492e-02 -2.13766567e-02 -6.68020522e-02
 -9.88670372e-02 -1.17571612e-01 -1.20243694e-01 -1.09555366e-01
 -9.08507909e-02 -6.68020522e-02 -4.27533134e-02 -2.13766567e-02
 -5.34416417e-03 -2.67208209e-03 -1.33604104e-02 -3.74091492e-02
 -7.48182984e-02 -1.22915776e-01 -1.81701582e-01 -2.45831552e-01
 -3.09961522e-01 -3.74091492e-01 -4.30205216e-01 -4.78302693e-01
 -5.15711843e-01 -5.37088499e-01 -5.42432664e-01 -5.34416417e-01
 -5.07695596e-01 -4.64942283e-01 -4.08828559e-01 -3.39354425e-01
 -2.53847798e-01 -1.60324925e-01 -5.34416417e-02  6.14578880e-02
  1.84373664e-01  3.15305686e-01  4.54253955e-01  5.98546387e-01
  7.50855066e-01  9.05835827e-01  1.06616075e+00  1.22648568e+00
  1.38413852e+00  1.53644720e+00  1.68341171e+00  1.81968790e+00
  1.93993159e+00  2.04681488e+00  2.13766567e+00  2.20981189e+00
  2.26325353e+00  2.30333476e+00  2.32738350e+00  2.33807183e+00
  2.34074391e+00  2.33807183e+00  2.32738350e+00  2.31402309e+00
  2.29799059e+00  2.28463018e+00  2.26859769e+00  2.25523728e+00
  2.24722103e+00  2.23920479e+00  2.23653271e+00  2.23653271e+00
  2.24454895e+00  2.26058145e+00  2.28463018e+00  2.31936725e+00
  2.36479265e+00  2.42090637e+00  2.48770842e+00  2.56787088e+00
  2.65872168e+00  2.76026080e+00  2.87248824e+00  2.99273194e+00
  3.12099188e+00  3.25459598e+00  3.39087217e+00  3.53249252e+00
  3.67411287e+00  3.81840530e+00  3.96269773e+00  4.10699017e+00
  4.25128260e+00  4.39290295e+00  4.53185122e+00  4.66812740e+00
  4.79905943e+00  4.92464729e+00  5.04221890e+00  5.15177426e+00
  5.25331338e+00  5.34683625e+00  5.43234288e+00  5.50716118e+00
  5.57663531e+00  5.64076528e+00  5.69687901e+00  5.75299273e+00
  5.80376229e+00  5.85185977e+00  5.89995725e+00  5.94271056e+00
  5.98279179e+00  6.01752886e+00  6.04424968e+00  6.06028217e+00
  6.06829842e+00  6.06295425e+00  6.04424968e+00  6.01218469e+00
  5.96408722e+00  5.89995725e+00  5.82246687e+00  5.72894399e+00
  5.61938863e+00  5.49647285e+00  5.36286875e+00  5.21590423e+00
  5.05825139e+00  4.89525438e+00  4.72424113e+00  4.54788371e+00
  4.37152629e+00  4.20051304e+00  4.03217187e+00  3.87986319e+00
  3.74091492e+00  3.62067123e+00  3.52447627e+00  3.45500214e+00
  3.40690466e+00  3.38285592e+00  3.38018384e+00  3.39621633e+00
  3.42560923e+00  3.46569047e+00  3.51378794e+00  3.56722959e+00
  3.62067123e+00  3.67144079e+00  3.71953826e+00  3.76229158e+00
  3.80237281e+00  3.83710988e+00  3.86650278e+00  3.89055152e+00]","[-0.78726035 -0.76957762 -0.74179048 -0.70389892 -0.65590294 -0.59275033
 -0.51444111 -0.42350136 -0.31740498 -0.20120419 -0.07489899  0.05898453
  0.20044636  0.3469604   0.49600055  0.64504069  0.79408083  0.94059487
  1.0820567   1.21846633  1.34729764  1.46097232  1.55949038  1.63527351
  1.68579559  1.70600442  1.68832169  1.6327474   1.53675545  1.39781972
  1.21846633  0.99869527  0.74861096  0.47326561  0.17771143 -0.12542107
 -0.42602746 -0.71905554 -0.98934868 -1.23438078 -1.44404743 -1.61834861
 -1.75475823 -1.8583285  -1.93663773 -1.99726423 -2.05031242 -2.1033606
 -2.16903931 -2.24987464 -2.3458666  -2.45448908 -2.57068987 -2.68436455
 -2.78793482 -2.87129626 -2.92687055 -2.95465769 -2.94960549 -2.91171392
 -2.84603522 -2.75509547 -2.64394689 -2.52016778 -2.38881037 -2.25492685
 -2.11851723 -1.98715981 -1.86085461 -1.74465382 -1.63603134 -1.53751328
 -1.44909963 -1.37079041 -1.3051117  -1.25206351 -1.21164585 -1.1863848
 -1.17880649 -1.19143701 -1.22427637 -1.27732455 -1.35058157 -1.44152132
 -1.54761769 -1.66381848 -1.78759759 -1.91390279 -2.03515579 -2.15388269
 -2.26503127 -2.37365374 -2.47722401 -2.58584649 -2.69952118 -2.82330028
 -2.96728821 -3.13148498 -3.325995   -3.54576606 -3.80090258 -4.08635234
 -4.40464146 -4.74819163 -5.11952893 -5.50854897 -5.90767342 -6.30932398
 -6.69834401 -7.06462911 -7.39302265 -7.67342021 -7.89066516 -8.0371792
 -8.11296232 -8.11296232 -8.04728362 -7.92350451 -7.75678164 -7.55974552
 -7.34755277 -7.13283392 -6.92569338 -6.72865726 -6.54930387 -6.3851071
 -6.23606696 -6.09965733 -5.97587823 -5.86472965 -5.76621159 -5.68032405
 -5.60959313 -5.55907105 -5.5287578  -5.52370559 -5.54644053 -5.59696261
 -5.68032405 -5.79399873]",5.418381252672083,0.2704825995632175,3.7424,0.009079999999999977
051,1,2,csm,60a.png,1,1,104,109,101,1,1,474,neu_feedback_onset,3,"[-2.52792483e-01 -1.79176367e-01 -1.10818545e-01 -4.50898708e-02
  1.27513629e-02  6.53343026e-02  1.10029801e-01  1.44208712e-01
  1.67871035e-01  1.81016770e-01  1.83645917e-01  1.70500182e-01
  1.46837859e-01  1.07400654e-01  6.00760086e-02 -3.94372048e-04
 -7.13813407e-02 -1.47626603e-01 -2.29130160e-01 -3.13262863e-01
 -4.00024714e-01 -4.86786565e-01 -5.70919268e-01 -6.52422825e-01
 -7.33926381e-01 -8.12800791e-01 -8.89046053e-01 -9.67920463e-01
 -1.04942402e+00 -1.13355672e+00 -1.22294772e+00 -1.32022616e+00
 -1.42276289e+00 -1.53318707e+00 -1.64624039e+00 -1.76192285e+00
 -1.87760532e+00 -1.99065864e+00 -2.09582452e+00 -2.18784466e+00
 -2.26934822e+00 -2.33507690e+00 -2.38503069e+00 -2.42183875e+00
 -2.44287192e+00 -2.45075936e+00 -2.45075936e+00 -2.44024278e+00
 -2.42446789e+00 -2.40343472e+00 -2.37977239e+00 -2.35348092e+00
 -2.32718946e+00 -2.29826884e+00 -2.26934822e+00 -2.24042760e+00
 -2.21150699e+00 -2.18258637e+00 -2.15366575e+00 -2.12211599e+00
 -2.09319537e+00 -2.06164561e+00 -2.03009585e+00 -1.99854608e+00
 -1.96436717e+00 -1.92492997e+00 -1.88286361e+00 -1.83290982e+00
 -1.77769773e+00 -1.70933991e+00 -1.63046550e+00 -1.53581621e+00
 -1.42802119e+00 -1.30182213e+00 -1.16510649e+00 -1.01261596e+00
 -8.54867143e-01 -6.91860029e-01 -5.28852916e-01 -3.76362391e-01
 -2.37017601e-01 -1.21335133e-01 -2.93149889e-02  2.85262448e-02
  5.21885677e-02  3.90428327e-02 -1.09109600e-02 -9.76728105e-02
 -2.13355278e-01 -3.55329215e-01 -5.15707181e-01 -6.86601735e-01
 -8.62754584e-01 -1.03101999e+00 -1.18876881e+00 -1.32548445e+00
 -1.43590863e+00 -1.52004133e+00 -1.56999512e+00 -1.58839915e+00
 -1.57788256e+00 -1.53844536e+00 -1.47271668e+00 -1.38595483e+00
 -1.28078895e+00 -1.16510649e+00 -1.03890743e+00 -9.10079229e-01
 -7.75992733e-01 -6.39277090e-01 -5.07819740e-01 -3.73733244e-01
 -2.44905042e-01 -1.16076839e-01  1.27513629e-02  1.38950418e-01
  2.62520327e-01  3.88719382e-01  5.17547584e-01  6.46375787e-01
  7.77833136e-01  9.11919632e-01  1.05126442e+00  1.19060921e+00
  1.33521230e+00  1.47718623e+00  1.61916017e+00  1.75850496e+00
  1.88996231e+00  2.01616137e+00  2.13447298e+00  2.23963886e+00
  2.33691730e+00  2.42105000e+00  2.49729527e+00  2.56565309e+00
  2.62875261e+00  2.68659385e+00  2.74180593e+00  2.79701802e+00
  2.84960096e+00  2.90218390e+00  2.95213769e+00  2.99946234e+00
  3.03889954e+00  3.07044931e+00  3.08622419e+00  3.08622419e+00
  3.06519101e+00  3.01523722e+00  2.93636281e+00  2.82068034e+00
  2.66818982e+00  2.47363294e+00  2.23700971e+00  1.96357843e+00
  1.65070994e+00  1.30892083e+00  9.40840249e-01  5.56984789e-01
  1.62612741e-01 -2.29130160e-01 -6.10356473e-01 -9.78437051e-01
 -1.32548445e+00 -1.64624039e+00 -1.94333400e+00 -2.21150699e+00
 -2.45338851e+00 -2.67423686e+00 -2.87405203e+00 -3.05546317e+00
 -3.21847028e+00 -3.36833166e+00 -3.50241816e+00 -3.62598807e+00
 -3.73641224e+00 -3.83106153e+00 -3.91519423e+00 -3.98618120e+00
 -4.04402244e+00 -4.08608879e+00 -4.11763855e+00 -4.13867173e+00
 -4.14655917e+00 -4.14393002e+00 -4.13078429e+00 -4.10712196e+00
 -4.07294305e+00 -4.03087670e+00 -3.97566462e+00 -3.90993594e+00
 -3.83369068e+00 -3.74429968e+00 -3.64702124e+00 -3.53659707e+00
 -3.41565631e+00 -3.28682811e+00 -3.14748331e+00 -2.99762194e+00
 -2.84250226e+00 -2.67686600e+00 -2.50071316e+00 -2.31930201e+00
 -2.12737428e+00 -1.92492997e+00 -1.71722735e+00 -1.49900815e+00
 -1.28078895e+00 -1.05731146e+00 -8.36463114e-01 -6.20873061e-01
 -4.13170449e-01 -2.18613572e-01 -4.24607238e-02  1.12658948e-01
  2.44116298e-01  3.41394736e-01  4.07123411e-01  4.36044028e-01
  4.20269146e-01  3.59798765e-01  2.49374592e-01  8.89966255e-02
 -1.21335133e-01 -3.81620685e-01 -6.86601735e-01 -1.03890743e+00
 -1.42539204e+00 -1.84342641e+00 -2.28249396e+00 -2.73733638e+00
 -3.19480796e+00 -3.64965039e+00 -4.09134708e+00 -4.51463975e+00
 -4.91164094e+00 -5.27709237e+00 -5.60836489e+00 -5.90020021e+00
 -6.15259832e+00 -6.36293008e+00 -6.53645378e+00 -6.67054028e+00
 -6.76781872e+00 -6.83091824e+00 -6.86246801e+00 -6.86509715e+00
 -6.84669312e+00 -6.80462677e+00 -6.74415639e+00 -6.67316942e+00
 -6.58903672e+00 -6.49701658e+00 -6.39973814e+00 -6.30245970e+00
 -6.20518126e+00 -6.11053197e+00 -6.02377012e+00 -5.94226656e+00]","[-1.46435674 -1.50539046 -1.51086163 -1.47803465 -1.40690953 -1.30022186
 -1.15523604 -0.97468766 -0.75857673 -0.5123744  -0.23881626  0.05936212
  0.37395398  0.70222375  1.03870027  1.37517679  1.70891772  2.03718749
  2.35451494  2.6554289   2.93992937  3.20528077  3.44874751  3.67032961
  3.86729147  4.0396331   4.18461892  4.30224892  4.38978753  4.4527059
  4.48553288  4.49100404  4.47459055  4.43355683  4.37063846  4.29404218
  4.20376799  4.10528706  3.99859938  3.88917612  3.77975287  3.67306519
  3.57184868  3.48157449  3.40497821  3.34205984  3.29555495  3.27093472
  3.26819914  3.28734821  3.32564635  3.38582914  3.46242542  3.55817077
  3.66485845  3.78248845  3.91106078  4.04510427  4.18461892  4.32960474
  4.47459055  4.62231195  4.77003335  4.91501916  5.05453382  5.18310614
  5.29526498  5.38827475  5.45119312  5.48128452  5.47307778  5.42383731
  5.33082754  5.19951963  5.03812033  4.85210079  4.65513893  4.46091264
  4.28583543  4.13811404  4.02869078  3.96577241  3.94935892  3.97945031
  4.04510427  4.14084962  4.25574404  4.37610962  4.49373962  4.6004273
  4.6879659   4.75635544  4.80286032  4.83021614  4.83842288  4.8356873
  4.81927381  4.80012474  4.77276893  4.74541311  4.7180573   4.69070149
  4.66608125  4.64693218  4.63051869  4.62231195  4.62231195  4.63051869
  4.64966776  4.674288    4.70985056  4.75361986  4.80012474  4.85210079
  4.90134126  4.95058172  4.99161544  5.027178    5.05453382  5.0709473
  5.07641847  5.0709473   5.05453382  5.02991358  4.99161544  4.94237498
  4.88219219  4.80833149  4.72352846  4.62504753  4.51288869  4.38978753
  4.25300846  4.10528706  3.94935892  3.78795961  3.61835356  3.44874751
  3.27914147  3.112271  ]",1.9332117791043288,4.4416267955672595,3.803515,-0.1316449999999998
051,1,2,csp,1b.png,1,1,80,113,81,1,1,243,pos_feedback_onset,4,"[-0.67728486 -0.63743676 -0.5869625  -0.52851862 -0.46476166 -0.39303508
 -0.31599543 -0.23629923 -0.15394649 -0.06628067  0.02138515  0.10905096
  0.19937332  0.28703914  0.37204842  0.4570577   0.53941043  0.61645009
  0.69348975  0.76521633  0.83428637  0.89804333  0.95383066  1.00430492
  1.04415302  1.0760315   1.0893142   1.0893142   1.07337496  1.0361834
  0.9830526   0.91132603  0.82366021  0.72005515  0.60582393  0.4836231
  0.35876572  0.2312518   0.10373788 -0.02111949 -0.14066379 -0.25755155
 -0.36646968 -0.47007474 -0.56836672 -0.66134562 -0.75432451 -0.84464687
 -0.93231269 -1.01997851 -1.10498779 -1.18999706 -1.27500634 -1.35470254
 -1.42908566 -1.49284262 -1.54331688 -1.57519536 -1.58582152 -1.5645692
 -1.5114384  -1.42377258 -1.2989152  -1.13686627 -0.94028231 -0.71713296
 -0.47007474 -0.21239037  0.05326363  0.310948    0.55800621  0.78115557
  0.98039606  1.14510154  1.27792854  1.37090743  1.43200785  1.45591671
  1.44529055  1.40012937  1.3284028   1.22745428  1.10525344  0.9697699
  0.82366021  0.68552013  0.55800621  0.4570577   0.39330074  0.3773615
  0.41189652  0.50487541  0.65098511  0.85022561  1.0893142   1.36293781
  1.65250067  1.9473766   2.23693945  2.50524999  2.74699512  2.95686178
  3.12953687  3.26502041  3.36596893  3.4376955   3.4775436   3.49348284
  3.48816976  3.4642609   3.41909973  3.35799931  3.27564657  3.17735459
  3.06046683  2.92763984  2.78418668  2.6327639   2.48134113  2.33523143
  2.20506097  2.09614284  2.0137901   1.96331584  1.9473766   1.96331584
  2.00582048  2.07489052  2.15724326  2.25287869  2.35117067  2.44680611
  2.53181539  2.60885504  2.66995546  2.71777318  2.74965166  2.7655909
  2.76824744  2.75496474  2.72839934  2.6858947   2.6327639   2.56369387
  2.47868459  2.38304915  2.26881793  2.14396056  2.0005074   1.84377154
  1.66843991  1.47982557  1.26995892  1.04415302  0.80240789  0.54472351
  0.2710999  -0.01314987 -0.30802581 -0.60555828 -0.90309075 -1.19796668
 -1.484873   -1.76115315 -2.0241506  -2.27120882 -2.50498433 -2.72282061
 -2.92737418 -3.1213016  -3.30725939 -3.48790411 -3.66323575 -3.83856738
 -4.01389902 -4.19188719 -4.37253191 -4.55583316 -4.73913442 -4.92509222
 -5.11105001 -5.29700781 -5.47765252 -5.6556407  -5.82831579 -5.99567781
 -6.15507021 -6.30649298 -6.45260268 -6.59074276 -6.71825667 -6.83780097
 -6.94140603 -7.02907184 -7.0928288  -7.12736382 -7.13002036 -7.09548534
 -7.01578915 -6.89358831 -6.72888283 -6.52432926 -6.28258412 -6.00896051
 -5.7087715  -5.39264324 -5.06057575 -4.72053864 -4.37518845 -4.02718172
 -3.67651845 -3.33116825 -2.98316152 -2.63781133 -2.29246114 -1.94445441
 -1.59644767 -1.2457844  -0.89246459 -0.54180132 -0.19379459  0.14358598
  0.46237078  0.75724671  1.01758762  1.23808044  1.41075553  1.53029983
  1.59405679  1.60202641  1.55952177  1.46654287  1.33105934  1.16104078
  0.96445682  0.74927709  0.52347119  0.29500876  0.06920287 -0.14597687
 -0.35053044 -0.53648824 -0.70385026 -0.84995995 -0.97481733 -1.07842239
 -1.15811859 -1.219219   -1.2590671  -1.28031942 -1.28828904 -1.27766288
 -1.25375402 -1.21656246 -1.17140128 -1.11295741 -1.04388737 -0.96419117
 -0.87652535 -0.78088991]","[-1.04432631e+00 -9.69722383e-01 -8.82255714e-01 -7.89643946e-01
 -6.89314531e-01 -5.83840018e-01 -4.73220407e-01 -3.60028247e-01
 -2.41690988e-01 -1.18208631e-01  7.84627476e-03  1.39046279e-01
  2.72818832e-01  4.09163934e-01  5.50654135e-01  6.89571786e-01
  8.25916889e-01  9.59689442e-01  1.08831690e+00  1.20922670e+00
  1.31727377e+00  1.41245808e+00  1.49220711e+00  1.55652083e+00
  1.60282672e+00  1.63369731e+00  1.64398750e+00  1.63884240e+00
  1.61826201e+00  1.58224632e+00  1.53594044e+00  1.48191691e+00
  1.41760318e+00  1.34814436e+00  1.27354043e+00  1.19893651e+00
  1.12176004e+00  1.04201101e+00  9.62261991e-01  8.82512969e-01
  8.02763947e-01  7.23014925e-01  6.40693353e-01  5.60944331e-01
  4.78622760e-01  3.96301189e-01  3.16552167e-01  2.36803145e-01
  1.57054123e-01  7.73051005e-02 -2.44392165e-03 -8.21929438e-02
 -1.67087064e-01 -2.57126283e-01 -3.52310599e-01 -4.52640014e-01
 -5.60687076e-01 -6.71306688e-01 -7.81926299e-01 -8.89973361e-01
 -9.90302776e-01 -1.07776945e+00 -1.14722827e+00 -1.19867925e+00
 -1.22954984e+00 -1.23984004e+00 -1.22954984e+00 -1.20639690e+00
 -1.16523611e+00 -1.11893023e+00 -1.06233415e+00 -1.00316552e+00
 -9.46569441e-01 -8.87400812e-01 -8.35949830e-01 -7.87071397e-01
 -7.43338063e-01 -7.07322375e-01 -6.76451786e-01 -6.50726295e-01
 -6.30145902e-01 -6.14710608e-01 -6.04420411e-01 -5.96702764e-01
 -5.94130215e-01 -5.96702764e-01 -6.04420411e-01 -6.19855706e-01
 -6.45581197e-01 -6.84169433e-01 -7.38192964e-01 -8.07651790e-01
 -8.95118459e-01 -9.98020423e-01 -1.12150278e+00 -1.26299298e+00
 -1.41734593e+00 -1.58456162e+00 -1.76206751e+00 -1.94729104e+00
 -2.13251458e+00 -2.31773811e+00 -2.49267145e+00 -2.65731459e+00
 -2.80137734e+00 -2.91714205e+00 -2.99946362e+00 -3.03805186e+00
 -3.02776166e+00 -2.96344794e+00 -2.84768323e+00 -2.68046754e+00
 -2.46951851e+00 -2.22255380e+00 -1.95243614e+00 -1.67460084e+00
 -1.40191063e+00 -1.14980082e+00 -9.25989049e-01 -7.43338063e-01
 -6.04420411e-01 -5.14381193e-01 -4.70647858e-01 -4.75792956e-01
 -5.27243938e-01 -6.22428255e-01 -7.56200808e-01 -9.23416500e-01
 -1.12407533e+00 -1.34788710e+00 -1.59227927e+00 -1.84696163e+00
 -2.11193418e+00 -2.37433419e+00 -2.63158910e+00 -2.87598127e+00
 -3.10493814e+00 -3.31588716e+00 -3.49853815e+00 -3.65803619e+00]",2.2728027426118373,0.9081098324112726,3.7642949999999997,0.02294999999999936
051,1,2,csp,63b.png,1,1,52,153,53,1,1,460,pos_feedback_onset,5,"[-0.93765826 -0.90894378 -0.86978767 -0.81757953 -0.74970894 -0.66878632
 -0.57220125 -0.45995374 -0.3346542  -0.19630262 -0.05011982  0.10389421
  0.26312904  0.42497429  0.58681953  0.74344396  0.90006839  1.04625119
  1.18460277  1.31251273  1.42737064  1.52656611  1.60748874  1.67013851
  1.70929462  1.72495706  1.71451543  1.68058014  1.61793036  1.53178693
  1.42476023  1.29685028  1.1558883   1.00187427  0.84002903  0.67557338
  0.51111772  0.34927248  0.19264805  0.04124443 -0.10493837 -0.24328995
 -0.37903112 -0.50955148 -0.64007184 -0.76537138 -0.88806052 -1.01336006
 -1.1360492  -1.25612793 -1.37881707 -1.4988958  -1.61897453 -1.73905326
 -1.85913199 -1.97660031 -2.08884782 -2.19848492 -2.3002908  -2.39165505
 -2.46735686 -2.52739622 -2.56655233 -2.58221477 -2.56655233 -2.52478582
 -2.45430482 -2.35771976 -2.24025143 -2.10973108 -1.96876909 -1.83041751
 -1.69728674 -1.57459761 -1.47279173 -1.38664829 -1.32399852 -1.2796216
 -1.25351752 -1.24307589 -1.24307589 -1.25612793 -1.27440078 -1.29789445
 -1.32660892 -1.35793381 -1.3918691  -1.4284148  -1.46757091 -1.51194783
 -1.55632476 -1.60592249 -1.66074104 -1.71555959 -1.77037814 -1.8278071
 -1.88262565 -1.93222339 -1.97660031 -2.01575642 -2.0444709  -2.06796456
 -2.083627   -2.08884782 -2.08884782 -2.0810166  -2.06796456 -2.04969171
 -2.02880845 -2.00531479 -1.98182112 -1.95832746 -1.94005461 -1.92178176
 -1.91134013 -1.90872972 -1.91134013 -1.92439217 -1.94527542 -1.9713795
 -2.00531479 -2.0470813  -2.09145823 -2.14105596 -2.19326411 -2.24808266
 -2.30551161 -2.36555098 -2.42559034 -2.48562971 -2.54044826 -2.590046
 -2.6265917  -2.64747495 -2.65008536 -2.6292021  -2.58743559 -2.51695459
 -2.42559034 -2.31334284 -2.18543288 -2.0444709  -1.89828809 -1.74949489
 -1.60592249 -1.46757091 -1.33966096 -1.22480304 -1.12299717 -1.03163291
 -0.95071029 -0.87761889 -0.81496912 -0.75492975 -0.7001112  -0.64790306
 -0.60091573 -0.55653881 -0.5173827  -0.48605782 -0.46256415 -0.45212252
 -0.44951211 -0.46256415 -0.49127863 -0.53304514 -0.59308451 -0.66878632
 -0.76276098 -0.87239808 -1.00030803 -1.14127002 -1.30050485 -1.47018132
 -1.65029941 -1.84085914 -2.03925008 -2.24286184 -2.44908401 -2.65530617
 -2.86152834 -3.0651401  -3.26092064 -3.44886995 -3.62898805 -3.79605411
 -3.94484732 -4.08058849 -4.192836   -4.28681066 -4.35990206 -4.40949979
 -4.43560387 -4.44604549 -4.43560387 -4.4121102  -4.3755645  -4.33118758
 -4.28158984 -4.2293817  -4.17456315 -4.122355   -4.07014686 -4.02054913
 -3.97095139 -3.92396406 -3.87958714 -3.83521022 -3.79083329 -3.74384597
 -3.69685864 -3.6472609  -3.58983194 -3.52979258 -3.45931158 -3.37838896
 -3.2818039  -3.17216679 -3.04425684 -2.90068445 -2.73361839 -2.55088989
 -2.34988854 -2.13322474 -1.90611932 -1.67118267 -1.43624603 -1.20653019
 -0.98464559 -0.78103383 -0.60091573 -0.4442913  -0.32160216 -0.23023791
 -0.17280895 -0.14931529 -0.1545361  -0.1910818  -0.25112117 -0.33204379
 -0.42601845 -0.53043474 -0.63746143 -0.74970894 -0.85673563 -0.95854151
 -1.05251617 -1.13865961 -1.21175101 -1.27701119 -1.33182974 -1.37620666
 -1.41536277 -1.44407725 -1.46757091 -1.48584376 -1.5015062  -1.50933743
 -1.51194783 -1.50933743]","[-0.70959195 -0.64401044 -0.57842893 -0.51022416 -0.44464265 -0.37906114
 -0.31347962 -0.24789811 -0.17707008 -0.10361879 -0.02229771  0.06164662
  0.15346074  0.25052137  0.35020527  0.45251243  0.56006611  0.66499652
  0.76730368  0.86961084  0.97454126  1.07947168  1.18964861  1.30769533
  1.4362351   1.57789116  1.73528679  1.90579872  2.08680369  2.27305518
  2.46455319  2.64818142  2.82131661  2.97084246  3.0941357   3.18332656
  3.23316851  3.24366155  3.21480568  3.14397765  3.03904723  2.90526095
  2.74524206  2.56948361  2.38585538  2.19698063  2.0133524   1.83759395
  1.67232854  1.52280269  1.38376989  1.26047665  1.14767645  1.04799255
  0.95617843  0.8722341   0.79878281  0.7332013   0.67811283  0.63089414
  0.59679175  0.57318241  0.56006611  0.56006611  0.57055915  0.59154523
  0.6204011   0.65712674  0.69909891  0.74369434  0.79353629  0.8460015
  0.8984667   0.95093191  1.00339712  1.05061581  1.09521124  1.13456014
  1.16603927  1.18964861  1.20538818  1.2106347   1.20801144  1.19489514
  1.17653231  1.15029971  1.11882058  1.0847182   1.04799255  1.01651342
  0.98765756  0.96142496  0.94306213  0.92994583  0.92469931  0.92207605
  0.92469931  0.93256909  0.93781561  0.94830865  0.95617843  0.96142496
  0.96929474  0.971918    0.97716452  0.97978778  0.97978778  0.98241104
  0.98241104  0.98241104  0.97978778  0.97716452  0.97454126  0.96667148
  0.95617843  0.94306213  0.91945279  0.88797366  0.84337823  0.7856665
  0.70696869  0.60990805  0.49186133  0.35020527  0.19018638  0.00655815
 -0.19280964 -0.40267048 -0.6204011  -0.83813171 -1.05323907 -1.25523013
 -1.44148162 -1.60674703 -1.74840309 -1.86382655 -1.95564067 -2.01859892
 -2.06057108 -2.07893391]",0.6526670530069253,1.9560341548510245,3.83082,0.03310999999999931
051,1,2,csp,56b.png,1,1,136,226,135,1,1,601,neg_feedback_onset,6,"[ 1.02975692  0.93709336  0.82854461  0.70675822  0.56908664  0.42612
  0.27785831  0.13224414 -0.00807497 -0.13780395 -0.25429529 -0.35490144
 -0.43432735 -0.49522055 -0.53758103 -0.55876127 -0.56405633 -0.55081868
 -0.52434338 -0.48727795 -0.43697488 -0.38137674 -0.31783601 -0.24900023
 -0.18016444 -0.11132865 -0.04249286  0.01840034  0.07399847  0.11900649
  0.15077685  0.16930956  0.17195709  0.15342438  0.11371143  0.05281823
 -0.02925521 -0.13250889 -0.25429529 -0.39196686 -0.54287609 -0.70172791
 -0.86322726 -1.02472661 -1.18357843 -1.33448766 -1.47480676 -1.60983081
 -1.7316172  -1.84810854 -1.95665728 -2.05726343 -2.15522205 -2.24788562
 -2.33790165 -2.42791768 -2.51528618 -2.60265468 -2.68472812 -2.76415403
 -2.83828488 -2.90712067 -2.96536633 -3.01566941 -3.0500873  -3.07391508
 -3.08185767 -3.07656261 -3.06067742 -3.03155459 -2.99978423 -2.9627188
 -2.92830091 -2.9018256  -2.88329289 -2.8753503  -2.88594042 -2.9097682
 -2.94683362 -2.99978423 -3.06067742 -3.12951321 -3.20364406 -3.27247985
 -3.33866811 -3.39426624 -3.43662673 -3.46574956 -3.47633968 -3.47104462
 -3.45251191 -3.41809402 -3.37573353 -3.32278293 -3.26983232 -3.21423418
 -3.16393111 -3.11892309 -3.08715273 -3.06597248 -3.06067742 -3.07391508
 -3.10568544 -3.15334098 -3.21952924 -3.30425021 -3.40220883 -3.51340511
 -3.6351915  -3.76227296 -3.89464947 -4.02702599 -4.15940251 -4.28383643
 -4.40032776 -4.50093392 -4.58035983 -4.63595796 -4.65713821 -4.63595796
 -4.5697697  -4.45063084 -4.27854137 -4.05085376 -3.77021555 -3.44986438
 -3.09774285 -2.72444107 -2.34584424 -1.97518999 -1.62306846 -1.29742223
 -1.00354637 -0.74144087 -0.51375326 -0.31783601 -0.15368913 -0.01601756
  0.09782625  0.18784228  0.251383    0.29109596  0.30698114  0.29639102
  0.25932559  0.19578487  0.10312131 -0.0107225  -0.14839407 -0.30195083
 -0.47139277 -0.6487773  -0.8314569  -1.01413649 -1.19416855 -1.36625802
 -1.52775737 -1.6786666  -1.81633817 -1.93812457 -2.04137825 -2.12874675
 -2.19493501 -2.24259056 -2.26906586 -2.27700845 -2.26112327 -2.2293529
 -2.17904983 -2.11815663 -2.04402578 -1.9672474  -1.89046902 -1.8189857
 -1.75544498 -1.70778943 -1.6786666  -1.66807648 -1.68131413 -1.71308449
 -1.76338757 -1.83222336 -1.90900174 -1.99637024 -2.08109121 -2.16316465
 -2.23464796 -2.29289363 -2.33260659 -2.35378683 -2.35643436 -2.34054918
 -2.30877881 -2.26112327 -2.20552513 -2.13668934 -2.06520602 -1.98578011
 -1.90370667 -1.82163323 -1.73426473 -1.6442487  -1.55158514 -1.45627405
 -1.35302037 -1.24447163 -1.12268523 -0.99295625 -0.84734208 -0.68584273
 -0.5084582  -0.31518848 -0.10338606  0.12165402  0.35728422  0.60085701
  0.84972486  1.09329764  1.33157537  1.55396792  1.75782775  1.93785982
  2.08347398  2.19467026  2.26350604  2.29262888  2.2767437   2.22114556
  2.128482    2.00404807  1.85578638  1.68634444  1.5089599   1.32892784
  1.15154331  0.9847489   0.83119214  0.69352057  0.57173417  0.47112802
  0.38905458  0.32551385  0.27785831  0.24344041  0.21961264  0.20637499
  0.19578487  0.18784228  0.18254722  0.17460462  0.1640145   0.14812932
  0.12959661  0.10312131  0.07399847  0.04222811  0.00781021 -0.02660768
 -0.05837804 -0.08485335]","[-1.30501966 -1.16477722 -1.00413588 -0.82819536 -0.64205539 -0.45846529
 -0.27742505 -0.10913412  0.0464075   0.18155021  0.30139375  0.40083839
  0.482434    0.54873042  0.60227754  0.63797561  0.66092438  0.6660241
  0.65072493  0.60992712  0.54108084  0.43908633  0.30649348  0.14330228
 -0.04538755 -0.24937656 -0.45591543 -0.65480471 -0.82309564 -0.95313863
 -1.02453478 -1.0296345  -0.9684378  -0.83329509 -0.63695567 -0.39216886
 -0.10913412  0.19174966  0.49008358  0.7680186   1.01535527  1.21679441
  1.36468644  1.4564815   1.4972793   1.48452998  1.42588314  1.32898837
  1.19894538  1.04340376  0.86746324  0.67622355  0.47733427  0.2707954
  0.05915681 -0.15248178 -0.36412037 -0.57575897 -0.78229783 -0.98118711
 -1.17242681 -1.34836732 -1.50390894 -1.63650179 -1.73594643 -1.79714313
 -1.81499217 -1.78439382 -1.70789794 -1.58295468 -1.41721361 -1.21322461
 -0.98628684 -0.74150003 -0.48906364 -0.24427683 -0.00968948  0.20449898
  0.39063894  0.54873042  0.67112383  0.76036902  0.81646599  0.83686489
  0.82411558  0.78076792  0.70937176  0.61502685  0.50028303  0.37024004
  0.22489788  0.07190612 -0.08873522 -0.25702615 -0.43296666 -0.61400691
 -0.80779646 -1.01178546 -1.23107365 -1.46056128 -1.70534808 -1.95523461
 -2.20512114 -2.44990795 -2.67939558 -2.88338459 -3.05422538 -3.18681823
 -3.27606342 -3.32451081 -3.3321604  -3.30411191 -3.24291521 -3.15367002
 -3.04657579 -2.92418239 -2.78903967 -2.64624737 -2.49835534 -2.35301317
 -2.21022087 -2.08017788 -1.96798393 -1.8812886  -1.82264176 -1.79714313
 -1.80479272 -1.83794093 -1.89403791 -1.95523461 -2.01643131 -2.05977898
 -2.08017788 -2.0648787  -2.01133159 -1.9220864  -1.799693   -1.65690069
 -1.50390894 -1.35601691]",0.8446945478084367,0.0035060610232984235,3.777105,-0.007124999999999826
051,1,2,csm,66a.png,1,1,280,285,281,1,1,428,neu_feedback_onset,7,"[-0.39529012 -0.34804429 -0.30604799 -0.26667647 -0.22992971 -0.19580772
 -0.16168573 -0.12756374 -0.09344175 -0.056695   -0.01994824  0.02204805
  0.06929388  0.11653972  0.17165985  0.22940476  0.2923992   0.36064317
  0.43151192  0.5076302   0.58374848  0.66249154  0.73860982  0.80947856
  0.872473    0.92496837  0.96171513  0.98008851  0.97483897  0.94859129
  0.89872069  0.82522717  0.72811074  0.61262094  0.47875775  0.33702026
  0.18478369  0.03254713 -0.11968944 -0.26930123 -0.41366349 -0.54752668
 -0.67351556 -0.79425491 -0.90449518 -1.00948591 -1.10397757 -1.1932197
 -1.27458752 -1.34545626 -1.40582594 -1.45307177 -1.48456899 -1.50294237
 -1.50294237 -1.48719376 -1.4583213  -1.41370024 -1.36120487 -1.3008352
 -1.23784076 -1.18009586 -1.12497572 -1.08297943 -1.05673174 -1.0436079
 -1.05410698 -1.0856042  -1.14072433 -1.21946738 -1.32445812 -1.450447
 -1.59480926 -1.75492013 -1.92553007 -2.09876478 -2.27462426 -2.44260944
 -2.59747077 -2.7365835  -2.8520733  -2.94656497 -3.01480894 -3.05680524
 -3.06992908 -3.05943001 -3.02268325 -2.96231358 -2.88357052 -2.78382933
 -2.66833952 -2.53972587 -2.39798838 -2.24575181 -2.08564094 -1.92028054
 -1.74967059 -1.57381111 -1.39532686 -1.21421785 -1.03048406 -0.84412551
 -0.65776695 -0.46615886 -0.27455077 -0.08294268  0.10866541  0.29764873
  0.47875775  0.65199246  0.8147281   0.96171513  1.08770401  1.19531951
  1.28193687  1.34755608  1.38955237  1.41055052  1.41580006  1.40530098
  1.38167807  1.34755608  1.31080932  1.2714378   1.23206627  1.20056905
  1.17432137  1.16119752  1.15857276  1.1716966   1.20056905  1.23994058
  1.29506071  1.35543038  1.42629913  1.49716787  1.56541185  1.63103106
  1.69140073  1.74127133  1.78064286  1.80951531  1.83051346  1.83576299
  1.83313823  1.81738962  1.78851716  1.7438961   1.6861512   1.61265768
  1.52341556  1.41580006  1.29768548  1.16907183  1.03258387  0.89609592
  0.76223273  0.63624385  0.52600358  0.43151192  0.35539364  0.29764873
  0.25827721  0.23202952  0.21890568  0.21103138  0.20315707  0.19528277
  0.18215892  0.16378555  0.14016263  0.10866541  0.07454342  0.04042143
  0.00629944 -0.02257301 -0.04882069 -0.0645693  -0.07769314 -0.08031791
 -0.08031791 -0.07506838 -0.06719407 -0.06194453 -0.056695   -0.05407023
 -0.05931977 -0.07244361 -0.09344175 -0.12493897 -0.16956004 -0.2220554
 -0.28767461 -0.36116813 -0.44253595 -0.53177807 -0.62626973 -0.72076139
 -0.81525305 -0.90974472 -0.99898684 -1.08297943 -1.16172248 -1.23259122
 -1.29558566 -1.3507058  -1.39795163 -1.44257269 -1.47931945 -1.51344144
 -1.54231389 -1.56856157 -1.59218449 -1.6158074  -1.63418078 -1.64730463
 -1.6578037  -1.66042847 -1.6578037  -1.64467986 -1.62105694 -1.58431018
 -1.53443959 -1.47144514 -1.39532686 -1.3008352  -1.1932197  -1.06985559
 -0.9359924  -0.7863806  -0.62626973 -0.46090932 -0.29029938 -0.11968944
  0.0430462   0.19528277  0.33177072  0.44463576  0.52862835  0.58374848
  0.6073714   0.59949709  0.56012557  0.48925682  0.39214039  0.27140105
  0.13228833 -0.02257301 -0.18793341 -0.36116813 -0.53965238 -0.71813662
 -0.8939961  -1.06460605 -1.22209215 -1.36382964 -1.48719376 -1.59218449
 -1.66830277 -1.71817337]","[-1.26589297 -1.13387785 -1.00186273 -0.87512822 -0.74839371 -0.62165919
 -0.49756498 -0.37347077 -0.24673626 -0.11472114  0.01729398  0.15723001
  0.29980633  0.44766327  0.5981605   0.75393834  0.91235648  1.07341493
  1.23183307  1.38761091  1.53810814  1.68332477  1.8206205   1.94471471
  2.05824771  2.1559389   2.23514797  2.29323462  2.33019885  2.34076006
  2.32755855  2.28531371  2.21402555  2.11633436  1.99224015  1.84174292
  1.66748296  1.47738119  1.27671821  1.06549402  0.85426983  0.64568594
  0.44502296  0.25228089  0.07274033 -0.09887932 -0.25729747 -0.4077947
 -0.55037103 -0.68502645 -0.81176096 -0.93321487 -1.04674787 -1.15235997
 -1.25005116 -1.33190053 -1.40054839 -1.45071414 -1.47975746 -1.48767837
 -1.47183655 -1.42959172 -1.36358416 -1.27381388 -1.16820178 -1.04674787
 -0.91737306 -0.78535794 -0.65334282 -0.53452921 -0.42891712 -0.34706775
 -0.28898109 -0.25729747 -0.25729747 -0.28634079 -0.34178714 -0.42363651
 -0.52660831 -0.64278161 -0.76951612 -0.90153124 -1.03090606 -1.15235997
 -1.26061237 -1.35302295 -1.42167081 -1.46655595 -1.48767837 -1.48503807
 -1.45863504 -1.4137499  -1.35302295 -1.27909448 -1.19460481 -1.10747483
 -1.01770455 -0.92793427 -0.84080429 -0.75631461 -0.67446524 -0.59525617
 -0.5186874  -0.44475893 -0.37083047 -0.296902   -0.22297353 -0.14376446
 -0.06455539  0.01993428  0.10442396  0.19683454  0.28660482  0.3790154
  0.46878569  0.55327536  0.62720383  0.68529048  0.72489501  0.74337713
  0.73281592  0.69057108  0.61400232  0.50574992  0.36053329  0.18099273
 -0.03023146 -0.27049898 -0.52924861 -0.80119975 -1.0810718  -1.35302295
 -1.61441288 -1.8573207  -2.07118519 -2.25336606 -2.40386329 -2.5226769
 -2.60980688 -2.67317413]",1.2838398261353539,1.159620799773979,3.8098599999999996,0.0019599999999999618
051,1,2,csp,47b.png,1,1,68,249,68,1,1,396,pos_feedback_onset,8,"[-8.48037493e-02 -3.19665223e-02  1.03032593e-02  4.20055955e-02
  6.57823476e-02  7.89916544e-02  8.42753771e-02  8.16335157e-02
  7.37079317e-02  6.04986249e-02  4.46474568e-02  2.87962887e-02
  1.03032593e-02 -5.54790883e-03 -2.40409383e-02 -4.25339677e-02
 -6.36688585e-02 -8.48037493e-02 -1.08580501e-01 -1.34999115e-01
 -1.64059590e-01 -1.95761926e-01 -2.32747985e-01 -2.75017767e-01
 -3.19929409e-01 -3.70124775e-01 -4.25603863e-01 -4.81082952e-01
 -5.44487624e-01 -6.07892297e-01 -6.76580692e-01 -7.50552809e-01
 -8.24524927e-01 -9.03780768e-01 -9.88320331e-01 -1.07550176e+00
 -1.16532504e+00 -1.25779019e+00 -1.35289720e+00 -1.45064607e+00
 -1.55103680e+00 -1.65142753e+00 -1.75446012e+00 -1.85749272e+00
 -1.96052531e+00 -2.06355790e+00 -2.16130677e+00 -2.25905564e+00
 -2.35152079e+00 -2.43606035e+00 -2.51795805e+00 -2.58928831e+00
 -2.65269298e+00 -2.70817207e+00 -2.75308371e+00 -2.79006977e+00
 -2.81648839e+00 -2.83762328e+00 -2.85083258e+00 -2.85875817e+00
 -2.86140003e+00 -2.86140003e+00 -2.85875817e+00 -2.85611631e+00
 -2.85083258e+00 -2.84554886e+00 -2.84026514e+00 -2.83498141e+00
 -2.83233955e+00 -2.82969769e+00 -2.82969769e+00 -2.83233955e+00
 -2.84026514e+00 -2.85083258e+00 -2.86668375e+00 -2.88781864e+00
 -2.91423726e+00 -2.94858145e+00 -2.99349310e+00 -3.04368846e+00
 -3.10973499e+00 -3.18634897e+00 -3.27617226e+00 -3.38448858e+00
 -3.51129792e+00 -3.65395843e+00 -3.81775384e+00 -3.99475855e+00
 -4.18761443e+00 -4.39103775e+00 -4.60238666e+00 -4.81373557e+00
 -5.02244261e+00 -5.22322407e+00 -5.40815437e+00 -5.57723350e+00
 -5.72517773e+00 -5.85198708e+00 -5.95237781e+00 -6.02899179e+00
 -6.08447087e+00 -6.11617321e+00 -6.12409880e+00 -6.11353135e+00
 -6.08447087e+00 -6.03691737e+00 -5.97351270e+00 -5.89689872e+00
 -5.80179171e+00 -5.69611726e+00 -5.57723350e+00 -5.44514043e+00
 -5.30247992e+00 -5.15189382e+00 -4.99338214e+00 -4.82958673e+00
 -4.66050761e+00 -4.48614476e+00 -4.31178191e+00 -4.13477720e+00
 -3.95777249e+00 -3.78340964e+00 -3.60904679e+00 -3.43996766e+00
 -3.27881412e+00 -3.12294430e+00 -2.97764193e+00 -2.84290700e+00
 -2.71873952e+00 -2.61042320e+00 -2.51531619e+00 -2.43077663e+00
 -2.35680451e+00 -2.29339984e+00 -2.23527889e+00 -2.18244166e+00
 -2.13224630e+00 -2.08205093e+00 -2.03185556e+00 -1.98166020e+00
 -1.93146483e+00 -1.88126947e+00 -1.83635782e+00 -1.79672990e+00
 -1.76502757e+00 -1.74389268e+00 -1.73860895e+00 -1.74653454e+00
 -1.77031129e+00 -1.81258107e+00 -1.86806016e+00 -1.93939042e+00
 -2.01864626e+00 -2.10582768e+00 -2.19565097e+00 -2.29075798e+00
 -2.38322312e+00 -2.47304641e+00 -2.56286970e+00 -2.65269298e+00
 -2.74251627e+00 -2.83498141e+00 -2.93801401e+00 -3.04633032e+00
 -3.16785594e+00 -3.29994901e+00 -3.44525139e+00 -3.60112121e+00
 -3.76491661e+00 -3.93399574e+00 -4.10571672e+00 -4.27479585e+00
 -4.43859125e+00 -4.59181921e+00 -4.73183786e+00 -4.85600535e+00
 -4.96167980e+00 -5.05150309e+00 -5.11754962e+00 -5.16774499e+00
 -5.19416360e+00 -5.20208918e+00 -5.18887988e+00 -5.15717754e+00
 -5.10698218e+00 -5.04093564e+00 -4.95639608e+00 -4.85600535e+00
 -4.74504717e+00 -4.62087969e+00 -4.48614476e+00 -4.34084238e+00
 -4.19025629e+00 -4.03174461e+00 -3.86266548e+00 -3.68830263e+00
 -3.50073047e+00 -3.30523273e+00 -3.09388383e+00 -2.87196747e+00
 -2.63684181e+00 -2.39114871e+00 -2.13488816e+00 -1.87334388e+00
 -1.60915775e+00 -1.35289720e+00 -1.10456223e+00 -8.69436570e-01
 -6.52803940e-01 -4.57306200e-01 -2.80301489e-01 -1.21789808e-01
  1.82288433e-02  1.45038188e-01  2.63921949e-01  3.74880126e-01
  4.83196441e-01  5.91512756e-01  7.05112794e-01  8.23996555e-01
  9.50805900e-01  1.08289897e+00  1.22555948e+00  1.37878744e+00
  1.53465726e+00  1.69845266e+00  1.86224807e+00  2.02604347e+00
  2.18191329e+00  2.33249939e+00  2.47251804e+00  2.59404366e+00
  2.70235997e+00  2.79218326e+00  2.86087166e+00  2.91370888e+00
  2.95069494e+00  2.97182983e+00  2.97975542e+00  2.98239728e+00
  2.97447169e+00  2.96390425e+00  2.95069494e+00  2.93484377e+00
  2.91635074e+00  2.89521585e+00  2.86615538e+00  2.83181118e+00
  2.78425768e+00  2.72085300e+00  2.64159716e+00  2.54384829e+00
  2.42232267e+00  2.27966216e+00  2.11322489e+00  1.93093646e+00
  1.72751314e+00  1.51088051e+00  1.28368043e+00  1.04855477e+00]","[-1.13999017 -1.13999017 -1.10868967 -1.04869705 -0.95740394 -0.84263545
 -0.70178322 -0.54267236 -0.36791125 -0.18532502  0.00508633  0.19549768
  0.38590904  0.56849527  0.74586475  0.9154091   1.07712834  1.23102244
  1.38230818  1.52837716  1.66922939  1.80747325  1.94050036  2.06831073
  2.18307921  2.28480583  2.37088219  2.43087481  2.46478368  2.46739206
  2.43869993  2.37609894  2.28480583  2.16221221  2.01353486  1.84659888
  1.66140427  1.46316779  1.25449782  1.04321946  0.82672436  0.61022926
  0.39112579  0.17723906 -0.03664766 -0.24792602 -0.45398762 -0.65483247
 -0.85046057 -1.03826355 -1.21824141 -1.39039414 -1.549505   -1.70079073
 -1.83642621 -1.9616282  -2.06857156 -2.1572563  -2.23029079 -2.28245829
 -2.31115041 -2.32158391 -2.31375879 -2.28767504 -2.24594104 -2.19116517
 -2.12334743 -2.05031294 -1.96945332 -1.88337696 -1.79469222 -1.7033991
 -1.60949761 -1.51298775 -1.41386951 -1.31475127 -1.21302466 -1.1060813
 -0.99913793 -0.88697782 -0.77220933 -0.65744085 -0.53745561 -0.41747037
 -0.29748514 -0.17489152 -0.05490629  0.06507895  0.18245581  0.29461592
  0.40677604  0.51111102  0.61022926  0.70413075  0.78759874  0.86324161
  0.9258426   0.97279335  1.00931059  1.03017759  1.03539434  1.03278597
  1.01974409  1.00409384  0.98583522  0.97279335  0.9675766   0.97279335
  0.99105197  1.01974409  1.06147809  1.11625396  1.17624657  1.24145594
  1.31188206  1.37709143  1.43969242  1.49185991  1.53098554  1.55446091
  1.55706928  1.53881066  1.49446829  1.42404217  1.32753231  1.2049387
  1.06408646  0.90497561  0.73543125  0.56067014  0.39112579  0.23201493
  0.08855432 -0.02882254 -0.12272403 -0.18532502 -0.22184227 -0.23227577
 -0.22445064 -0.20097527]",2.3152612404595736,1.196070222663921,3.78521,0.1403000000000003
051,1,2,csm,19a.png,1,1,188,23,9,1,1,328,neu_feedback_onset,9,"[-1.59973079 -1.49431641 -1.37268443 -1.23483486 -1.08347062 -0.91588879
 -0.73749522 -0.54828992 -0.34827289 -0.14285     0.06797876  0.28151045
  0.49233921  0.69776211  0.8950762   1.0842815   1.25997213  1.42485103
  1.57080941  1.70325311  1.81947923  1.92219067  2.00598159  2.07625784
  2.1303165   2.17086049  2.19248395  2.20059275  2.18707809  2.15734583
  2.10869304  2.04382265  1.96003173  1.86002322  1.74650004  1.62216513
  1.48701849  1.34646598  1.20321054  1.05454924  0.90588793  0.75722663
  0.60856532  0.45990402  0.31664858  0.17609607  0.04094943 -0.08879134
 -0.20772039 -0.3158377  -0.41044035 -0.4888254  -0.55099285 -0.59153685
 -0.60775444 -0.60505151 -0.58342805 -0.54558699 -0.4969342  -0.44017261
 -0.38341102 -0.33475823 -0.2996201  -0.28069957 -0.28610544 -0.31313477
 -0.36449049 -0.44017261 -0.53207233 -0.64018964 -0.75641575 -0.88075066
 -1.00508557 -1.12401461 -1.23483486 -1.33484337 -1.41863429 -1.49161348
 -1.54837506 -1.59432492 -1.62676012 -1.64838358 -1.66189824 -1.67000704
 -1.67270997 -1.66730411 -1.65919531 -1.64568065 -1.62405718 -1.60243372
 -1.57540439 -1.551078   -1.52945453 -1.51323694 -1.50783107 -1.51593987
 -1.54026627 -1.58081026 -1.64027478 -1.7159569  -1.80785661 -1.91597393
 -2.03490297 -2.16194081 -2.29438452 -2.42953116 -2.56197487 -2.69171565
 -2.81334762 -2.9268708  -3.02687932 -3.11337317 -3.18635235 -3.24311394
 -3.28636087 -3.31068726 -3.32149899 -3.31339019 -3.29446966 -3.2566286
 -3.20527288 -3.14310543 -3.06472037 -2.97552359 -2.87281214 -2.75928897
 -2.63765699 -2.50791621 -2.37276957 -2.23221707 -2.09166456 -1.94840912
 -1.81055955 -1.67541291 -1.54567213 -1.42404015 -1.31321991 -1.20780553
 -1.11320288 -1.0240061  -0.94562105 -0.86993893 -0.80236561 -0.73749522
 -0.68073363 -0.62937791 -0.58342805 -0.55099285 -0.53477526 -0.53477526
 -0.55910165 -0.61316031 -0.69424829 -0.81047441 -0.96454158 -1.15374687
 -1.3780903  -1.64027478 -1.93219152 -2.25384053 -2.597113   -2.96471186
 -3.34582539 -3.73504771 -4.13508177 -4.53511583 -4.93244695 -5.32977808
 -5.71629747 -6.09470806 -6.46500986 -6.82179699 -7.16777239 -7.4975302
 -7.81377333 -8.11379888 -8.39490389 -8.65438544 -8.89224353 -9.10577522
 -9.28957465 -9.44364182 -9.5652738  -9.65176765 -9.70582631 -9.7220439
 -9.70852924 -9.65987645 -9.5814914  -9.47337408 -9.33822744 -9.17605147
 -8.99225204 -8.78142328 -8.54897106 -8.29759831 -8.02730503 -7.73809122
 -7.43806567 -7.12182253 -6.80017353 -6.47041572 -6.13795499 -5.80819718
 -5.47843938 -5.15679038 -4.84325017 -4.54052169 -4.24860495 -3.97020287
 -3.70531545 -3.45664563 -3.21878755 -2.99984999 -2.79442709 -2.60251886
 -2.42953116 -2.27276106 -2.13491149 -2.01327951 -1.91597393 -1.84029181
 -1.78893609 -1.76190676 -1.76190676 -1.78353022 -1.82407421 -1.87813287
 -1.94030032 -2.00246778 -2.05112057 -2.08625869 -2.09977336 -2.08625869
 -2.0457147  -1.98084432 -1.8889446  -1.77812435 -1.64838358 -1.50512814
 -1.35106097 -1.188885   -1.02130316 -0.84561253 -0.66721897 -0.4807166
 -0.2915113  -0.09419721  0.11122569  0.32746031  0.55180373  0.78966182
  1.03833164  1.29240733  1.55188888  1.80596456  2.04922852  2.27086901
  2.45737137  2.59792388]","[-1.37488038 -1.35284925 -1.30878698 -1.2371858  -1.14355348 -1.02238225
 -0.876426   -0.70843861 -0.52117398 -0.31463211 -0.09707468  0.13425222
  0.37384078  0.61893714  0.86403349  1.10912984  1.35422619  1.59656865
  1.83615722  2.07023801  2.29881101  2.51912233  2.73392588  2.93495997
  3.12222459  3.29296587  3.44167602  3.57110892  3.67300291  3.74735799
  3.79417414  3.81620528  3.81069749  3.78315858  3.73634242  3.67300291
  3.59864784  3.51603109  3.43066045  3.34253592  3.25991917  3.18005632
  3.10570124  3.04236174  2.99279169  2.9569911   2.93771386  2.93771386
  2.95974499  3.00380726  3.06714676  3.14976351  3.24890361  3.36732095
  3.49675385  3.63444843  3.78040468  3.92911483  4.07231719  4.21276566
  4.33669079  4.44684645  4.53221709  4.59004881  4.61758773  4.61483384
  4.58178714  4.52395541  4.44409256  4.35321414  4.25682793  4.1687034
  4.09159443  4.03376271  3.99796212  3.98970045  4.0034699   4.03927049
  4.09159443  4.16044172  4.24030458  4.32567522  4.41655364  4.51018596
  4.60106438  4.6919428   4.77731344  4.86268408  4.94254694  5.01690201
  5.09125708  5.16010437  5.22619777  5.28953728  5.35012289  5.40795462
  5.46854023  5.52637195  5.58420368  5.64478929  5.70262102  5.76320663
  5.82103835  5.87887008  5.93394791  5.98351796  6.02758022  6.06338082
  6.08816584  6.10468919  6.10744308  6.09918141  6.07715027  6.04134968
  5.99453353  5.93119402  5.85959284  5.77697609  5.68334378  5.58420368
  5.47680191  5.36113846  5.24547501  5.12430378  5.00037866  4.87645354
  4.75252842  4.63135719  4.51018596  4.38901473  4.27335128  4.16319562
  4.05579384  3.95665375  3.86302143  3.7748969   3.69778794  3.62343286
  3.55733947  3.49675385]",0.4475477545482257,5.5409675798112294,3.6996849999999997,0.26100000000000056
051,1,2,csm,14a.png,1,1,176,152,177,1,1,293,neu_feedback_onset,10,"[ 2.27895182e-01  1.62975486e-01  1.03465765e-01  4.39560440e-02
 -1.28486898e-02 -6.42434489e-02 -1.10228233e-01 -1.48098056e-01
 -1.77852916e-01 -1.96787828e-01 -1.99492815e-01 -1.91377853e-01
 -1.64327980e-01 -1.23753170e-01 -6.96534235e-02  6.76246830e-04
  8.18258664e-02  1.76500423e-01  2.76584954e-01  3.84784446e-01
  4.98393914e-01  6.17413356e-01  7.36432798e-01  8.58157227e-01
  9.79881657e-01  1.10160609e+00  1.22062553e+00  1.33693998e+00
  1.44784446e+00  1.55063398e+00  1.64530854e+00  1.72645816e+00
  1.79408284e+00  1.84547760e+00  1.87793745e+00  1.89146238e+00
  1.88605241e+00  1.86170752e+00  1.81842773e+00  1.76162299e+00
  1.68858833e+00  1.60202874e+00  1.50464920e+00  1.40185968e+00
  1.28825021e+00  1.17193576e+00  1.05021133e+00  9.25781910e-01
  7.95942519e-01  6.68808115e-01  5.36263736e-01  4.06424345e-01
  2.79289941e-01  1.49450549e-01  2.50211327e-02 -9.94082840e-02
 -2.18427726e-01 -3.37447168e-01 -4.51056636e-01 -5.64666103e-01
 -6.72865596e-01 -7.81065089e-01 -8.83854607e-01 -9.83939138e-01
 -1.08131868e+00 -1.17328825e+00 -1.25714286e+00 -1.33288250e+00
 -1.39509721e+00 -1.44649197e+00 -1.48165680e+00 -1.50059172e+00
 -1.49788673e+00 -1.47354184e+00 -1.43026205e+00 -1.36263736e+00
 -1.27607777e+00 -1.17058326e+00 -1.04615385e+00 -9.10904480e-01
 -7.67540152e-01 -6.16060862e-01 -4.67286560e-01 -3.21217244e-01
 -1.85967878e-01 -6.15384615e-02  4.39560440e-02  1.30515638e-01
  1.98140321e-01  2.46830093e-01  2.76584954e-01  2.87404903e-01
  2.87404903e-01  2.73879966e-01  2.54945055e-01  2.30600169e-01
  2.03550296e-01  1.76500423e-01  1.52155537e-01  1.30515638e-01
  1.14285714e-01  1.08875740e-01  1.14285714e-01  1.30515638e-01
  1.65680473e-01  2.19780220e-01  2.92814877e-01  3.84784446e-01
  4.98393914e-01  6.33643280e-01  7.82417582e-01  9.44716822e-01
  1.11242604e+00  1.28284024e+00  1.45054945e+00  1.60743872e+00
  1.75350803e+00  1.88064243e+00  1.98884193e+00  2.07540152e+00
  2.14032122e+00  2.18901099e+00  2.21876585e+00  2.23499577e+00
  2.24040575e+00  2.24311074e+00  2.24040575e+00  2.23770076e+00
  2.23770076e+00  2.24311074e+00  2.25122570e+00  2.26475063e+00
  2.28639053e+00  2.31073542e+00  2.34319527e+00  2.38377008e+00
  2.43245985e+00  2.49196957e+00  2.55959425e+00  2.64074387e+00
  2.73271344e+00  2.83550296e+00  2.94640744e+00  3.06272189e+00
  3.17903635e+00  3.29535080e+00  3.40625528e+00  3.50904480e+00
  3.59830938e+00  3.67675402e+00  3.74167371e+00  3.79036348e+00
  3.82282333e+00  3.84446323e+00  3.85528318e+00  3.85257819e+00
  3.84175824e+00  3.82011834e+00  3.79306847e+00  3.75790363e+00
  3.71462384e+00  3.66593407e+00  3.60642434e+00  3.54150465e+00
  3.46576500e+00  3.37920541e+00  3.28453085e+00  3.17903635e+00
  3.06272189e+00  2.94099746e+00  2.81115807e+00  2.68131868e+00
  2.54877430e+00  2.41893491e+00  2.29450549e+00  2.18089603e+00
  2.07540152e+00  1.97802198e+00  1.89416737e+00  1.81842773e+00
  1.75080304e+00  1.68858833e+00  1.62907861e+00  1.56956889e+00
  1.50464920e+00  1.43702451e+00  1.35857988e+00  1.27202029e+00
  1.17464074e+00  1.06644125e+00  9.47421809e-01  8.20287405e-01
  6.87743026e-01  5.47083686e-01  4.06424345e-01  2.65765004e-01
  1.27810651e-01 -4.73372781e-03 -1.26458157e-01 -2.37362637e-01
 -3.40152156e-01 -4.26711750e-01 -5.05156382e-01 -5.70076078e-01
 -6.29585799e-01 -6.80980558e-01 -7.29670330e-01 -7.75655114e-01
 -8.24344886e-01 -8.75739645e-01 -9.29839391e-01 -9.89349112e-01
 -1.05426881e+00 -1.11918850e+00 -1.18951817e+00 -1.25714286e+00
 -1.32476754e+00 -1.39239222e+00 -1.45460693e+00 -1.51682164e+00
 -1.57633136e+00 -1.63313609e+00 -1.68723584e+00 -1.74133559e+00
 -1.79814032e+00 -1.85224007e+00 -1.90904480e+00 -1.96855452e+00
 -2.02535926e+00 -2.08757396e+00 -2.14708369e+00 -2.20659341e+00
 -2.26610313e+00 -2.32561285e+00 -2.38512257e+00 -2.44192730e+00
 -2.49873204e+00 -2.55283178e+00 -2.60693153e+00 -2.66103128e+00
 -2.71242604e+00 -2.76382079e+00 -2.81251057e+00 -2.86120034e+00
 -2.90448014e+00 -2.94505495e+00 -2.98292477e+00 -3.01267963e+00
 -3.03972950e+00 -3.06136940e+00 -3.07759932e+00 -3.08571429e+00
 -3.09112426e+00 -3.08841927e+00 -3.07759932e+00 -3.06407439e+00
 -3.03972950e+00 -3.01267963e+00 -2.97480981e+00 -2.93423500e+00]","[-1.89616738 -1.64101738 -1.39392474 -1.15488948 -0.92659737 -0.71173421
 -0.51298579 -0.32498053 -0.15040421  0.01342895  0.16920474  0.31960895
  0.47001316  0.62041737  0.77350737  0.93196895  1.09580211  1.26500685
  1.43958317  1.61415948  1.78605001  1.94988317  2.10297317  2.24263422
  2.35812317  2.44675422  2.50852738  2.54075686  2.54075686  2.51121317
  2.45481159  2.37423791  2.27217791  2.15131738  2.01971369  1.87468106
  1.72427685  1.56581527  1.4046679   1.24083474  1.07700158  0.91048264
  0.74664948  0.58550211  0.42704053  0.27126474  0.11817474 -0.02954368
 -0.17189053 -0.31155158 -0.44584105 -0.57475895 -0.70367685 -0.82990895
 -0.95345527 -1.0743158  -1.19517632 -1.31335106 -1.42884001 -1.54164317
 -1.64907475 -1.75113475 -1.84245159 -1.92571106 -1.9928558  -2.04657159
 -2.08148685 -2.10028738 -2.09760159 -2.07880106 -2.04120001 -1.9928558
 -1.93376843 -1.86930948 -1.80485054 -1.74039159 -1.68399001 -1.63833159
 -1.60073053 -1.57655843 -1.56581527 -1.56850106 -1.57924422 -1.60073053
 -1.63027422 -1.66787527 -1.70547632 -1.74844896 -1.79142159 -1.83708001
 -1.88005264 -1.92033948 -1.96062633 -1.99822738 -2.03045685 -2.05731475
 -2.07880106 -2.08954422 -2.09223001 -2.08417264 -2.06268633 -2.03045685
 -1.98211264 -1.92302527 -1.85050896 -1.76724948 -1.67324685 -1.57118685
 -1.46106948 -1.34826632 -1.23277737 -1.11728843 -1.00179948 -0.89168211
 -0.78425053 -0.68219053 -0.59087369 -0.50761421 -0.43778369 -0.38138211
 -0.33572369 -0.30886579 -0.29543684 -0.30080842 -0.32229474 -0.35989579
 -0.41361158 -0.48344211 -0.56401579 -0.65533264 -0.75470685 -0.85676685
 -0.95882685 -1.05551527 -1.14414632 -1.22472001 -1.28917895 -1.33752316
 -1.37243843 -1.39123895]",3.23786982248521,1.361090967689963,3.696875,0.01637500000000003
051,1,2,csm,25a.png,1,1,228,132,229,1,1,408,neu_feedback_onset,11,"[ 1.64067981e-02  2.26300663e-03 -1.18807848e-02 -2.60245763e-02
 -4.01683677e-02 -5.43121591e-02 -6.27984340e-02 -6.84559506e-02
 -6.84559506e-02 -6.56271923e-02 -5.43121591e-02 -3.73396094e-02
 -1.47095431e-02  1.07492815e-02  3.62081061e-02  6.16669307e-02
  8.42969970e-02  9.84407884e-02  1.01269547e-01  9.27832719e-02
  7.01532055e-02  3.33793478e-02 -1.75383014e-02 -8.25997420e-02
 -1.61804974e-01 -2.49496481e-01 -3.45674263e-01 -4.50338319e-01
 -5.63488651e-01 -6.79467741e-01 -8.03933106e-01 -9.31227228e-01
 -1.06700763e+00 -1.20844554e+00 -1.35271221e+00 -1.50263640e+00
 -1.65538935e+00 -1.80814230e+00 -1.96089525e+00 -2.11081943e+00
 -2.25791487e+00 -2.40218154e+00 -2.53796194e+00 -2.67374233e+00
 -2.80103646e+00 -2.92550182e+00 -3.04430967e+00 -3.15746000e+00
 -3.26778157e+00 -3.36678811e+00 -3.46013714e+00 -3.53934237e+00
 -3.60440381e+00 -3.64966394e+00 -3.67229401e+00 -3.67229401e+00
 -3.64117767e+00 -3.58177374e+00 -3.49125348e+00 -3.37244563e+00
 -3.22535020e+00 -3.05279594e+00 -2.86044038e+00 -2.64828351e+00
 -2.42481160e+00 -2.19002467e+00 -1.95240897e+00 -1.71196452e+00
 -1.47434882e+00 -1.24239064e+00 -1.01608998e+00 -8.03933106e-01
 -6.03091267e-01 -4.19221978e-01 -2.49496481e-01 -9.67435335e-02
  4.18656227e-02  1.63502229e-01  2.76652561e-01  3.78487859e-01
  4.74665641e-01  5.70843423e-01  6.69849963e-01  7.77342778e-01
  8.93321867e-01  1.02344475e+00  1.16771142e+00  1.32895064e+00
  1.50433366e+00  1.69103170e+00  1.88338727e+00  2.07574283e+00
  2.26526964e+00  2.44065265e+00  2.59906312e+00  2.73484351e+00
  2.84799384e+00  2.93568535e+00  2.99226052e+00  3.02337686e+00
  3.02903438e+00  3.00357555e+00  2.95265790e+00  2.87628143e+00
  2.77161737e+00  2.64715201e+00  2.50005658e+00  2.33315984e+00
  2.14929055e+00  1.95410623e+00  1.75043563e+00  1.54110752e+00
  1.33177940e+00  1.12528005e+00  9.30095725e-01  7.46226436e-01
  5.82158456e-01  4.43549300e-01  3.30398968e-01  2.51193736e-01
  2.05933603e-01  1.97447329e-01  2.28563670e-01  2.96453869e-01
  3.95460409e-01  5.25583290e-01  6.83993754e-01  8.62205526e-01
  1.06021861e+00  1.27237548e+00  1.49301862e+00  1.72497680e+00
  1.96259250e+00  2.20303695e+00  2.44631017e+00  2.68958338e+00
  2.93285659e+00  3.17330105e+00  3.40525923e+00  3.62873113e+00
  3.83805925e+00  4.03041481e+00  4.20579782e+00  4.35572201e+00
  4.48301614e+00  4.58485143e+00  4.66405667e+00  4.72063183e+00
  4.76023445e+00  4.78852203e+00  4.80832334e+00  4.82812465e+00
  4.85358347e+00  4.89035733e+00  4.94693249e+00  5.02613773e+00
  5.12797302e+00  5.25243839e+00  5.39387630e+00  5.55228677e+00
  5.72201227e+00  5.89173776e+00  6.05580574e+00  6.20572993e+00
  6.33868157e+00  6.44334563e+00  6.52537962e+00  6.57346851e+00
  6.59609858e+00  6.59044106e+00  6.55932472e+00  6.51123583e+00
  6.44617439e+00  6.37262667e+00  6.29059268e+00  6.20290117e+00
  6.11803843e+00  6.03034692e+00  5.94265541e+00  5.85496391e+00
  5.76444364e+00  5.66826586e+00  5.56360180e+00  5.45045147e+00
  5.32315735e+00  5.18171943e+00  5.02048021e+00  4.84226844e+00
  4.64142660e+00  4.41795469e+00  4.17468148e+00  3.91160696e+00
  3.63155989e+00  3.33454027e+00  3.02620562e+00  2.70938469e+00
  2.38973500e+00  2.07008532e+00  1.75609315e+00  1.44775849e+00
  1.15356763e+00  8.70691801e-01  6.04788522e-01  3.53029034e-01
  1.15413338e-01 -1.05229808e-01 -3.08900405e-01 -5.01255969e-01
 -6.79467741e-01 -8.43535722e-01 -9.96288669e-01 -1.13772658e+00
 -1.26784946e+00 -1.39231483e+00 -1.51112268e+00 -1.62710177e+00
 -1.73742334e+00 -1.84774491e+00 -1.95806649e+00 -2.06838806e+00
 -2.17588088e+00 -2.28054493e+00 -2.37955147e+00 -2.47007174e+00
 -2.55493449e+00 -2.62565344e+00 -2.68222861e+00 -2.72748874e+00
 -2.75860508e+00 -2.77840639e+00 -2.78689267e+00 -2.78689267e+00
 -2.77840639e+00 -2.76709136e+00 -2.75011881e+00 -2.73314626e+00
 -2.71334495e+00 -2.69071488e+00 -2.67091358e+00 -2.65111227e+00
 -2.63131096e+00 -2.60868089e+00 -2.58887959e+00 -2.56907828e+00
 -2.54644821e+00 -2.52664690e+00 -2.50401684e+00 -2.48138677e+00
 -2.45592795e+00 -2.42764036e+00 -2.39935278e+00 -2.36540768e+00
 -2.32863382e+00 -2.28903121e+00 -2.24377107e+00 -2.19568218e+00
 -2.14476453e+00 -2.09101813e+00 -2.03444296e+00 -1.97221028e+00]","[-0.45738127 -0.49907509 -0.51575262 -0.50185468 -0.46294044 -0.40456909
 -0.32396102 -0.23223461 -0.13216943 -0.02932466  0.07074052  0.16802612
  0.25141377  0.32646265  0.38483401  0.43208701  0.46266248  0.4821196
  0.49045837  0.49045837  0.4821196   0.46822166  0.44876454  0.42930742
  0.40707072  0.38483401  0.36537689  0.34591977  0.32924224  0.3153443
  0.30144636  0.29032801  0.28198924  0.27643006  0.27087089  0.26531171
  0.26253212  0.25697294  0.25141377  0.243075    0.23473624  0.22639747
  0.21527912  0.20416077  0.19304241  0.17914447  0.16524653  0.15134859
  0.13467106  0.12077311  0.10965476  0.09575682  0.08741805  0.07907929
  0.07907929  0.08185888  0.09297723  0.10965476  0.14023023  0.17914447
  0.22917706  0.29310759  0.36815648  0.45432372  0.54882972  0.65167449
  0.76007844  0.8657028   0.96854757  1.06305357  1.14366164  1.20759217
  1.24928599  1.2715227   1.2715227   1.25206558  1.21315134  1.16033917
  1.09640863  1.02691892  0.9602088   0.89349868  0.83790691  0.7934335
  0.76007844  0.74340091  0.73784173  0.7461805   0.76563762  0.7934335
  0.82956815  0.86848239  0.9129558   0.9602088   1.01024139  1.06027398
  1.11586575  1.17423711  1.23538805  1.30209817  1.37158788  1.44941636
  1.52724483  1.61063248  1.69402013  1.77740778  1.85801585  1.93306473
  1.99977485  2.05536662  2.09706045  2.12763592  2.14153386  2.14153386
  2.12485633  2.09706045  2.05814621  2.00811362  1.95530144  1.8941505
  1.83299955  1.76906902  1.70791807  1.64954672  1.59395495  1.54114277
  1.49666936  1.45497553  1.42440006  1.39938377  1.38826541  1.38548582
  1.391045    1.41050212  1.438298    1.47443265  1.51890607  1.57171824
  1.6300896   1.69679972]",5.707868474054628,1.6334251060760145,3.53512,0.29818499999999926
051,1,2,csp,40b.png,1,1,64,290,65,1,1,207,pos_feedback_onset,12,"[ 5.35718190e-02  7.81711237e-02  9.73039162e-02  1.10970197e-01
  1.21903221e-01  1.24636477e-01  1.21903221e-01  1.13703453e-01
  1.02770428e-01  8.63708919e-02  6.45048433e-02  4.26387947e-02
  1.53062340e-02 -1.74928389e-02 -5.57584239e-02 -9.94905211e-02
 -1.48689130e-01 -2.06087508e-01 -2.68952398e-01 -3.37283799e-01
 -4.11081713e-01 -4.87612883e-01 -5.66877310e-01 -6.48874992e-01
 -7.33605930e-01 -8.15603612e-01 -8.94868038e-01 -9.71399208e-01
 -1.04519712e+00 -1.11352852e+00 -1.17366016e+00 -1.22559202e+00
 -1.26659086e+00 -1.29665668e+00 -1.31032296e+00 -1.31032296e+00
 -1.29392343e+00 -1.26112435e+00 -1.21465900e+00 -1.15179411e+00
 -1.08072945e+00 -1.00146503e+00 -9.19467343e-01 -8.45669429e-01
 -7.77338027e-01 -7.28139418e-01 -6.95340345e-01 -6.87140577e-01
 -7.06273369e-01 -7.47272210e-01 -8.15603612e-01 -9.08534319e-01
 -1.02059782e+00 -1.14906085e+00 -1.29119017e+00 -1.44151925e+00
 -1.60004811e+00 -1.75857696e+00 -1.91710581e+00 -2.07016815e+00
 -2.21503072e+00 -2.34622701e+00 -2.46375702e+00 -2.55942099e+00
 -2.63321890e+00 -2.67968425e+00 -2.70155030e+00 -2.69335053e+00
 -2.65508495e+00 -2.59222006e+00 -2.50475587e+00 -2.40089213e+00
 -2.28062887e+00 -2.15216583e+00 -2.02370280e+00 -1.90070627e+00
 -1.79684254e+00 -1.71211160e+00 -1.66291299e+00 -1.64924671e+00
 -1.68204579e+00 -1.76131021e+00 -1.89250651e+00 -2.07836792e+00
 -2.31069468e+00 -2.58948680e+00 -2.90654451e+00 -3.25913454e+00
 -3.63085737e+00 -4.02171299e+00 -4.41530186e+00 -4.80615748e+00
 -5.18881333e+00 -5.55780290e+00 -5.90765968e+00 -6.23565041e+00
 -6.54177509e+00 -6.82330046e+00 -7.08022653e+00 -7.31528655e+00
 -7.52574727e+00 -7.70887543e+00 -7.87013754e+00 -8.00133383e+00
 -8.10793082e+00 -8.18446199e+00 -8.23639385e+00 -8.26099316e+00
 -8.26099316e+00 -8.24186036e+00 -8.20359478e+00 -8.15166291e+00
 -8.09153128e+00 -8.02319988e+00 -7.94940196e+00 -7.87287079e+00
 -7.79360637e+00 -7.71707520e+00 -7.63781077e+00 -7.56127960e+00
 -7.48201518e+00 -7.40001749e+00 -7.31528655e+00 -7.22782236e+00
 -7.13215840e+00 -7.02829467e+00 -6.91623117e+00 -6.79050139e+00
 -6.64837207e+00 -6.49257648e+00 -6.31764809e+00 -6.12632016e+00
 -5.91585945e+00 -5.68899919e+00 -5.44847266e+00 -5.19701310e+00
 -4.94008703e+00 -4.68589421e+00 -4.43716791e+00 -4.20484114e+00
 -3.99164717e+00 -3.80851901e+00 -3.66092318e+00 -3.55159294e+00
 -3.48872805e+00 -3.46959526e+00 -3.50239433e+00 -3.58165876e+00
 -3.70465528e+00 -3.87138390e+00 -4.07364485e+00 -4.30597162e+00
 -4.55743118e+00 -4.82529027e+00 -5.09588262e+00 -5.36100846e+00
 -5.62066779e+00 -5.86119432e+00 -6.08532132e+00 -6.28484901e+00
 -6.46524392e+00 -6.62650602e+00 -6.76590208e+00 -6.89436512e+00
 -7.01189513e+00 -7.12122537e+00 -7.22508910e+00 -7.32895283e+00
 -7.43008331e+00 -7.53394704e+00 -7.63507752e+00 -7.73347473e+00
 -7.82640544e+00 -7.91386963e+00 -7.98766755e+00 -8.05326569e+00
 -8.10246430e+00 -8.13799663e+00 -8.15712943e+00 -8.16532919e+00
 -8.15986268e+00 -8.14346314e+00 -8.11886384e+00 -8.09153128e+00
 -8.06146546e+00 -8.02866639e+00 -7.99860057e+00 -7.96853476e+00
 -7.93846894e+00 -7.91113638e+00 -7.88380382e+00 -7.85100474e+00
 -7.81820567e+00 -7.77720683e+00 -7.73074148e+00 -7.67334310e+00
 -7.60501170e+00 -7.52848053e+00 -7.43828308e+00 -7.33988586e+00
 -7.23055562e+00 -7.11575886e+00 -6.99002908e+00 -6.85883279e+00
 -6.71943673e+00 -6.57457416e+00 -6.42151182e+00 -6.25751645e+00
 -6.08532132e+00 -5.89672665e+00 -5.69446570e+00 -5.47307196e+00
 -5.22981217e+00 -4.96741959e+00 -4.68316096e+00 -4.37976953e+00
 -4.05451206e+00 -3.71832156e+00 -3.36573153e+00 -3.01040824e+00
 -2.65235169e+00 -2.29702840e+00 -1.95263814e+00 -1.62191415e+00
 -1.31032296e+00 -1.02059782e+00 -7.58205235e-01 -5.23145212e-01
 -3.20884263e-01 -1.51422386e-01 -1.74928389e-02  8.63708919e-02
  1.57435550e-01  1.98434391e-01  2.12100671e-01  2.03900903e-01
  1.79301598e-01  1.41036013e-01  9.45706601e-02  5.08385630e-02
  9.83972186e-03 -2.02260949e-02 -3.66256314e-02 -3.38923753e-02
 -6.55981458e-03  3.99055387e-02  1.10970197e-01  2.03900903e-01
  3.18697658e-01  4.49893950e-01  5.92023265e-01  7.42352350e-01
  8.92681434e-01  1.04027726e+00  1.17694007e+00  1.29720333e+00
  1.39560055e+00  1.46666521e+00  1.51039731e+00  1.52133033e+00]","[-1.57341505e+00 -1.53901720e+00 -1.47022149e+00 -1.36702794e+00
 -1.23516951e+00 -1.07177972e+00 -8.88324509e-01 -6.84803889e-01
 -4.66950831e-01 -2.34765335e-01  2.86648761e-04  2.41071608e-01
  4.81856567e-01  7.19775038e-01  9.54827022e-01  1.18701252e+00
  1.41059855e+00  1.63131810e+00  1.84630467e+00  2.05842475e+00
  2.26767835e+00  2.47406545e+00  2.67471959e+00  2.87537372e+00
  3.07029488e+00  3.25948306e+00  3.44007178e+00  3.60919455e+00
  3.76111839e+00  3.89584331e+00  4.00476984e+00  4.09076446e+00
  4.14522773e+00  4.17102612e+00  4.16529314e+00  4.13376178e+00
  4.07356554e+00  3.99043740e+00  3.88724384e+00  3.76971785e+00
  3.63785942e+00  3.49740153e+00  3.35407715e+00  3.20788628e+00
  3.06169541e+00  2.91837103e+00  2.78077963e+00  2.65465417e+00
  2.53712818e+00  2.43680111e+00  2.35653946e+00  2.29061025e+00
  2.24761293e+00  2.22754752e+00  2.22468103e+00  2.24474644e+00
  2.27914430e+00  2.33074107e+00  2.39380380e+00  2.46259950e+00
  2.53712818e+00  2.61452335e+00  2.68905202e+00  2.76358070e+00
  2.83237640e+00  2.89830562e+00  2.95850186e+00  3.01296512e+00
  3.06456190e+00  3.11615868e+00  3.16488897e+00  3.21361926e+00
  3.25948306e+00  3.30821335e+00  3.35981012e+00  3.41140690e+00
  3.46873665e+00  3.52606641e+00  3.58912913e+00  3.65792483e+00
  3.72958703e+00  3.80984868e+00  3.89297682e+00  3.98470442e+00
  4.07929851e+00  4.17962558e+00  4.28281913e+00  4.38887917e+00
  4.50067219e+00  4.61246521e+00  4.72712471e+00  4.84178422e+00
  4.95644372e+00  5.07110323e+00  5.18289624e+00  5.29468926e+00
  5.40361579e+00  5.50680934e+00  5.60426992e+00  5.69026455e+00
  5.76479323e+00  5.82785595e+00  5.87085327e+00  5.89665166e+00
  5.90238463e+00  5.88518571e+00  5.84505488e+00  5.78199215e+00
  5.69599752e+00  5.58707099e+00  5.45807905e+00  5.30615521e+00
  5.13416595e+00  4.94497777e+00  4.73572418e+00  4.51500463e+00
  4.27708616e+00  4.03343471e+00  3.78405029e+00  3.53179938e+00
  3.28814793e+00  3.05022946e+00  2.82377694e+00  2.61452335e+00
  2.41960219e+00  2.24187996e+00  2.08135665e+00  1.93516578e+00
  1.80330735e+00  1.68004839e+00  1.57112186e+00  1.47079479e+00
  1.37906719e+00  1.29880553e+00  1.23287632e+00  1.17841306e+00
  1.14114872e+00  1.12394979e+00  1.12681628e+00  1.15261467e+00]",0.6058197008932904,4.846943894238079,3.6586399999999997,0.0031999999999996476
051,1,2,csm,42a.png,1,1,184,230,183,1,1,513,neu_feedback_onset,13,"[-1.14603954 -1.07883957 -0.98643961 -0.87723965 -0.7484397  -0.60843976
 -0.45723982 -0.30043988 -0.14083994  0.01315999  0.16435993  0.30435988
  0.43595983  0.55075978  0.65155974  0.73555971  0.80555968  0.85875966
  0.89795964  0.92595963  0.94555962  0.95395962  0.95675962  0.95675962
  0.95675962  0.95955962  0.96515961  0.97915961  0.9987596   1.02675959
  1.06315957  1.10235956  1.14715954  1.19475952  1.2423595   1.28435949
  1.32075947  1.34875946  1.36835945  1.37955945  1.37955945  1.37115945
  1.35435946  1.32915947  1.29555948  1.2535595   1.20875952  1.15835954
  1.10235956  1.04355958  0.97915961  0.91475963  0.84755966  0.78035969
  0.71035972  0.64595974  0.58155977  0.52275979  0.46955981  0.42475983
  0.38835984  0.36595985  0.35755986  0.36315985  0.38275985  0.41915983
  0.46395981  0.51995979  0.58435977  0.65155974  0.71875971  0.78595969
  0.85035966  0.90915964  0.96515961  1.01555959  1.06315957  1.10515956
  1.14715954  1.18355953  1.22275951  1.2591595   1.29835948  1.33755946
  1.37955945  1.42435943  1.47475941  1.52795939  1.58395937  1.64555934
  1.71275931  1.77995929  1.84715926  1.91435923  1.97595921  2.03475919
  2.08795916  2.13275915  2.16635913  2.19155912  2.20275912  2.20275912
  2.19155912  2.16635913  2.12715915  2.07675917  2.01515919  1.94515922
  1.86675925  1.78555929  1.69875932  1.61475935  1.53075939  1.44675942
  1.37115945  1.29835948  1.23115951  1.16955953  1.11075956  1.05755958
  1.0099596   0.96235962  0.92035963  0.87835965  0.83915966  0.79995968
  0.7607597   0.72435971  0.68795972  0.65155974  0.61795975  0.58435977
  0.55355978  0.52835979  0.5087598   0.4975598   0.4975598   0.5115598
  0.53955978  0.58715977  0.65715974  0.7467597   0.85875966  0.9903596
  1.14155954  1.30675948  1.48315941  1.66235934  1.84155926  2.0095592
  2.16915913  2.30915908  2.42675903  2.51915899  2.58915896  2.63395895
  2.65355894  2.65355894  2.63395895  2.60035896  2.55835898  2.507959
  2.46035902  2.41555903  2.37915905  2.35675906  2.34835906  2.35955906
  2.39315904  2.44635902  2.51915899  2.61155896  2.71795891  2.84115886
  2.97555881  3.11555875  3.2583587   3.40395864  3.54955858  3.68955852
  3.82395847  3.95275842  4.07315837  4.18795832  4.28875828  4.38115825
  4.46235822  4.53515819  4.59675816  4.65275814  4.69755812  4.7395581
  4.77875809  4.81235808  4.84595806  4.87955805  4.91035804  4.94115802
  4.96635801  4.991558    5.008358    5.01675799  5.01955799  5.011158
  4.994358    4.96635801  4.92715803  4.88235805  4.82635807  4.76475809
  4.69475812  4.62195815  4.54635818  4.46515821  4.38675825  4.30275828
  4.22155831  4.14035834  4.06195838  3.98075841  3.89675844  3.81275847
  3.72315851  3.62795855  3.52155859  3.40675864  3.27795869  3.13515875
  2.98395881  2.81875887  2.64515894  2.46315901  2.28115909  2.10195916
  1.92555923  1.7603593   1.60355936  1.46355941  1.33755946  1.22555951
  1.12475955  1.03795958  0.95955962  0.88675965  0.81955967  0.7523597
  0.68515973  0.61515975  0.54235978  0.46675981  0.38275985  0.29595988
  0.20355992  0.10835996  0.01036    -0.08763996 -0.19123992 -0.29203988
 -0.39563984 -0.4964398 ]","[-0.12730684 -0.12458951 -0.1137202  -0.09741623 -0.07296027 -0.04578699
 -0.01317904  0.0194289   0.05475417  0.08736211  0.1145354   0.13627403
  0.14714334  0.14714334  0.13083937  0.09823143  0.04388486 -0.02948301
 -0.12187219 -0.23328266 -0.36371443 -0.51045017 -0.67077255 -0.84196425
 -1.02130793 -1.20336894 -1.38814728 -1.5702083  -1.75226931 -1.92889566
 -2.10008736 -2.2658444  -2.42616679 -2.58105451 -2.73050758 -2.874526
 -3.01310975 -3.14897618 -3.27940795 -3.40712239 -3.52396752 -3.63537799
 -3.73863647 -3.82830831 -3.90711084 -3.9696094  -4.01852131 -4.04841193
 -4.05928124 -4.05384658 -4.03210795 -3.99678268 -3.94515344 -3.88537221
 -3.817439   -3.7413538  -3.65983394 -3.57559676 -3.48864225 -3.40168773
 -3.31201589 -3.22506138 -3.13810686 -3.05115235 -2.96691517 -2.88539531
 -2.80659278 -2.73050758 -2.65985704 -2.59735848 -2.54572924 -2.50225199
 -2.47236137 -2.46149206 -2.46692672 -2.49138267 -2.54029459 -2.61094513
 -2.70605163 -2.82017943 -2.95604585 -3.10549892 -3.26853863 -3.437013
 -3.6082047  -3.77667907 -3.93428413 -4.08101987 -4.21145164 -4.32014478
 -4.40709929 -4.47503251 -4.51850976 -4.54024839 -4.54568305 -4.53209641
 -4.50764045 -4.46959785 -4.42340326 -4.36905669 -4.30384081 -4.23319027
 -4.15167041 -4.06199857 -3.95874008 -3.84732961 -3.71961517 -3.58103142
 -3.42886102 -3.26582131 -3.09191228 -2.91528592 -2.73865957 -2.56475054
 -2.40171083 -2.25225776 -2.12182599 -2.01313285 -1.93161299 -1.87726642
 -1.85281046 -1.85824512 -1.89085306 -1.94791696 -2.02943682 -2.12997798
 -2.24954043 -2.38268953 -2.52670794 -2.67887834 -2.8364834  -2.99680578
 -3.15441084 -3.30929856 -3.46146896 -3.60548737 -3.74407113 -3.87722023
 -4.00221734 -4.1217798 ]",4.607258157096714,-0.4880322057778445,3.5714300000000008,0.013664999999999594
051,1,2,csm,18a.png,1,1,292,294,NaN,0,1,491,neu_feedback_onset,14,"[-2.66752392e-02 -2.39393173e-02 -2.12033953e-02 -2.12033953e-02
 -2.39393173e-02 -2.39393173e-02 -2.66752392e-02 -2.39393173e-02
 -2.12033953e-02 -1.84674733e-02 -1.02597074e-02 -2.05194148e-03
  8.89174641e-03  1.98354343e-02  3.07791222e-02  4.17228101e-02
  4.44587320e-02  4.44587320e-02  3.62509661e-02  1.70995123e-02
 -1.02597074e-02 -5.12985370e-02 -1.00545132e-01 -1.60735416e-01
 -2.29133465e-01 -3.05739280e-01 -3.82345096e-01 -4.61686833e-01
 -5.41028570e-01 -6.14898463e-01 -6.86032434e-01 -7.48958640e-01
 -8.09148923e-01 -8.66603284e-01 -9.21321724e-01 -9.78776085e-01
 -1.04170229e+00 -1.11010034e+00 -1.18944208e+00 -1.28246342e+00
 -1.38369254e+00 -1.49860126e+00 -1.62445367e+00 -1.76124977e+00
 -1.90078179e+00 -2.04578565e+00 -2.19078952e+00 -2.33305746e+00
 -2.46711764e+00 -2.58749820e+00 -2.69146324e+00 -2.77901274e+00
 -2.84193895e+00 -2.88297778e+00 -2.89939331e+00 -2.89118554e+00
 -2.86382632e+00 -2.82005157e+00 -2.75986129e+00 -2.69419916e+00
 -2.62306519e+00 -2.55193122e+00 -2.48079725e+00 -2.41239920e+00
 -2.34947299e+00 -2.29201863e+00 -2.24003611e+00 -2.19352544e+00
 -2.15522253e+00 -2.11965555e+00 -2.09229633e+00 -2.07040895e+00
 -2.05399342e+00 -2.04031381e+00 -2.03210604e+00 -2.02663420e+00
 -2.02116236e+00 -2.01569051e+00 -2.01021867e+00 -2.00201090e+00
 -1.99380314e+00 -1.98559537e+00 -1.97738760e+00 -1.97465168e+00
 -1.97465168e+00 -1.98285945e+00 -1.99653906e+00 -2.01842643e+00
 -2.04852158e+00 -2.08135264e+00 -2.12239147e+00 -2.16343030e+00
 -2.20720505e+00 -2.25097980e+00 -2.29475455e+00 -2.33579338e+00
 -2.37683221e+00 -2.41239920e+00 -2.44796618e+00 -2.48079725e+00
 -2.50815647e+00 -2.53277977e+00 -2.55466714e+00 -2.56834675e+00
 -2.57381859e+00 -2.57108267e+00 -2.55740306e+00 -2.53277977e+00
 -2.49721278e+00 -2.44523026e+00 -2.38230406e+00 -2.30843416e+00
 -2.22362058e+00 -2.13059924e+00 -2.03757789e+00 -1.94455654e+00
 -1.85427112e+00 -1.77219346e+00 -1.70105949e+00 -1.63813328e+00
 -1.58615076e+00 -1.54511193e+00 -1.51228087e+00 -1.48765757e+00
 -1.46577020e+00 -1.44935466e+00 -1.43567505e+00 -1.42199544e+00
 -1.41105176e+00 -1.39737215e+00 -1.38642846e+00 -1.37822069e+00
 -1.37001293e+00 -1.36727701e+00 -1.36727701e+00 -1.37274885e+00
 -1.38369254e+00 -1.40284399e+00 -1.43020321e+00 -1.46303427e+00
 -1.50407310e+00 -1.55058378e+00 -1.59983037e+00 -1.65181289e+00
 -1.69832356e+00 -1.74209832e+00 -1.77766530e+00 -1.80228860e+00
 -1.81049636e+00 -1.80502452e+00 -1.78040122e+00 -1.73389055e+00
 -1.66822842e+00 -1.58615076e+00 -1.48765757e+00 -1.37548477e+00
 -1.25510420e+00 -1.13472364e+00 -1.01707899e+00 -9.07642114e-01
 -8.11884845e-01 -7.35279030e-01 -6.75088746e-01 -6.39521761e-01
 -6.20370307e-01 -6.23106229e-01 -6.42257683e-01 -6.69616903e-01
 -7.07919810e-01 -7.48958640e-01 -7.89997469e-01 -8.25564455e-01
 -8.55659597e-01 -8.77546972e-01 -8.88490660e-01 -8.88490660e-01
 -8.77546972e-01 -8.55659597e-01 -8.25564455e-01 -7.89997469e-01
 -7.46222718e-01 -6.96976122e-01 -6.44993605e-01 -5.90275165e-01
 -5.32820804e-01 -4.72630521e-01 -4.09704315e-01 -3.46778110e-01
 -2.78380061e-01 -2.04510167e-01 -1.30640274e-01 -4.85626150e-02
  3.35150442e-02  1.21064547e-01  2.11349972e-01  3.01635397e-01
  3.89184900e-01  4.73998482e-01  5.53340219e-01  6.24474190e-01
  6.87400395e-01  7.39382913e-01  7.80421742e-01  8.07780962e-01
  8.24196494e-01  8.26932416e-01  8.18724650e-01  7.96837274e-01
  7.64006211e-01  7.20231459e-01  6.65513020e-01  6.02586814e-01
  5.25980999e-01  4.43903340e-01  3.50881993e-01  2.49652880e-01
  1.40216001e-01  2.25713563e-02 -1.06016976e-01 -2.48284919e-01
 -4.04232471e-01 -5.76595555e-01 -7.70846015e-01 -9.89719773e-01
 -1.23595275e+00 -1.50954495e+00 -1.81323229e+00 -2.14427885e+00
 -2.50815647e+00 -2.89665739e+00 -3.30978161e+00 -3.74205728e+00
 -4.19622032e+00 -4.66406298e+00 -5.14284933e+00 -5.63257936e+00
 -6.12778124e+00 -6.63119088e+00 -7.14007237e+00 -7.65442570e+00
 -8.17151495e+00 -8.69134012e+00 -9.21116530e+00 -9.73099047e+00
 -1.02426079e+01 -1.07487534e+01 -1.12412194e+01 -1.17172698e+01
 -1.21714329e+01 -1.26037085e+01 -1.30113609e+01 -1.33916541e+01
 -1.37445880e+01 -1.40701627e+01 -1.43738501e+01 -1.46556500e+01
 -1.49210345e+01 -1.51700034e+01 -1.54052926e+01 -1.56269023e+01]","[-0.2136746  -0.35955686 -0.47969519 -0.56550829 -0.61985658 -0.63987963
 -0.62843789 -0.5826709  -0.50829956 -0.40246341 -0.27374377 -0.12214064
  0.04376468  0.22111174  0.40704011  0.59296848  0.77603641  0.95338347
  1.12214922  1.27947322  1.42821592  1.56551687  1.69137607  1.8115144
  1.92307142  2.02604713  2.12616241  2.22055681  2.30636991  2.38646213
  2.45797304  2.52090264  2.56953006  2.60671573  2.63245966  2.64390141
  2.64104097  2.62673879  2.6038553   2.56953006  2.52948395  2.48371697
  2.43222911  2.38074125  2.32639296  2.26918423  2.21483594  2.16334808
  2.11472066  2.07181412  2.03176801  2.00316364  1.98314059  1.97741971
  1.98028015  2.00030321  2.03462844  2.08039543  2.14046459  2.2119755
  2.29492816  2.38646213  2.48371697  2.58669268  2.69252883  2.80408585
  2.91278243  3.02147902  3.12731517  3.23029088  3.33040615  3.42480056
  3.51347409  3.59642674  3.67365853  3.742309    3.80809904  3.87102864
  3.92823737  3.9854461   4.03979439  4.09414268  4.14849098  4.20283927
  4.25718756  4.30867542  4.36016327  4.40879069  4.45741811  4.5031851
  4.54895208  4.59185863  4.63190474  4.67481128  4.71485739  4.7549035
  4.79494961  4.83499572  4.8721814   4.91222751  4.95513405  4.99518016
  5.03808671  5.07813282  5.1238998   5.16680635  5.2097129   5.25261944
  5.29552599  5.3355721   5.37275778  5.40708301  5.43568738  5.46143131
  5.48145436  5.49575654  5.50719829  5.5157796   5.52150047  5.52722134
  5.53008178  5.53294222  5.53866309  5.54438396  5.55296527  5.56440702
  5.5787092   5.59587182  5.61875531  5.6416388   5.66738273  5.69884753
  5.73031233  5.76177713  5.79610237  5.83328804  5.86761328  5.90193852
  5.93626376  5.97058899]",0.18132322866151634,5.685226404225689,3.655075,
051,2,2,csp,33b.png,1,1,300,131,301,1,1,255,pos_feedback_onset,1,"[ 1.14795303  1.04880676  0.9416216   0.82371793  0.700455    0.57451244
  0.44321062  0.31190881  0.17792736  0.04662554 -0.08199665 -0.2079392
 -0.32852251 -0.44910581 -0.56968911 -0.68491315 -0.80281683 -0.91804087
 -1.03058528 -1.1431297  -1.25299449 -1.35750001 -1.45664628 -1.54775367
 -1.63082216 -1.70049252 -1.76212398 -1.8103573  -1.85055174 -1.87734802
 -1.8934258  -1.90146469 -1.89878506 -1.89074617 -1.87198877 -1.84519248
 -1.81303693 -1.77552213 -1.73532769 -1.68709437 -1.64154068 -1.59330736
 -1.54239441 -1.49416109 -1.44324814 -1.39233519 -1.33338335 -1.27175189
 -1.20208154 -1.12169267 -1.03594454 -0.9394779  -0.83497237 -0.72510759
 -0.60720391 -0.48930024 -0.37139657 -0.2534929  -0.13558922 -0.02036518
  0.08949961  0.19668476  0.30119029  0.40033656  0.49948283  0.59594947
  0.68973649  0.7835235   0.87463088  0.96573826  1.05684565  1.14795303
  1.23638079  1.32748817  1.41859555  1.50970294  1.60348995  1.69727696
  1.79106397  1.88753061  1.98131763  2.0804639   2.17693054  2.27339718
  2.37254345  2.46901009  2.56815636  2.66730263  2.76376927  2.86291554
  2.96206181  3.06120808  3.16035435  3.25950062  3.36132652  3.46315242
  3.56765795  3.67484311  3.78470789  3.89457268  4.00711709  4.12234114
  4.24024481  4.35814848  4.47605216  4.59395583  4.70917987  4.82172429
  4.93158907  5.0360946   5.13524087  5.22902788  5.31477601  5.38980562
  5.45679634  5.51306855  5.55594261  5.58541853  5.59881668  5.59613705
  5.57737964  5.5452241   5.49699078  5.43267968  5.35765007  5.27190195
  5.17543531  5.07092978  4.95838536  4.84048169  4.71989839  4.59663546
  4.4706929   4.34207071  4.21612815  4.09018559  3.96692266  3.84633936
  3.73111532  3.62125053  3.51942463  3.42831725  3.34524875  3.2755784
  3.21662656  3.16839324  3.13623769  3.11212103  3.10140252  3.09872289
  3.10408215  3.1094414   3.11748029  3.12283955  3.12015992  3.11212103
  3.090684    3.06120808  3.02369328  2.97545996  2.92186738  2.86291554
  2.80664334  2.75573039  2.71017669  2.67802115  2.65926375  2.65390449
  2.664623    2.69141929  2.73429336  2.78788593  2.85219703  2.92454701
  2.99957662  3.07728586  3.1549951   3.22734508  3.2943358   3.35328764
  3.40420059  3.44707465  3.48190983  3.50602649  3.51942463  3.52210426
  3.516745    3.50066723  3.47387094  3.43903576  3.3961617   3.34524875
  3.28897654  3.23002471  3.17107287  3.12015992  3.07460623  3.04513031
  3.03441179  3.04780994  3.08532474  3.1549951   3.25146174  3.37472467
  3.51942463  3.68020237  3.84901899  4.01515598  4.17593372  4.32063368
  4.44925587  4.55912065  4.64486878  4.70650024  4.74937431  4.76813171
  4.76813171  4.74937431  4.70917987  4.65022804  4.5725188   4.48141141
  4.37422626  4.25632258  4.1277004   3.99371895  3.8597375   3.72843569
  3.5998135   3.48190983  3.37204504  3.2755784   3.18983027  3.11480066
  3.0531692   3.00225625  2.96206181  2.9325859   2.91382849  2.90310998
  2.90310998  2.91382849  2.93794515  2.97278033  3.02101365  3.07728586
  3.14159695  3.21394693  3.28361728  3.35060801  3.40688022  3.44707465
  3.46851168  3.46583205  3.43903576  3.38276355  3.30237469  3.19786916
  3.07460623  2.93794515]","[-0.09685722 -0.17917943 -0.24606622 -0.30009017 -0.3386787  -0.35668669
 -0.35925925 -0.34382384 -0.30780788 -0.2563565  -0.1894697  -0.1071475
 -0.01196245  0.09351288  0.20670592  0.32504409  0.44595483  0.56172043
  0.67748603  0.78296136  0.87814641  0.96046862  1.02735541  1.07366165
  1.10195991  1.10967762  1.0942422   1.05565367  0.99648458  0.91673495
  0.81897733  0.70578429  0.57715584  0.44080969  0.29417326  0.14496426
 -0.00424474 -0.15345374 -0.30009017 -0.43900889 -0.57278248 -0.69369322
 -0.80945882 -0.91493415 -1.0101192  -1.10273168 -1.1927716  -1.28281151
 -1.37542399 -1.47060904 -1.56836666 -1.66612428 -1.76130933 -1.84620411
 -1.91823604 -1.97225999 -2.00570339 -2.01342109 -1.99798568 -1.96196971
 -1.9053732  -1.83591383 -1.75359163 -1.66869685 -1.58122951 -1.50147987
 -1.42687537 -1.36513372 -1.31625491 -1.28023894 -1.25965839 -1.25451325
 -1.25965839 -1.2750938  -1.30081949 -1.33426289 -1.37285142 -1.41401253
 -1.46031877 -1.50919758 -1.56064896 -1.61724547 -1.67384199 -1.73558365
 -1.79989787 -1.86935723 -1.9465343  -2.02628394 -2.11632385 -2.2115089
 -2.3195568  -2.43274983 -2.55366057 -2.68228902 -2.81091747 -2.94211848
 -3.06817436 -3.18651254 -3.28941529 -3.37688264 -3.43862429 -3.47464026
 -3.47721283 -3.446342   -3.38460034 -3.28941529 -3.16850455 -3.02958583
 -2.88037683 -2.73116783 -2.58967654 -2.4687658  -2.37615331 -2.31441166
 -2.28868597 -2.29640368 -2.33756478 -2.40702414 -2.49706406 -2.59996681
 -2.71058728 -2.82120774 -2.92668307 -3.01929555 -3.09904519 -3.16078685
 -3.20966566 -3.24053648 -3.2559719  -3.2559719  -3.24053648 -3.21223823
 -3.17107712 -3.11705317 -3.05016638 -2.97298931 -2.88037683 -2.78004664
 -2.66685361 -2.5433703 ]",4.858167241000475,0.23648340114195285,3.7318599999999997,-0.011214999999999087
051,2,2,csp,2b.png,1,1,152,307,152,1,1,220,pos_feedback_onset,2,"[-3.48966001e-01 -2.89927986e-01 -2.25756232e-01 -1.59017607e-01
 -9.74127232e-02 -4.35084495e-02  1.28343509e-04  3.60645260e-02
  6.17332277e-02  7.97013190e-02  9.25356699e-02  1.00236280e-01
  1.07936891e-01  1.13070631e-01  1.15637501e-01  1.15637501e-01
  1.13070631e-01  1.00236280e-01  7.97013190e-02  4.88988769e-02
  5.26208386e-03 -5.63428004e-02 -1.33348906e-01 -2.28323102e-01
 -3.36131650e-01 -4.61908288e-01 -5.97952408e-01 -7.46830878e-01
 -9.00843089e-01 -1.06512278e+00 -1.23453621e+00 -1.40908338e+00
 -1.58876430e+00 -1.77871269e+00 -1.97892856e+00 -2.18941192e+00
 -2.41272962e+00 -2.64631481e+00 -2.89530122e+00 -3.15455510e+00
 -3.42407647e+00 -3.70129845e+00 -3.98365417e+00 -4.26857676e+00
 -4.55093248e+00 -4.83072133e+00 -5.10024270e+00 -5.35949659e+00
 -5.59821551e+00 -5.81896635e+00 -6.01661535e+00 -6.18859565e+00
 -6.33234038e+00 -6.45041641e+00 -6.54282374e+00 -6.61212923e+00
 -6.66089977e+00 -6.69426908e+00 -6.71223717e+00 -6.71737091e+00
 -6.71480404e+00 -6.70453656e+00 -6.68400160e+00 -6.65576602e+00
 -6.61982984e+00 -6.57362618e+00 -6.51972191e+00 -6.45811702e+00
 -6.38881153e+00 -6.30923855e+00 -6.22709871e+00 -6.13725825e+00
 -6.04741779e+00 -5.95501047e+00 -5.86260314e+00 -5.77789642e+00
 -5.69575658e+00 -5.62645108e+00 -5.56484620e+00 -5.51864254e+00
 -5.48784009e+00 -5.47243887e+00 -5.47243887e+00 -5.48784009e+00
 -5.52120941e+00 -5.56484620e+00 -5.62131734e+00 -5.68548910e+00
 -5.75222772e+00 -5.81383261e+00 -5.86773688e+00 -5.90623993e+00
 -5.91650741e+00 -5.89597245e+00 -5.83693444e+00 -5.72912589e+00
 -5.57254681e+00 -5.36719720e+00 -5.11564392e+00 -4.82558759e+00
 -4.50729569e+00 -4.17616943e+00 -3.83734257e+00 -3.51135006e+00
 -3.20332564e+00 -2.92096992e+00 -2.66684977e+00 -2.44609893e+00
 -2.25615054e+00 -2.09187085e+00 -1.94812612e+00 -1.82491635e+00
 -1.71454093e+00 -1.61443300e+00 -1.52459254e+00 -1.43988583e+00
 -1.36031285e+00 -1.28844049e+00 -1.21913499e+00 -1.15496324e+00
 -1.09849209e+00 -1.04972156e+00 -1.00608477e+00 -9.72715453e-01
 -9.44479882e-01 -9.26511790e-01 -9.13677439e-01 -9.08543699e-01
 -9.08543699e-01 -9.13677439e-01 -9.23944920e-01 -9.34212401e-01
 -9.44479882e-01 -9.57314232e-01 -9.67581713e-01 -9.80416064e-01
 -9.90683545e-01 -1.00608477e+00 -1.02405286e+00 -1.04972156e+00
 -1.08309087e+00 -1.12929453e+00 -1.19089942e+00 -1.27303926e+00
 -1.37828094e+00 -1.50405758e+00 -1.65293605e+00 -1.81978261e+00
 -2.00459726e+00 -2.19454566e+00 -2.38449405e+00 -2.56674183e+00
 -2.73102152e+00 -2.87219938e+00 -2.98257480e+00 -3.05958091e+00
 -3.10321770e+00 -3.11348518e+00 -3.09808396e+00 -3.06214778e+00
 -3.01081037e+00 -2.95177236e+00 -2.89273435e+00 -2.83626320e+00
 -2.78749267e+00 -2.74642275e+00 -2.71562030e+00 -2.68995160e+00
 -2.66941664e+00 -2.64888168e+00 -2.63091359e+00 -2.61037863e+00
 -2.58984366e+00 -2.56417496e+00 -2.53850626e+00 -2.51283756e+00
 -2.48716886e+00 -2.46406703e+00 -2.44609893e+00 -2.43326458e+00
 -2.42813084e+00 -2.43326458e+00 -2.44609893e+00 -2.46663390e+00
 -2.49743634e+00 -2.53337252e+00 -2.57187557e+00 -2.61037863e+00
 -2.64374794e+00 -2.66684977e+00 -2.67455038e+00 -2.66171603e+00
 -2.62577985e+00 -2.56160809e+00 -2.47433451e+00 -2.35882535e+00
 -2.22278123e+00 -2.07133589e+00 -1.91218994e+00 -1.75561086e+00
 -1.60673239e+00 -1.47582201e+00 -1.37314720e+00 -1.30384171e+00
 -1.27303926e+00 -1.28073987e+00 -1.32951041e+00 -1.41678399e+00
 -1.53229315e+00 -1.67347101e+00 -1.82748322e+00 -1.98662917e+00
 -2.13807451e+00 -2.27925237e+00 -2.39476153e+00 -2.48460199e+00
 -2.54107313e+00 -2.56160809e+00 -2.54877374e+00 -2.50257008e+00
 -2.42556397e+00 -2.32545604e+00 -2.20481314e+00 -2.07133589e+00
 -1.93015803e+00 -1.78898017e+00 -1.65293605e+00 -1.52459254e+00
 -1.40908338e+00 -1.30897545e+00 -1.22426873e+00 -1.15496324e+00
 -1.09849209e+00 -1.05742217e+00 -1.02661973e+00 -1.00608477e+00
 -9.93250415e-01 -9.82982934e-01 -9.80416064e-01 -9.82982934e-01
 -9.90683545e-01 -1.00865164e+00 -1.03945408e+00 -1.08309087e+00
 -1.14982950e+00 -1.24223682e+00 -1.36287972e+00 -1.51432506e+00
 -1.69400597e+00 -1.89935559e+00 -2.12524016e+00 -2.36395909e+00
 -2.60524489e+00 -2.84139694e+00 -3.06984839e+00 -3.28033174e+00
 -3.47798075e+00 -3.66022853e+00 -3.82964196e+00 -3.99135478e+00]","[-0.9907692  -0.86792585 -0.75009652 -0.63477419 -0.52195888 -0.41415757
 -0.30635627 -0.20356898 -0.10328869 -0.00551542  0.08975085  0.18251012
  0.27526938  0.36301463  0.45075987  0.53599811  0.61622234  0.69393956
  0.76413576  0.82681094  0.88196509  0.92458421  0.9546683   0.97221735
  0.97221735  0.9571753   0.92709122  0.87695108  0.81176889  0.72903766
  0.62625037  0.51092804  0.37805667  0.23014325  0.0722018  -0.09576767
 -0.27376517 -0.4592837  -0.64730923 -0.84034877 -1.03589533 -1.23144188
 -1.42448143 -1.61501396 -1.79802548 -1.97602298 -2.14399246 -2.29691989
 -2.43731229 -2.56015563 -2.66294293 -2.74567416 -2.80584233 -2.84846145
 -2.87102451 -2.87353152 -2.86350349 -2.84094043 -2.80834934 -2.76823722
 -2.7231111  -2.67547796 -2.62533782 -2.57269067 -2.52505754 -2.47491739
 -2.42979127 -2.38717215 -2.34455303 -2.30694792 -2.27435683 -2.24176574
 -2.21418866 -2.18661158 -2.16154151 -2.13897844 -2.11641538 -2.09635932
 -2.07630327 -2.05624721 -2.03619115 -2.0186421  -2.00360006 -1.99106503
 -1.98354401 -1.98354401 -1.99106503 -2.01362809 -2.0512332  -2.10889436
 -2.18661158 -2.29190588 -2.41976324 -2.57269067 -2.74567416 -2.9362067
 -3.13426026 -3.33482082 -3.52786037 -3.70836488 -3.86630633 -3.99667069
 -4.09444397 -4.16213316 -4.19723126 -4.20475228 -4.19221725 -4.16213316
 -4.12202105 -4.07689492 -4.03678281 -3.9991777  -3.96909362 -3.94402355
 -3.9264745  -3.91143245 -3.89639041 -3.87884136 -3.8562783  -3.83120823
 -3.79611013 -3.75850502 -3.71839291 -3.67828079 -3.6431827  -3.61560562
 -3.59805657 -3.59805657 -3.61811262 -3.66073175 -3.73092794 -3.82619421
 -3.95154457 -4.10196499 -4.27745549 -4.47801605 -4.69863268 -4.93429134
 -5.17747103 -5.42817174]",-0.30978348223570273,0.18564387462959958,3.8957949999999997,-0.15432500000000005
051,2,2,csm,37a.png,1,1,24,321,23,1,1,259,neu_feedback_onset,3,"[-1.03016876 -0.89439693 -0.7560141  -0.61502028 -0.47663745 -0.34086562
 -0.20770479 -0.08237695  0.03250691  0.13955778  0.23094266  0.30927256
  0.37193648  0.42154542  0.45548838  0.47898735  0.48943134  0.49465333
  0.49204233  0.48682034  0.48420934  0.48159835  0.48420934  0.49465333
  0.51293031  0.53904028  0.57559423  0.61475918  0.66436812  0.71658805
  0.77141899  0.83147191  0.88891384  0.94374477  0.9985757   1.04557364
  1.08473859  1.11345956  1.13173653  1.13434753  1.12129255  1.08734959
  1.03512966  0.96202175  0.86541487  0.74792001  0.60953719  0.44765539
  0.27010761  0.07428286 -0.13720788 -0.3591426  -0.59152131 -0.82912201
 -1.06933371 -1.30954541 -1.54714612 -1.78213582 -2.01190353 -2.23383826
 -2.45055099 -2.66204172 -2.86569947 -3.06413522 -3.24951599 -3.42184177
 -3.57850158 -3.70644042 -3.80565829 -3.86571122 -3.88398819 -3.86048922
 -3.78999231 -3.67510845 -3.52367064 -3.33828988 -3.12679914 -2.89703143
 -2.65420873 -2.40877504 -2.16073035 -1.92312965 -1.69336193 -1.48448219
 -1.29126844 -1.12416464 -0.98055982 -0.86306497 -0.77429108 -0.71162716
 -0.67507321 -0.66201822 -0.67246221 -0.70118317 -0.74557012 -0.80562304
 -0.87350896 -0.94661687 -1.02494677 -1.10327667 -1.17899558 -1.25210348
 -1.3226004  -1.38526432 -1.44531724 -1.49753718 -1.54453512 -1.58631107
 -1.62286502 -1.65419698 -1.68030695 -1.69597293 -1.70641692 -1.70641692
 -1.69597293 -1.67508496 -1.64375299 -1.60458804 -1.55497911 -1.50275917
 -1.44792824 -1.3957083  -1.34609937 -1.30171242 -1.26776946 -1.24688149
 -1.23382651 -1.2364375  -1.24949249 -1.27299146 -1.30954541 -1.35654335
 -1.41137429 -1.4766492  -1.54714612 -1.62286502 -1.70119492 -1.78213582
 -1.86307672 -1.94140662 -2.01190353 -2.07717845 -2.13200938 -2.17378533
 -2.20511729 -2.22339427 -2.22861626 -2.22339427 -2.20772829 -2.18422932
 -2.15550835 -2.12417639 -2.09545543 -2.07195646 -2.05629048 -2.05106849
 -2.06151247 -2.08501144 -2.12678739 -2.18684032 -2.26255922 -2.35133311
 -2.45577298 -2.56804584 -2.68554069 -2.80564654 -2.92575239 -3.04063625
 -3.14768711 -3.24429399 -3.33045689 -3.40617579 -3.46883971 -3.52105965
 -3.56283559 -3.59938955 -3.63072151 -3.66205347 -3.69077443 -3.7221064
 -3.75604935 -3.7952143  -3.83699025 -3.8813772  -3.92576414 -3.97276208
 -4.01714903 -4.05892497 -4.09547893 -4.12681089 -4.15030986 -4.16597584
 -4.17380883 -4.17641983 -4.17119783 -4.16336484 -4.15030986 -4.13464388
 -4.1189779  -4.10592292 -4.09808993 -4.09286793 -4.09808993 -4.10853391
 -4.13203288 -4.16075385 -4.20252979 -4.24952774 -4.30174767 -4.3565786
 -4.41402053 -4.46624046 -4.51062741 -4.54457037 -4.56023635 -4.55501435
 -4.52890439 -4.47668445 -4.39835455 -4.29130368 -4.16075385 -4.00148305
 -3.82393527 -3.62549952 -3.41661978 -3.19729605 -2.97536133 -2.7560376
 -2.54454687 -2.34611112 -2.16334134 -1.99884855 -1.85524373 -1.73513788
 -1.638531   -1.5602011  -1.50537017 -1.46620522 -1.44009525 -1.42181827
 -1.41398528 -1.40876329 -1.40354129 -1.3983193  -1.38787531 -1.37743133
 -1.35915435 -1.33304438 -1.30171242 -1.25732548 -1.20249455 -1.13199763
 -1.04583474 -0.94139487 -0.81867803 -0.67507321 -0.5158024  -0.33564363
 -0.14242987  0.06644987]","[ 2.21634824e-01  1.73917411e-01  1.28711442e-01  8.60169146e-02
  4.83452732e-02  1.56965173e-02 -1.19293531e-02 -3.45323380e-02
 -5.21124373e-02 -6.71810939e-02 -7.72268649e-02 -8.22497504e-02
 -8.47611932e-02 -8.22497504e-02 -7.72268649e-02 -6.46696511e-02
 -4.70895518e-02 -2.44865669e-02  6.27860690e-04  3.07651738e-02
  5.83910442e-02  8.35054718e-02  1.03597014e-01  1.11131342e-01
  1.03597014e-01  7.59711435e-02  2.57422883e-02 -5.46238801e-02
 -1.65127362e-01 -3.05768156e-01 -4.79057707e-01 -6.77461685e-01
 -9.03491533e-01 -1.14710148e+00 -1.40075720e+00 -1.66445869e+00
 -1.92313729e+00 -2.17930446e+00 -2.42542585e+00 -2.66150147e+00
 -2.88501987e+00 -3.09598106e+00 -3.29689648e+00 -3.49278902e+00
 -3.68365867e+00 -3.87201688e+00 -4.06037508e+00 -4.24873329e+00
 -4.44211438e+00 -4.63800692e+00 -4.83641090e+00 -5.03481488e+00
 -5.23070741e+00 -5.42157706e+00 -5.60240094e+00 -5.77066760e+00
 -5.92386561e+00 -6.05948352e+00 -6.17500989e+00 -6.27295616e+00
 -6.35583377e+00 -6.42113128e+00 -6.47387158e+00 -6.51656610e+00
 -6.55172630e+00 -6.58186362e+00 -6.61200093e+00 -6.63711536e+00
 -6.66474123e+00 -6.68985565e+00 -6.70994720e+00 -6.72501585e+00
 -6.73003874e+00 -6.71999297e+00 -6.68985565e+00 -6.62958103e+00
 -6.54168053e+00 -6.42113128e+00 -6.27044471e+00 -6.09464372e+00
 -5.89875119e+00 -5.69281288e+00 -5.48938602e+00 -5.29349348e+00
 -5.11769249e+00 -4.96700592e+00 -4.84394523e+00 -4.74599896e+00
 -4.67819000e+00 -4.63047259e+00 -4.60284672e+00 -4.59028951e+00
 -4.59028951e+00 -4.59782383e+00 -4.61289249e+00 -4.63298403e+00
 -4.65809846e+00 -4.69074722e+00 -4.72841886e+00 -4.77613627e+00
 -4.83138801e+00 -4.89919697e+00 -4.97705169e+00 -5.06746363e+00
 -5.17043278e+00 -5.28595915e+00 -5.41153129e+00 -5.54714920e+00
 -5.68778999e+00 -5.83596512e+00 -5.98665168e+00 -6.13733825e+00
 -6.28551337e+00 -6.42866561e+00 -6.56679496e+00 -6.69236710e+00
 -6.80287058e+00 -6.89830540e+00 -6.97364869e+00 -7.02387754e+00
 -7.05150341e+00 -7.05150341e+00 -7.02387754e+00 -6.97113724e+00
 -6.89077108e+00 -6.78780192e+00 -6.66474123e+00 -6.52158899e+00
 -6.36336810e+00 -6.19510143e+00 -6.01678899e+00 -5.83345367e+00
 -5.64760691e+00 -5.46427159e+00 -5.28595915e+00 -5.11769249e+00
 -4.95947159e+00 -4.81380791e+00 -4.68823577e+00 -4.58024374e+00]",0.33956012538005187,2.5652917290397425e-14,3.8299550000000004,0.09825499999999954
051,2,2,csp,14b.png,1,1,204,209,206,1,1,277,pos_feedback_onset,4,"[ 8.69260455e-01  7.56794081e-01  6.41712209e-01  5.29245834e-01
  4.16779460e-01  3.04313085e-01  1.97077705e-01  8.98423248e-02
 -1.21620614e-02 -1.06319956e-01 -1.92631360e-01 -2.71096273e-01
 -3.36483700e-01 -3.88793641e-01 -4.25410600e-01 -4.43719080e-01
 -4.46334577e-01 -4.30641595e-01 -3.99255630e-01 -3.52176682e-01
 -2.94635746e-01 -2.26632822e-01 -1.56014401e-01 -8.01649856e-02
 -4.31557018e-03  7.15338452e-02  1.47383261e-01  2.23232676e-01
  2.99082091e-01  3.74931507e-01  4.50780922e-01  5.24014840e-01
  5.94633262e-01  6.57405192e-01  7.12330630e-01  7.54178584e-01
  7.82949051e-01  7.96026537e-01  7.93411040e-01  7.75102560e-01
  7.43716595e-01  6.99253145e-01  6.41712209e-01  5.78940279e-01
  5.08321858e-01  4.29856945e-01  3.48776536e-01  2.65080629e-01
  1.78769226e-01  9.24578218e-02  6.14641814e-03 -8.01649856e-02
 -1.63860892e-01 -2.44941302e-01 -3.20790717e-01 -3.94024635e-01
 -4.59412062e-01 -5.19568495e-01 -5.69262940e-01 -6.13726390e-01
 -6.52958846e-01 -6.81729314e-01 -7.02653291e-01 -7.18346274e-01
 -7.28808262e-01 -7.31423759e-01 -7.31423759e-01 -7.26192765e-01
 -7.15730776e-01 -7.02653291e-01 -6.84344811e-01 -6.63420835e-01
 -6.37265864e-01 -6.03264402e-01 -5.66647443e-01 -5.24799489e-01
 -4.77720542e-01 -4.25410600e-01 -3.67869665e-01 -3.07713232e-01
 -2.42325805e-01 -1.74322880e-01 -1.01088962e-01 -2.26240498e-02
  6.36873539e-02  1.55229752e-01  2.54618641e-01  3.64469518e-01
  4.79551390e-01  6.05095250e-01  7.35870104e-01  8.71875952e-01
  1.01049730e+00  1.15173414e+00  1.28773999e+00  1.41851484e+00
  1.54144321e+00  1.64867859e+00  1.74022098e+00  1.81345490e+00
  1.86576484e+00  1.89976631e+00  1.91022829e+00  1.90499730e+00
  1.88145783e+00  1.84222537e+00  1.78991543e+00  1.72714350e+00
  1.65652508e+00  1.57806016e+00  1.49436426e+00  1.41066835e+00
  1.32435695e+00  1.23804554e+00  1.15434964e+00  1.07588472e+00
  1.00265081e+00  9.37263379e-01  8.77106946e-01  8.27412502e-01
  7.85564549e-01  7.48947589e-01  7.20177121e-01  6.94022151e-01
  6.67867180e-01  6.41712209e-01  6.15557238e-01  5.84171273e-01
  5.47554314e-01  5.05706361e-01  4.56011916e-01  3.98470980e-01
  3.33083553e-01  2.59849635e-01  1.76153728e-01  8.46113306e-02
 -2.00085527e-02 -1.37705921e-01 -2.65865278e-01 -4.09717618e-01
 -5.64031946e-01 -7.36654753e-01 -9.19739549e-01 -1.11590183e+00
 -1.32252610e+00 -1.53961236e+00 -1.76192961e+00 -1.98947786e+00
 -2.21441060e+00 -2.43672786e+00 -2.64858312e+00 -2.84736090e+00
 -3.02783020e+00 -3.18999102e+00 -3.32599686e+00 -3.43846324e+00
 -3.53000564e+00 -3.60062406e+00 -3.65554950e+00 -3.69739745e+00
 -3.72878341e+00 -3.75755388e+00 -3.78370885e+00 -3.81247932e+00
 -3.84648078e+00 -3.88309774e+00 -3.92494570e+00 -3.96940915e+00
 -4.01648809e+00 -4.06618254e+00 -4.11849248e+00 -4.16557143e+00
 -4.21265037e+00 -4.25188283e+00 -4.28849979e+00 -4.31203926e+00
 -4.32773225e+00 -4.33296324e+00 -4.32773225e+00 -4.31203926e+00
 -4.28849979e+00 -4.25972932e+00 -4.23357435e+00 -4.20741938e+00
 -4.19172640e+00 -4.18387991e+00 -4.19172640e+00 -4.20741938e+00
 -4.23618985e+00 -4.27019131e+00 -4.30680827e+00 -4.34604073e+00
 -4.38265769e+00 -4.41927464e+00 -4.45327611e+00 -4.48727757e+00
 -4.52389453e+00 -4.56051149e+00 -4.60235944e+00 -4.64420739e+00
 -4.68867084e+00 -4.73313429e+00 -4.77236675e+00 -4.80898371e+00
 -4.83513868e+00 -4.85606266e+00 -4.86914014e+00 -4.87437114e+00
 -4.87175564e+00 -4.86129365e+00 -4.84560067e+00 -4.82467669e+00
 -4.79852172e+00 -4.76452026e+00 -4.72267231e+00 -4.67297786e+00
 -4.61282143e+00 -4.54220301e+00 -4.46112260e+00 -4.36958020e+00
 -4.26496032e+00 -4.14726295e+00 -4.01910359e+00 -3.87786675e+00
 -3.72355242e+00 -3.55877610e+00 -3.38353780e+00 -3.19783751e+00
 -3.00167523e+00 -2.80289745e+00 -2.59627318e+00 -2.38964891e+00
 -2.18302464e+00 -1.97901587e+00 -1.78023809e+00 -1.58930680e+00
