sub,run,cat_cond,trial_type,picture,old,response_old,target_pos,response_pos,dot_resp_loc,cat_corr,TN_corr,TN_rt,feedback_type,trial,SP_timeseries,FB_timeseries,SP_peak_response,FB_peak_response,preStim_bl,anticipation
004,1,1,csp,53a.png,1,1,300,312,296,1,1,571,neg_feedback_onset,1,"[-2.57127311e+00 -2.45738798e+00 -2.32241301e+00 -2.15791227e+00
 -1.96177678e+00 -1.73189754e+00 -1.46616557e+00 -1.16247190e+00
 -8.22925498e-01 -4.51744341e-01 -5.10374092e-02  3.66541393e-01
  7.96774098e-01  1.22489782e+00  1.63825865e+00  2.02420270e+00
  2.37429402e+00  2.67798769e+00  2.92895677e+00  3.12509227e+00
  3.27061215e+00  3.36973439e+00  3.43300391e+00  3.47096562e+00
  3.49205546e+00  3.50892733e+00  3.52369022e+00  3.54056209e+00
  3.55743396e+00  3.56376091e+00  3.55532497e+00  3.51736326e+00
  3.43933086e+00  3.31490081e+00  3.13563719e+00  2.90364896e+00
  2.61893614e+00  2.28782568e+00  1.92297147e+00  1.53702743e+00
  1.13842948e+00  7.41940518e-01  3.58105458e-01 -4.63976447e-03
 -3.42077180e-01 -6.47879839e-01 -9.17829771e-01 -1.15403596e+00
 -1.35228044e+00 -1.51256322e+00 -1.63910225e+00 -1.73189754e+00
 -1.79305807e+00 -1.82680181e+00 -1.83734673e+00 -1.82891079e+00
 -1.80992994e+00 -1.78040417e+00 -1.75298738e+00 -1.72767957e+00
 -1.71502567e+00 -1.71502567e+00 -1.73189754e+00 -1.76564128e+00
 -1.82047486e+00 -1.89007133e+00 -1.97232170e+00 -2.06300800e+00
 -2.16002126e+00 -2.25281655e+00 -2.34350285e+00 -2.42153526e+00
 -2.48691376e+00 -2.53963835e+00 -2.57338209e+00 -2.59236295e+00
 -2.59658092e+00 -2.58814498e+00 -2.56705514e+00 -2.53542038e+00
 -2.49745867e+00 -2.45527900e+00 -2.40888135e+00 -2.36037472e+00
 -2.31397708e+00 -2.26968842e+00 -2.22961773e+00 -2.19376500e+00
 -2.16423923e+00 -2.14104040e+00 -2.11995057e+00 -2.10307869e+00
 -2.08198886e+00 -2.05879003e+00 -2.02504629e+00 -1.98286662e+00
 -1.92592405e+00 -1.85843657e+00 -1.78251315e+00 -1.70237176e+00
 -1.62644834e+00 -1.56528781e+00 -1.52943509e+00 -1.52732610e+00
 -1.57161476e+00 -1.66441005e+00 -1.80782096e+00 -2.00606544e+00
 -2.24648960e+00 -2.52698445e+00 -2.83067812e+00 -3.14913468e+00
 -3.46970023e+00 -3.78182984e+00 -4.07919656e+00 -4.35547345e+00
 -4.61487846e+00 -4.85530262e+00 -5.08729084e+00 -5.31506110e+00
 -5.54915830e+00 -5.79590941e+00 -6.05742341e+00 -6.34002725e+00
 -6.63739397e+00 -6.94952358e+00 -7.26798014e+00 -7.58432772e+00
 -7.88802139e+00 -8.16640726e+00 -8.41315837e+00 -8.61562082e+00
 -8.76957664e+00 -8.86448092e+00 -8.89822466e+00 -8.86869888e+00
 -8.77801258e+00 -8.62827472e+00 -8.42792126e+00 -8.18327913e+00
 -7.90489326e+00 -7.60752654e+00 -7.30172388e+00 -6.99592123e+00
 -6.70277247e+00 -6.42860457e+00 -6.17974448e+00 -5.95408320e+00
 -5.75583872e+00 -5.57868408e+00 -5.42051029e+00 -5.27499040e+00
 -5.13579747e+00 -5.00082250e+00 -4.85952059e+00 -4.71400070e+00
 -4.55582691e+00 -4.38499922e+00 -4.19729966e+00 -3.98851026e+00
 -3.76074000e+00 -3.50766194e+00 -3.23138505e+00 -2.93190935e+00
 -2.61134380e+00 -2.27812435e+00 -1.93646897e+00 -1.59903155e+00
 -1.27213906e+00 -9.68445384e-01 -6.96386467e-01 -4.60180276e-01
 -2.61935794e-01 -1.01653022e-01  2.69949933e-02  1.30335202e-01
  2.21021507e-01  3.11707813e-01  4.10830054e-01  5.35260101e-01
  6.84997954e-01  8.68479549e-01  1.08359590e+00  1.32402006e+00
  1.57920711e+00  1.83650314e+00  2.08325425e+00  2.30680653e+00
  2.49450610e+00  2.64213497e+00  2.74125721e+00  2.79609079e+00
  2.80874469e+00  2.78765485e+00  2.74336619e+00  2.68853261e+00
  2.63791700e+00  2.60417326e+00  2.59573732e+00  2.62315411e+00
  2.69064160e+00  2.79819977e+00  2.93739271e+00  3.10189345e+00
  3.27904809e+00  3.45409375e+00  3.61648550e+00  3.74935149e+00
  3.84636474e+00  3.89908934e+00  3.90963426e+00  3.88010849e+00
  3.82105694e+00  3.74302454e+00  3.66077417e+00  3.59117770e+00
  3.54899802e+00  3.54478005e+00  3.58695973e+00  3.67975502e+00
  3.81894795e+00  3.99610260e+00  4.19856505e+00  4.41157242e+00
  4.61403487e+00  4.78908053e+00  4.91772854e+00  4.98943399e+00
  4.99365196e+00  4.92616448e+00  4.78908053e+00  4.58872706e+00
  4.33143103e+00  4.02984634e+00  3.69240892e+00  3.33177269e+00
  2.95426458e+00  2.57042952e+00  2.18659446e+00  1.80486838e+00
  1.43157824e+00  1.06883301e+00  7.18741696e-01  3.83413264e-01
  6.70656864e-02 -2.30301036e-01 -5.04468937e-01 -7.55438015e-01
 -9.83208271e-01 -1.18356174e+00 -1.35860740e+00 -1.51045423e+00
 -1.63699326e+00 -1.74244246e+00 -1.82891079e+00 -1.89850726e+00
 -1.95334084e+00 -1.99762950e+00 -2.03137324e+00 -2.05879003e+00]","[-4.15150178 -3.82528342 -3.4734793  -3.09608943 -2.6973781  -2.27734531
 -1.84238749 -1.39250465 -0.92769679 -0.44796391  0.04456185  0.54774835
  1.06372772  1.58823567  2.12127221  2.66070519  3.20440246  3.75023187
  4.30032558  4.85041929  5.40051299  5.94421026  6.47511466  6.98469759
  7.46229833  7.88872756  8.2554567   8.54756072  8.7501146   8.86311835
  8.88017552  8.8098147   8.66269661  8.45374629  8.20428519  7.93563477
  7.67124865  7.42818399  7.2256301   7.07637987  6.98256544  6.95271539
  6.98469759  7.07851202  7.22989439  7.43458043  7.69043796  7.99107057
  8.32794966  8.6946788   9.08059726  9.47291215  9.8630949  10.23408833
 10.579496   10.89078934 11.1615719  11.39397583 11.58373684 11.73938351
 11.86091584 11.95899457 12.03788397 12.09971621 12.15301987 12.19779493
 12.23830571 12.27668434 12.31293083 12.34704517 12.3811595  12.41527384
 12.44938818 12.48350252 12.51761686 12.54959905 12.58371339 12.61782773
 12.65194207 12.6860564  12.72017074 12.75428508 12.78839942 12.82038161
 12.85449595 12.88861029 12.92485677 12.96110326 12.99734974 13.03786052
 13.08476773 13.13807139 13.20416792 13.28518947 13.39179678 13.53038628
 13.70948656 13.93975834 14.22546593 14.57727004 14.99517069 15.48130001
 16.02499728 16.61773391 17.24245274 17.87783229 18.50041897 19.08889131
 19.6197957  20.07181068 20.42787909 20.66881161 20.78821179 20.77541891
 20.62616868 20.3404611  19.92042831 19.37246674 18.71150144 17.95032526
 17.11025967 16.21689044 15.2958033  14.3811126  13.50053623 12.6903207
 11.97818388 11.39184369 10.94835729 10.66478185 10.54751381 10.58589244
 10.77138916 11.07628606 11.4664688  11.90569091 12.35130946 12.76494581
 13.1060892  13.351286  ]",3.170646319190503,16.006927342855505,4.741619999999999,0.26151500000000016
004,1,1,csp,44a.png,1,1,352,356,356,1,1,574,neg_feedback_onset,2,"[  1.23900134   1.25231576   1.17052721   1.0126563    0.79962567
   0.56377034   0.32981706   0.12059055  -0.04679066  -0.16852244
  -0.24460481  -0.29215629  -0.32449129  -0.36253248  -0.42720249
  -0.53181574  -0.68588254  -0.88559875  -1.12716026  -1.39154649
  -1.65783477  -1.90129835  -2.0991125   -2.22655046  -2.26649371
  -2.20562781  -2.04014866  -1.77195832  -1.41246914  -0.97879965
  -0.49567662   0.01407524   0.51812092   0.98983159   1.40067637
   1.72973261   1.96178383   2.08731973   2.10824238   2.03216002
   1.87238705   1.65174818   1.39116608   1.10966132   0.83005862
   0.56757446   0.33362118   0.13200291  -0.03347624  -0.16281626
  -0.2636254   -0.33780571  -0.39296542  -0.43481073  -0.46714573
  -0.49567662  -0.52420751  -0.56034663  -0.60219193  -0.66115577
  -0.73723813  -0.83804727  -0.96738729  -1.13096438  -1.33258265
  -1.57414417  -1.85945304  -2.18660722  -2.55180258  -2.95123501
  -3.38110038  -3.8318884   -4.29599084  -4.76579945  -5.23180395
  -5.68449403  -6.12006558  -6.53091036  -6.91512632  -7.27081138
  -7.5960635   -7.89849091  -8.1780936   -8.44057777  -8.6954537
  -8.94272139  -9.18998908  -9.43725677  -9.68832858  -9.94130245
 -10.19427632 -10.44344607 -10.68881171 -10.9265691  -11.15101209
 -11.36214065 -11.55615069 -11.73494425 -11.89471722 -12.03737166
 -12.16480962 -12.27703111 -12.37593819 -12.46153085 -12.53761322
 -12.60228323 -12.65934501 -12.70689649 -12.74493767 -12.7715665
 -12.78488091 -12.78297885 -12.7620562  -12.72211296 -12.66124707
 -12.5756544  -12.46913909 -12.33979907 -12.19143845 -12.02786136
 -11.8490678  -11.66076394 -11.46485185 -11.2670377  -11.06732148
 -10.86950733 -10.67549729 -10.48338932 -10.29508546 -10.11248778
  -9.93749834  -9.76821507  -9.61034416  -9.4638856   -9.33074146
  -9.21471585  -9.11580877  -9.03782435  -8.97886051  -8.94081933
  -8.92179874  -8.91989668  -8.93511315  -8.96364404  -9.00358728
  -9.05494288  -9.11580877  -9.18238085  -9.25656115  -9.33644764
  -9.4220403   -9.51333914  -9.61034416  -9.71305535  -9.82147273
  -9.93369422 -10.05352395 -10.17525573 -10.30079164 -10.43013166
 -10.55947168 -10.69071377 -10.81815173 -10.94368764 -11.06541942
 -11.18144503 -11.28986241 -11.3925736  -11.48767656 -11.57707334
 -11.65886188 -11.73304219 -11.79961426 -11.86048016 -11.91373781
 -11.95748517 -11.99172224 -12.01644901 -12.0259593  -12.02405724
 -12.00884077 -11.98030988 -11.94036664 -11.88901104 -11.83194927
 -11.77108337 -11.71021748 -11.65125365 -11.59799599 -11.54854245
 -11.50479509 -11.46104773 -11.41539831 -11.36214065 -11.29747064
 -11.21187798 -11.10536267 -10.97221852 -10.81054349 -10.6241417
 -10.41491519 -10.18476603  -9.94320451  -9.69593682  -9.44486501
  -9.19759732  -8.95793786  -8.72398459  -8.4995416   -8.2808048
  -8.07157829  -7.87186208  -7.68165616  -7.50476466  -7.34499169
  -7.20423931  -7.0882137   -6.9950128   -6.92653867  -6.87518307
  -6.83523983  -6.79719865  -6.75154923  -6.68687922  -6.59367832
  -6.46624035  -6.3007612   -6.09914293  -5.8632876   -5.60080343
  -5.32310279  -5.03779392  -4.75628916  -4.48619676  -4.23892906
  -4.01448608  -3.82047605  -3.6549969   -3.51804864  -3.40582715
  -3.31643037  -3.24605418  -3.18709034  -3.13953886  -3.09959562
  -3.0634565   -3.03112149  -3.0025906   -2.97405972  -2.94552883
  -2.9189      -2.89417323  -2.8675444   -2.84281763  -2.81809087
  -2.7933641   -2.76863733  -2.74391056  -2.71918379  -2.69445702]","[nan nan nan nan nan nan nan nan nan nan nan nan nan nan nan nan nan nan
 nan nan nan nan nan nan nan nan nan nan nan nan nan nan nan nan nan nan
 nan nan nan nan nan nan nan nan nan nan nan nan nan nan nan nan nan nan
 nan nan nan nan nan nan nan nan nan nan nan nan nan nan nan nan nan nan
 nan nan nan nan nan nan nan nan nan nan nan nan nan nan nan nan nan nan
 nan nan nan nan nan nan nan nan nan nan nan nan nan nan nan nan nan nan
 nan nan nan nan nan nan nan nan nan nan nan nan nan nan nan nan nan nan
 nan nan nan nan nan nan nan nan nan nan nan nan nan nan]",-0.11293476317461362,,5.25746,-0.2673899999999989
004,1,1,csp,10a.png,1,1,100,131,97,1,0,NaN,neg_feedback_onset,3,"[ 1.86628095e+00  1.52642965e+00  1.21144553e+00  9.21328570e-01
  6.54006515e-01  4.09479364e-01  1.87747117e-01 -9.11796156e-03
 -1.81115873e-01 -3.26174352e-01 -4.46365663e-01 -5.41689807e-01
 -6.10074519e-01 -6.55664326e-01 -6.82603758e-01 -6.90892814e-01
 -6.84676022e-01 -6.70170174e-01 -6.49447534e-01 -6.28724895e-01
 -6.10074519e-01 -5.97640935e-01 -5.97640935e-01 -6.10074519e-01
 -6.37013950e-01 -6.80531494e-01 -7.38554886e-01 -8.13156390e-01
 -9.02263741e-01 -1.00380468e+00 -1.11777920e+00 -1.24004277e+00
 -1.36852314e+00 -1.50322030e+00 -1.64413425e+00 -1.78712046e+00
 -1.93010668e+00 -2.07516516e+00 -2.21815137e+00 -2.36113759e+00
 -2.50205154e+00 -2.64089323e+00 -2.77559039e+00 -2.91028755e+00
 -3.03876791e+00 -3.16724828e+00 -3.29158412e+00 -3.41177543e+00
 -3.53196674e+00 -3.65008579e+00 -3.76820484e+00 -3.88425162e+00
 -4.00029841e+00 -4.11427293e+00 -4.23031971e+00 -4.34636649e+00
 -4.46034101e+00 -4.57638780e+00 -4.69036231e+00 -4.80433683e+00
 -4.91416683e+00 -5.01985229e+00 -5.11932096e+00 -5.20842831e+00
 -5.28717434e+00 -5.35141453e+00 -5.40322113e+00 -5.44259414e+00
 -5.46953357e+00 -5.48611169e+00 -5.49440074e+00 -5.50061753e+00
 -5.50476206e+00 -5.51305112e+00 -5.52341244e+00 -5.54413508e+00
 -5.57107451e+00 -5.61044753e+00 -5.65810960e+00 -5.71820525e+00
 -5.78658997e+00 -5.86740826e+00 -5.95858788e+00 -6.06012881e+00
 -6.16995880e+00 -6.29222238e+00 -6.42277501e+00 -6.56368896e+00
 -6.71081970e+00 -6.86623950e+00 -7.02580383e+00 -7.18951269e+00
 -7.35322154e+00 -7.51693040e+00 -7.67649472e+00 -7.83191452e+00
 -7.97904527e+00 -8.11995922e+00 -8.25258411e+00 -8.37691995e+00
 -8.49711126e+00 -8.61315805e+00 -8.72713257e+00 -8.84110709e+00
 -8.96129840e+00 -9.08356197e+00 -9.21411460e+00 -9.35295629e+00
 -9.49801477e+00 -9.64721778e+00 -9.80056531e+00 -9.95391285e+00
 -1.01031159e+01 -1.02481743e+01 -1.03849438e+01 -1.05113519e+01
 -1.06232541e+01 -1.07268673e+01 -1.08180469e+01 -1.08988652e+01
 -1.09734667e+01 -1.10439237e+01 -1.11123084e+01 -1.11827654e+01
 -1.12573669e+01 -1.13361129e+01 -1.14231480e+01 -1.15143276e+01
 -1.16117240e+01 -1.17111927e+01 -1.18127336e+01 -1.19122023e+01
 -1.20075265e+01 -1.20924893e+01 -1.21691631e+01 -1.22313310e+01
 -1.22769208e+01 -1.23038602e+01 -1.23121493e+01 -1.23017879e+01
 -1.22727763e+01 -1.22271864e+01 -1.21691631e+01 -1.21049229e+01
 -1.20406827e+01 -1.19826593e+01 -1.19349972e+01 -1.19018410e+01
 -1.18914797e+01 -1.18997687e+01 -1.19308527e+01 -1.19785148e+01
 -1.20386104e+01 -1.21069951e+01 -1.21774521e+01 -1.22396200e+01
 -1.22872821e+01 -1.23162938e+01 -1.23183661e+01 -1.22955712e+01
 -1.22416923e+01 -1.21588017e+01 -1.20489717e+01 -1.19163468e+01
 -1.17671438e+01 -1.16034350e+01 -1.14335093e+01 -1.12635837e+01
 -1.10998748e+01 -1.09465273e+01 -1.08056133e+01 -1.06833498e+01
 -1.05755920e+01 -1.04844124e+01 -1.04035941e+01 -1.03289926e+01
 -1.02523189e+01 -1.01673560e+01 -1.00678874e+01 -9.94562379e+00
 -9.79434852e+00 -9.61198929e+00 -9.39440157e+00 -9.14572989e+00
 -8.86390199e+00 -8.55927918e+00 -8.23186147e+00 -7.89408244e+00
 -7.55215888e+00 -7.21645212e+00 -6.89317894e+00 -6.59270066e+00
 -6.32123407e+00 -6.08499598e+00 -5.88605864e+00 -5.72442205e+00
 -5.60423073e+00 -5.51719565e+00 -5.45917225e+00 -5.42601603e+00
 -5.40529339e+00 -5.39285981e+00 -5.37835396e+00 -5.35763132e+00
 -5.32240283e+00 -5.27266850e+00 -5.20635605e+00 -5.12968228e+00
 -5.04471946e+00 -4.95768437e+00 -4.87686607e+00 -4.80848136e+00
 -4.76081929e+00 -4.73387986e+00 -4.73387986e+00 -4.75874703e+00
 -4.80848136e+00 -4.88101060e+00 -4.96804569e+00 -5.06958662e+00
 -5.17527209e+00 -5.28095755e+00 -5.38457075e+00 -5.47989489e+00
 -5.56692998e+00 -5.64567601e+00 -5.71198846e+00 -5.76793959e+00
 -5.81560166e+00 -5.85911920e+00 -5.89641996e+00 -5.93164844e+00
 -5.96894920e+00 -6.00624995e+00 -6.04769523e+00 -6.09742956e+00
 -6.15545296e+00 -6.22383767e+00 -6.30465596e+00 -6.39790784e+00
 -6.50773783e+00 -6.63000141e+00 -6.76677083e+00 -6.91390158e+00
 -7.07139364e+00 -7.23303023e+00 -7.39673909e+00 -7.56044794e+00
 -7.71794000e+00 -7.86507075e+00 -7.99976791e+00 -8.12203148e+00
 -8.22771695e+00 -8.31889656e+00 -8.39764259e+00 -8.45981051e+00
 -8.51161711e+00 -8.55513466e+00 -8.59036314e+00 -8.62144710e+00]","[-1.48145171 -1.47921859 -1.44572179 -1.37649507 -1.27600468 -1.14425061
 -0.9856991  -0.79811703 -0.59043689 -0.36042554 -0.11478236  0.14425954
  0.41446704  0.68914078  0.96828077  1.24518763  1.51762825  1.77890327
  2.02901269  2.2657234   2.48680226  2.69224929  2.88653071  3.07187966
  3.25499549  3.44257756  3.6390921   3.84900537  4.07678359  4.32242678
  4.5837018   4.86060866  5.14421488  5.4278211   5.70696108  5.97493546
  6.22727801  6.46398871  6.68283445  6.89274772  7.09596163  7.30364177
  7.51802128  7.75026574  8.00037516  8.27504891  8.56758761  8.88022438
  9.20179364  9.52782914  9.85163152 10.16650142 10.46350636 10.74264634
 10.99945512 11.23839894 11.45501157 11.65822547 11.85027378 12.03338961
 12.2120392  12.38845566 12.56710525 12.74575484 12.92887067 13.11421961
 13.3040348  13.49384999 13.68589829 13.8779466  14.07222803 14.26650946
 14.46079088 14.65283919 14.8448875  15.03246956 15.21781851 15.3964681
 15.56618521 15.7225036  15.86095703 15.97707926 16.06863717 16.12893141
 16.16019509 16.16242821 16.13786389 16.09543461 16.04183973 15.98601174
 15.9368831  15.9033863  15.88775446 15.88552134 15.89668694 15.90561942
 15.90561942 15.88328822 15.82522711 15.7225036  15.56841833 15.36520442
 15.11062876 14.8113907  14.4741896  14.10795795 13.71939509 13.31966664
 12.91547195 12.51127726 12.11824816 11.73638467 11.37461925 11.03295192
 10.71808202 10.4344758  10.18213325  9.96998687  9.80026976  9.67968129
  9.60822145  9.59482273  9.63278577  9.72434369  9.86503024 10.04591294
 10.26029245 10.49700315 10.74711258 11.00615448 11.26296326 11.51753892
 11.76541523 12.00435905 12.23437039 12.45544926 12.66759564 12.86857643
 13.05392538 13.22140937]",9.048317650695026e-16,15.285258729265484,4.82564,0.05010500000000029
004,1,1,csp,41a.png,1,1,336,151,338,1,1,496,pos_feedback_onset,4,"[-0.79703736 -0.87151716 -0.93358367 -0.98323687 -1.01633901 -1.02461454
 -1.00392571 -0.94806585 -0.8549661  -0.7163509  -0.53428916 -0.30257421
 -0.02534382  0.29326423  0.64704331  1.02978675  1.42494349  1.824238
  2.2131881   2.57938047  2.91040183  3.19383887  3.4276227   3.60554668
  3.7276108   3.79588396  3.81657279  3.79588396  3.7400241   3.65933765
  3.55796236  3.44417377  3.32624741  3.20625217  3.09039469  2.98488163
  2.89385076  2.82557761  2.78213105  2.76971775  2.79247547  2.85454198
  2.95798615  3.10487688  3.29107639  3.51865357  3.78347066  4.08138988
  4.40620458  4.75170812  5.10962496  5.47167957  5.8316653   6.1813066
  6.51439684  6.82266048  7.09989087  7.34195023  7.54470081  7.70193596
  7.81158678  7.8715844   7.87572217  7.82813785  7.72676256  7.57573407
  7.37919014  7.14126854  6.8702448   6.57439446  6.26199306  5.93924724
  5.6185703   5.30616889  5.00824967  4.7289504   4.47447774  4.24690055
  4.04621886  3.87243264  3.72554192  3.60140891  3.50003362  3.4152094
  3.34900513  3.30142081  3.26831867  3.25383649  3.26211202  3.29107639
  3.34693624  3.42555381  3.52486022  3.64278658  3.76898847  3.89519036
  4.01104784  4.10621648  4.17242075  4.203454    4.19931623  4.15793856
  4.08966541  4.00070342  3.9034659   3.81036614  3.73381745  3.68002648
  3.65726876  3.67175095  3.71933527  3.80002172  3.90967255  4.04001221
  4.18483405  4.33586254  4.48689104  4.63171288  4.76619031  4.89032331
  4.99997414  5.09721166  5.18203588  5.25651569  5.32271996  5.38271758
  5.43650855  5.48823064  5.53581496  5.5813304   5.62684583  5.67443015
  5.72201447  5.77166768  5.82338976  5.87924962  5.94131612  6.00752039
  6.07786243  6.15441112  6.23509757  6.3199218   6.4068149   6.49577689
  6.58680776  6.67370087  6.75438733  6.82886713  6.89300252  6.94265572
  6.97782674  6.99230893  6.98817116  6.96127567  6.91369135  6.84334932
  6.75645621  6.65094315  6.53301679  6.40267714  6.26406194  6.12130898
  5.97441826  5.8316653   5.69098122  5.55857268  5.44064632  5.33720215
  5.25444681  5.19444919  5.1551404   5.13858933  5.1427271   5.16548482
  5.20065584  5.24617127  5.29582448  5.34754656  5.39926865  5.44478409
  5.48616176  5.52133277  5.55236603  5.57512375  5.59581258  5.61236365
  5.62684583  5.63925913  5.65167243  5.66201685  5.67236127  5.68270569
  5.6930501   5.70132564  5.71167005  5.72201447  5.73029001  5.74063442
  5.75097884  5.75925437  5.76959879  5.77994321  5.78821874  5.79856316
  5.80890758  5.81718311  5.82752753  5.83787195  5.84614748  5.8564919
  5.86683632  5.87511185  5.88545627  5.89580068  5.90407622  5.91442064
  5.92476505  5.93304059  5.943385    5.95372942  5.96200495  5.97234937
  5.98269379  5.99096932  6.00131374  6.01165816  6.01993369  6.03027811
  6.04062253  6.04889806  6.05924248  6.0695869   6.07786243  6.08820685
  6.09855126  6.1068268   6.11717122  6.12751563  6.13579117  6.14613558
  6.15648     6.16475554  6.17509995  6.18544437  6.1937199   6.20406432
  6.21440874  6.22268427  6.23302869  6.24337311  6.25164864  6.26199306
  6.27233748  6.28061301  6.29095743  6.30130184  6.30957738  6.3199218
  6.33026621  6.33854175]","[-1.32204424 -1.12671733 -0.91544538 -0.69620089 -0.48094267 -0.27764324
 -0.09427513  0.06118914  0.18675644  0.28242676  0.34620697  0.3860696
  0.40600092  0.41397345  0.41596658  0.42393911  0.43789103  0.467788
  0.5116369   0.57342398  0.64916298  0.74084704  0.84448989  0.95809839
  1.07768629  1.20325359  1.33081401  1.46236071  1.5939074   1.72744722
  1.86098704  1.99452686  2.12806668  2.2616065   2.39514633  2.52868615
  2.66222597  2.79576579  2.92930561  3.06284543  3.19837839  3.33191821
  3.46545803  3.59899785  3.73253768  3.8660775   3.99961732  4.13315714
  4.26470383  4.39625052  4.52580408  4.65336451  4.77693867  4.89453344
  5.00216255  5.09783287  5.17755813  5.23934522  5.27721472  5.29116664
  5.27322845  5.22738643  5.14766116  5.04003205  4.90051283  4.7350829
  4.539756    4.32051152  4.07734945  3.81026981  3.52126572  3.21233031
  2.88545672  2.5446312   2.19583316  1.84304885  1.49624394  1.15741156
  0.8325311   0.52758195  0.24455726 -0.01654299 -0.25571879 -0.47297014
 -0.67427644 -0.85963769 -1.03104701 -1.19448381 -1.34994808 -1.49943295
 -1.64493157 -1.78843705 -1.92596313 -2.05750982 -2.18706338 -2.30665128
 -2.42025978 -2.52390263 -2.61558669 -2.69132569 -2.75111964 -2.78898914
 -2.8049342  -2.79696167 -2.7610853  -2.69929822 -2.61359356 -2.50596445
 -2.37840402 -2.2388848  -2.09537932 -1.95386697 -1.82232028 -1.70671865
 -1.61702772 -1.5592269  -1.53530932 -1.55324751 -1.61104833 -1.71070491
 -1.85022413 -2.02561971 -2.22891914 -2.45613615 -2.69531196 -2.93249462
 -3.15971163 -3.36101793 -3.52046847 -3.62809758 -3.67593274 -3.65600142
 -3.56830363 -3.42081188 -3.22548498 -3.00424736 -2.77902349 -2.57771719
 -2.42823231 -2.35249331]",5.674999094863463,3.943660147132987,4.833525000000001,
004,1,1,csm,7b.png,1,1,56,232,53,1,0,NaN,neu_feedback_onset,5,"[-3.52384351e-01 -3.26192885e-01 -2.91270930e-01 -2.49801109e-01
 -2.01783421e-01 -1.47217866e-01 -8.61044450e-02 -2.28084018e-02
  4.04876414e-02  1.03783685e-01  1.60531861e-01  2.08549549e-01
  2.45654126e-01  2.63115104e-01  2.60932482e-01  2.34741016e-01
  1.82358083e-01  1.01601063e-01 -9.82179981e-04 -1.23209022e-01
 -2.62896842e-01 -4.09132528e-01 -5.57550836e-01 -7.01603900e-01
 -8.34743853e-01 -9.54788073e-01 -1.05518869e+00 -1.13594571e+00
 -1.19924176e+00 -1.24507682e+00 -1.27563353e+00 -1.29309451e+00
 -1.29745976e+00 -1.29309451e+00 -1.28436402e+00 -1.27345091e+00
 -1.26035518e+00 -1.25162469e+00 -1.24725945e+00 -1.24944207e+00
 -1.26253780e+00 -1.28654664e+00 -1.32146860e+00 -1.36948629e+00
 -1.43059971e+00 -1.50262624e+00 -1.58774851e+00 -1.68378388e+00
 -1.79073237e+00 -1.90641134e+00 -2.03082081e+00 -2.16177814e+00
 -2.29710071e+00 -2.43024067e+00 -2.56338062e+00 -2.68779008e+00
 -2.80346906e+00 -2.90823492e+00 -2.99553981e+00 -3.06756634e+00
 -3.12431452e+00 -3.16360172e+00 -3.18979319e+00 -3.20507154e+00
 -3.21161941e+00 -3.21161941e+00 -3.20943679e+00 -3.20725416e+00
 -3.20507154e+00 -3.20507154e+00 -3.20507154e+00 -3.20507154e+00
 -3.20288892e+00 -3.20070630e+00 -3.19415843e+00 -3.18542794e+00
 -3.17014959e+00 -3.15268861e+00 -3.13086239e+00 -3.10248830e+00
 -3.07193159e+00 -3.03700963e+00 -2.99990506e+00 -2.96061786e+00
 -2.91914804e+00 -2.87986084e+00 -2.84275626e+00 -2.81001693e+00
 -2.78600808e+00 -2.77072973e+00 -2.76854710e+00 -2.77727759e+00
 -2.80128644e+00 -2.83620839e+00 -2.88204346e+00 -2.93442639e+00
 -2.99117457e+00 -3.05010537e+00 -3.10685354e+00 -3.16141910e+00
 -3.21161941e+00 -3.25308923e+00 -3.29019381e+00 -3.32075052e+00
 -3.34475936e+00 -3.36440296e+00 -3.37968132e+00 -3.38841180e+00
 -3.39277705e+00 -3.39059443e+00 -3.38186394e+00 -3.37095083e+00
 -3.35348985e+00 -3.33602887e+00 -3.31638527e+00 -3.30328954e+00
 -3.29455905e+00 -3.29892429e+00 -3.31420265e+00 -3.34912460e+00
 -3.40150754e+00 -3.47353407e+00 -3.56520420e+00 -3.67433531e+00
 -3.80092740e+00 -3.94279784e+00 -4.09339877e+00 -4.24836494e+00
 -4.40769636e+00 -4.56266254e+00 -4.70889822e+00 -4.84203818e+00
 -4.95989977e+00 -5.05593515e+00 -5.12796168e+00 -5.17379675e+00
 -5.19125773e+00 -5.18034461e+00 -5.14542266e+00 -5.08430924e+00
 -5.00573484e+00 -4.91188209e+00 -4.81148147e+00 -4.71108085e+00
 -4.61941071e+00 -4.54083632e+00 -4.48408814e+00 -4.45353143e+00
 -4.45353143e+00 -4.48408814e+00 -4.54738418e+00 -4.63687169e+00
 -4.74818542e+00 -4.87696013e+00 -5.01010008e+00 -5.14542266e+00
 -5.26983212e+00 -5.37896323e+00 -5.46626812e+00 -5.52519892e+00
 -5.55793825e+00 -5.56230350e+00 -5.54047727e+00 -5.49464221e+00
 -5.43134616e+00 -5.35058914e+00 -5.26328426e+00 -5.17161413e+00
 -5.07994399e+00 -4.99263911e+00 -4.90969946e+00 -4.83767293e+00
 -4.77219427e+00 -4.71326347e+00 -4.65869791e+00 -4.60631498e+00
 -4.54956680e+00 -4.49063601e+00 -4.42079210e+00 -4.34221770e+00
 -4.24836494e+00 -4.14578170e+00 -4.03010273e+00 -3.90351064e+00
 -3.77037069e+00 -3.62850024e+00 -3.48662980e+00 -3.34039412e+00
 -3.19415843e+00 -3.04792274e+00 -2.90168706e+00 -2.75545137e+00
 -2.60921569e+00 -2.46298000e+00 -2.31456169e+00 -2.16832601e+00
 -2.02209032e+00 -1.87585463e+00 -1.73398419e+00 -1.59211375e+00
 -1.45679117e+00 -1.32365122e+00 -1.19705913e+00 -1.07483229e+00
 -9.59153317e-01 -8.50022208e-01 -7.47438966e-01 -6.51403590e-01
 -5.61916080e-01 -4.81159060e-01 -4.06949906e-01 -3.41471240e-01
 -2.84723063e-01 -2.34522753e-01 -1.88687688e-01 -1.49400488e-01
 -1.14478533e-01 -8.17392007e-02 -5.33651123e-02 -2.49910240e-02
  1.20044220e-03  2.73919084e-02  5.35833745e-02  7.97748407e-02
  1.03783685e-01  1.25609906e-01  1.47436128e-01  1.67079728e-01
  1.84540705e-01  1.97636438e-01  2.08549549e-01  2.12914794e-01
  2.12914794e-01  2.08549549e-01  2.02001683e-01  1.91088572e-01
  1.77992839e-01  1.69262350e-01  1.62714484e-01  1.62714484e-01
  1.71444972e-01  1.88905950e-01  2.17280038e-01  2.56567237e-01
  3.06767547e-01  3.65698346e-01  4.31177012e-01  5.03203544e-01
  5.81777942e-01  6.62534963e-01  7.47657228e-01  8.32779493e-01
  9.20084380e-01  1.00738927e+00  1.09687678e+00  1.18418166e+00
  1.27366917e+00  1.36097406e+00  1.44827895e+00  1.53558384e+00]","[-6.73359356 -6.08673226 -5.38702282 -4.63869309 -3.85019876 -3.03210948
 -2.19499486 -1.35365239 -0.52287955  0.28252618  1.04776732  1.76016032
  2.40702162  2.97566766  3.46609844  3.86985827  4.19117499  4.43639039
  4.61818801  4.74502355  4.84015022  4.91413762  4.9860111   5.07056813
  5.17415049  5.30521389  5.45953048  5.63710024  5.82735357  6.01972081
  6.19940451  6.35372109  6.47421486  6.54820226  6.56934152  6.53129086
  6.43827812  6.29030332  6.09370822  5.86117638  5.60539136  5.34960633
  5.10861879  4.90990977  4.77250459  4.72177037  4.77461852  4.94796043
  5.2481379   5.68149269  6.24379695  6.92448106  7.7066336   8.57122926
  9.49290091 10.44205359 11.39332021 12.31921971 13.19227106 13.99133502
 14.69950016 15.30196902 15.79662765 16.18136215 16.46251428 16.65065368
 16.76057782 16.81131204 16.81765382 16.79440063 16.75846389 16.7182993
 16.67390686 16.63162835 16.58512198 16.53015991 16.45828643 16.36315977
 16.2342103  16.06509623 15.85158973 15.58946293 15.27448798 14.90877882
 14.49444936 14.03784139 13.54318275 13.01681522 12.46508059 11.89643455
 11.31510495 10.7295475  10.14399006  9.56054653  8.98344479  8.41479875
  7.85883626  7.31555733  6.78918981  6.27973369  5.79353075  5.33269493
  4.89299836  4.48078283  4.09182048  3.72188347  3.36674393  3.02428795
  2.6839459   2.34571777  2.00326179  1.65446403  1.2993245   0.93784318
  0.57636187  0.21699448 -0.1339172  -0.46791748 -0.78289242 -1.07250026
 -1.33674098 -1.57350067 -1.7891211  -1.98783013 -2.1738556  -2.35565322
 -2.53956476 -2.72770416 -2.92218533 -3.12300829 -3.32594516 -3.52465419
 -3.70856573 -3.87133802 -4.00028749 -4.08907238 -4.13135089 -4.11866734
 -4.05313564 -3.93264187]",0.7264546124497273,13.880459609748186,4.581644999999999,-0.3195700000000006
004,1,1,csp,65a.png,1,1,264,45,271,1,1,327,pos_feedback_onset,6,"[ 0.79802052  0.69130343  0.58954991  0.4902782   0.39597006  0.30166193
  0.21231739  0.12297284  0.03859188 -0.04330729 -0.12024287 -0.18973307
 -0.25425969 -0.31134093 -0.36097678 -0.40564906 -0.44287595 -0.47513926
 -0.50492077 -0.5322205  -0.55455663 -0.57937456 -0.59922891 -0.62156504
 -0.63893759 -0.65631014 -0.66871911 -0.6736827  -0.6736827  -0.66623732
 -0.64886477 -0.62404684 -0.58930174 -0.54462946 -0.49251181 -0.43046699
 -0.36097678 -0.286523   -0.20710562 -0.12272466 -0.03586191  0.05348264
  0.14034539  0.22968994  0.31655269  0.40093365  0.48531461  0.56721378
  0.64911295  0.73101211  0.81042949  0.89232865  0.97174603  1.0511634
  1.13058078  1.20999815  1.28693373  1.36386931  1.4408049   1.51774048
  1.59467606  1.67657523  1.75847439  1.84285535  1.92971811  2.01658086
  2.10344361  2.18782457  2.26724195  2.34169573  2.40870414  2.46578538
  2.51542124  2.55761172  2.58739324  2.60972937  2.62213834  2.62710192
  2.62462013  2.61717475  2.5998022   2.57994786  2.55264814  2.52534841
  2.4955669   2.46578538  2.43848566  2.41614952  2.40125877  2.39133159
  2.39133159  2.40125877  2.41863132  2.44593104  2.48067614  2.52534841
  2.57746606  2.63951089  2.7065193   2.78097309  2.86535405  2.95469859
  3.05397031  3.16068741  3.27236809  3.39149415  3.51806559  3.64463703
  3.77120847  3.89777991  4.01938777  4.13355024  4.23778555  4.33457547
  4.41895643  4.49589201  4.56290042  4.62494525  4.68450828  4.74158951
  4.80363434  4.87064275  4.94757833  5.03195929  5.12626742  5.23298452
  5.34962879  5.47620023  5.61021705  5.74919745  5.89314144  6.03956722
  6.18351122  6.32249162  6.45899023  6.58556167  6.69972415  6.80147766
  6.89082221  6.9627942   7.02235723  7.0670295   7.10177461  7.12411074
  7.14396509  7.16381943  7.18863736  7.22090067  7.27301832  7.34250852
  7.43681665  7.55346092  7.69244133  7.84879428  8.01507441  8.18135454
  8.34018929  8.48165148  8.59581396  8.68019492  8.73231257  8.74968512
  8.73975795  8.70749464  8.66282237  8.61318651  8.57099603  8.53873272
  8.52384196  8.53128734  8.56106886  8.61318651  8.68515851  8.77450305
  8.87625656  8.99538262  9.12443586  9.26589806  9.42225101  9.59597652
  9.78707457 10.00299056 10.24372448 10.51175811 10.81205506 11.14213352
 11.49702991 11.87178065 12.25894035 12.64610005 13.01836899 13.36085642
 13.66363516 13.91677804 14.11035789 14.2468565  14.33123746 14.37342794
 14.39080049 14.40320945 14.43050918 14.49503579 14.61416186 14.80029633
 15.06336638 15.40337201 15.81286785 16.27448134 16.77332172 17.28208927
 17.77596607 18.22765239 18.61729388 18.92007262 19.12606143 19.22781494
 19.22285136 19.12109785 18.92999979 18.66692974 18.34677845 17.99188206
 17.61713132 17.24238059 16.88003882 16.54251497 16.24221803 15.98411156
 15.77564095 15.61680621 15.51753449 15.48030759 15.50512552 15.59695186
 15.75330482 15.9717026  16.24718161 16.5673329  16.9197475  17.28705286
 17.65435821 18.00180923 18.31451514 18.58503057 18.80591014 18.98211744
 19.11861605 19.23277853 19.34197742 19.46358527 19.61497464 19.80855449
 20.04680661 20.32973101 20.64243692 20.9675518  21.2827395  21.56318211
 21.78654347 21.93296925]","[ -3.46609584  -3.11309322  -2.76624761  -2.42145435  -2.07666109
  -1.72981548  -1.37681286  -1.01765321  -0.65233654  -0.28086285
   0.09676787   0.48055561   0.87050037   1.26660215   1.66680862
   2.07522445   2.48569262   2.90231781   3.318943     3.73762054
   4.15014105   4.55650454   4.94850164   5.32202767   5.66887328
   5.98493377   6.26610446   6.50828068   6.70941009   6.87154501
   6.9967378    7.0870408    7.14655869   7.17939614   7.19376253
   7.18965784   7.17529146   7.14861103   7.11166889   7.06651739
   7.01110419   6.94542928   6.86949267   6.78329436   6.68683434
   6.58011261   6.46518152   6.34409341   6.21684828   6.08549847
   5.95004397   5.81048479   5.66476859   5.51494771   5.35486513
   5.18246849   4.9916008    4.78020969   4.54008581   4.26917682
   3.96337803   3.62268945   3.24916341   2.84485227   2.42001771
   1.97876443   1.53751115   1.10036255   0.67963267   0.28147855
  -0.08999515  -0.43068373  -0.74469188  -1.0320196   -1.29882391
  -1.54920949  -1.78728103  -2.02124788  -2.2531624   -2.4891816
  -2.73341016  -2.98790042  -3.25675708  -3.53587543  -3.82730783
  -4.1269496   -4.43069604  -4.73649483  -5.03408425  -5.32141197
  -5.5943733   -5.85091591  -6.08693511  -6.3024309   -6.50150796
  -6.68211395  -6.85245824  -7.01664551  -7.17467576  -7.332706
  -7.49484093  -7.66108054  -7.83758185  -8.02024019  -8.21316023
  -8.41018495  -8.61541903  -8.82270546  -9.03204422  -9.24138299
  -9.44661708  -9.64569414  -9.84066652 -10.02742954 -10.20187851
 -10.36811812 -10.517939   -10.65134115 -10.76832458 -10.86067992
 -10.93045951 -10.97150633 -10.98176803 -10.96124462 -10.9099361
 -10.82579013 -10.71085904 -10.56924752 -10.40095557 -10.21419255
 -10.01101081  -9.79756736  -9.57591455  -9.3522094   -9.13260893
  -8.91711314  -8.71598373  -8.5333254   -8.37324281  -8.24394534]",19.65539241312348,5.834907649792659,4.029345000000001,-0.07687000000000044
004,1,1,csp,35a.png,1,1,108,136,108,1,0,344,neg_feedback_onset,7,"[ 3.18509357e-01  3.20896983e-01  3.23284610e-01  3.20896983e-01
  3.13734104e-01  2.97020720e-01  2.70756830e-01  2.34942434e-01
  1.87189907e-01  1.32274501e-01  7.01962151e-02  9.55050546e-04
 -7.06737404e-02 -1.47077784e-01 -2.23481828e-01 -3.02273498e-01
 -3.81065168e-01 -4.67019717e-01 -5.52974266e-01 -6.46091694e-01
 -7.43984375e-01 -8.46652309e-01 -9.56483122e-01 -1.06870156e+00
 -1.18330763e+00 -1.30030132e+00 -1.41251976e+00 -1.52473820e+00
 -1.62740613e+00 -1.72052356e+00 -1.79931523e+00 -1.86139351e+00
 -1.90437079e+00 -1.92347180e+00 -1.91392129e+00 -1.87810690e+00
 -1.81125336e+00 -1.71574831e+00 -1.58681648e+00 -1.43400839e+00
 -1.25493642e+00 -1.05915106e+00 -8.46652309e-01 -6.29378310e-01
 -4.09716684e-01 -1.97217938e-01  8.11792964e-03  2.01515665e-01
  3.80587643e-01  5.45333862e-01  6.95754323e-01  8.36624278e-01
  9.70331355e-01  1.09926318e+00  1.22819500e+00  1.35951445e+00
  1.49560916e+00  1.63647911e+00  1.78451195e+00  1.93493241e+00
  2.08535287e+00  2.23338570e+00  2.37425566e+00  2.50557511e+00
  2.62256880e+00  2.72284911e+00  2.80641603e+00  2.87088194e+00
  2.91624684e+00  2.94489836e+00  2.95922412e+00  2.96161174e+00
  2.95206124e+00  2.93534785e+00  2.91147159e+00  2.88282007e+00
  2.84939330e+00  2.81357891e+00  2.77298926e+00  2.73001199e+00
  2.68225946e+00  2.63450693e+00  2.58436678e+00  2.53661425e+00
  2.49602460e+00  2.46259783e+00  2.44349682e+00  2.44110920e+00
  2.46021021e+00  2.50318748e+00  2.57242865e+00  2.66793370e+00
  2.78731502e+00  2.92579735e+00  3.08099306e+00  3.24573928e+00
  3.41526075e+00  3.58239460e+00  3.74236556e+00  3.89278603e+00
  4.02888073e+00  4.15064967e+00  4.25331761e+00  4.33688453e+00
  4.40612569e+00  4.45387822e+00  4.48491736e+00  4.49685550e+00
  4.48730499e+00  4.45626585e+00  4.40373807e+00  4.33449690e+00
  4.24376710e+00  4.13871154e+00  4.02171785e+00  3.89517365e+00
  3.76624183e+00  3.63969763e+00  3.51554106e+00  3.40093499e+00
  3.29587943e+00  3.20514963e+00  3.12874559e+00  3.06666730e+00
  3.02130240e+00  2.99503851e+00  2.98548801e+00  2.99503851e+00
  3.02846528e+00  3.08099306e+00  3.15739711e+00  3.25528979e+00
  3.37228348e+00  3.50599055e+00  3.65163576e+00  3.80921910e+00
  3.97157770e+00  4.13393629e+00  4.29390726e+00  4.44671534e+00
  4.59236055e+00  4.72606763e+00  4.85022420e+00  4.96244264e+00
  5.06511057e+00  5.16300325e+00  5.25134543e+00  5.33729998e+00
  5.42325453e+00  5.50920907e+00  5.59516362e+00  5.68589343e+00
  5.77901085e+00  5.87690354e+00  5.97957147e+00  6.08223940e+00
  6.18968259e+00  6.29951340e+00  6.41173184e+00  6.52872553e+00
  6.65049448e+00  6.77703867e+00  6.90835812e+00  7.05161571e+00
  7.20442379e+00  7.36917001e+00  7.54346674e+00  7.73208922e+00
  7.92787458e+00  8.12843520e+00  8.33138344e+00  8.52955643e+00
  8.71579128e+00  8.88531276e+00  9.03334559e+00  9.15511453e+00
  9.25061959e+00  9.31986075e+00  9.37000091e+00  9.40342768e+00
  9.42969157e+00  9.45834308e+00  9.49893273e+00  9.56101102e+00
  9.64935319e+00  9.77350976e+00  9.93109310e+00  1.01221032e+01
  1.03441525e+01  1.05924656e+01  1.08527169e+01  1.11201310e+01
  1.13779947e+01  1.16191449e+01  1.18316437e+01  1.20035528e+01
  1.21253217e+01  1.21921753e+01  1.21993381e+01  1.21468104e+01
  1.20369796e+01  1.18722333e+01  1.16645098e+01  1.14257472e+01
  1.11678836e+01  1.09052447e+01  1.06521563e+01  1.04229441e+01
  1.02271588e+01  1.00695754e+01  9.95735699e+00  9.89050345e+00
  9.85946431e+00  9.85707669e+00  9.87379007e+00  9.89527871e+00
  9.90721684e+00  9.90005396e+00  9.86423956e+00  9.79261077e+00
  9.68277996e+00  9.53474713e+00  9.35089990e+00  9.14078878e+00
  8.91157665e+00  8.66803876e+00  8.41972561e+00  8.17141247e+00
  7.92548696e+00  7.68194907e+00  7.44079880e+00  7.19726092e+00
  6.94894777e+00  6.69108413e+00  6.41889472e+00  6.13237956e+00
  5.83153863e+00  5.51875958e+00  5.19643002e+00  4.87171284e+00
  4.54938328e+00  4.23660422e+00  3.93576330e+00  3.65163576e+00
  3.38660924e+00  3.13829609e+00  2.90669634e+00  2.68464708e+00
  2.46737309e+00  2.25248671e+00  2.03282509e+00  1.80122533e+00
  1.56007507e+00  1.30459905e+00  1.03718489e+00  7.62607861e-01
  4.83255576e-01  2.03903292e-01 -6.82861140e-02 -3.28537388e-01]","[-5.10178183 -4.59855867 -4.07555819 -3.53278037 -2.97901515 -2.41865749
 -1.85610235 -1.29574469 -0.74197947 -0.19260921  0.34577364  0.87536657
  1.39616957  1.91038013  2.42019573  2.92781385  3.43762945  3.95623497
  4.4858279   5.03739563  5.61533314  6.22843035  6.8832797   7.58427614
  8.33141969  9.12251286  9.95316069 10.81457325 11.68477574 12.55058327
 13.39002102 14.17891671 14.89969048 15.53695998 16.08193528 16.52582645
 16.87522593 17.13672617 17.3191171  17.43558359 17.50150802 17.52787779
 17.52787779 17.50810046 17.47513825 17.43558359 17.39163397 17.34548687
 17.29714229 17.2487977  17.19825564 17.14551609 17.08838159 17.02245716
 16.94554532 16.84885616 16.72359974 16.55878866 16.34343552 16.06435543
 15.7083635  15.2688673  14.73487941 14.1107948  13.40100842 12.61870518
 11.78585987 10.92005234 10.05204734  9.20381966  8.39954161  7.65679302
  6.98875879  6.40203135  5.90100568  5.47908932  5.12968984  4.8440173
  4.60888683  4.41111354  4.2419075   4.09247879  3.94964252  3.81120122
  3.66836495  3.52113372  3.36731005  3.20249898  3.02889797  2.84650705
  2.65752368  2.45975039  2.25758213  2.05101892  1.83786326  1.6247076
  1.40715698  1.18740887  0.96766077  0.75011015  0.53475701  0.33039127
  0.13481546 -0.0431805  -0.19920166 -0.33105052 -0.43433213 -0.506849
 -0.54640366 -0.55739106 -0.5420087  -0.50025656 -0.44092457 -0.36840769
 -0.28270593 -0.18821425 -0.08493264  0.02713889  0.15239531  0.29083661
  0.45125273  0.63803862  0.84899679  1.09071971  1.36100987  1.65766981
  1.97410708  2.30372924  2.63554887  2.96077606  3.26402844  3.53431861
  3.75846168  3.92766771  4.0331468   4.0683065   4.03754177  3.94305008
  3.79581885  3.60903297]",10.60470219136351,15.010992898840072,4.188259999999999,0.13721499999999942
004,1,1,csm,32b.png,1,1,356,37,2,1,1,646,neu_feedback_onset,8,"[ 2.61241076e+00  2.38357348e+00  2.13251900e+00  1.86369075e+00
  1.57264528e+00  1.26382605e+00  9.46119931e-01  6.21748650e-01
  3.01820812e-01 -1.36635848e-02 -3.13595933e-01 -6.00197955e-01
 -8.66804487e-01 -1.11341553e+00 -1.34003108e+00 -1.54887287e+00
 -1.73771916e+00 -1.90879168e+00 -2.05986872e+00 -2.19539371e+00
 -2.31092320e+00 -2.40423549e+00 -2.47755229e+00 -2.52643015e+00
 -2.55086908e+00 -2.55086908e+00 -2.52198671e+00 -2.46422196e+00
 -2.38201828e+00 -2.27093222e+00 -2.13540724e+00 -1.97766504e+00
 -1.79770563e+00 -1.59775073e+00 -1.38002206e+00 -1.14451963e+00
 -8.95686862e-01 -6.35745493e-01 -3.64695519e-01 -8.69803811e-02
  1.92956478e-01  4.77336778e-01  7.57273637e-01  1.03054533e+00
  1.29493014e+00  1.54598463e+00  1.77926534e+00  1.99255057e+00
  2.18361858e+00  2.35024767e+00  2.48799437e+00  2.60130215e+00
  2.68794927e+00  2.74793574e+00  2.78348328e+00  2.79681361e+00
  2.79237017e+00  2.77237468e+00  2.74349230e+00  2.70572304e+00
  2.66795378e+00  2.63240625e+00  2.59908043e+00  2.57464150e+00
  2.55908945e+00  2.54798084e+00  2.54353740e+00  2.54131568e+00
  2.54131568e+00  2.54353740e+00  2.54353740e+00  2.54131568e+00
  2.53909396e+00  2.53465052e+00  2.53020708e+00  2.52798535e+00
  2.52798535e+00  2.53465052e+00  2.54575912e+00  2.56353289e+00
  2.58797182e+00  2.62129764e+00  2.66128862e+00  2.71238821e+00
  2.77459640e+00  2.85013491e+00  2.94122548e+00  3.05231153e+00
  3.18339308e+00  3.33891356e+00  3.51665124e+00  3.71438442e+00
  3.92322621e+00  4.13428971e+00  4.33424461e+00  4.51198230e+00
  4.65195073e+00  4.74304129e+00  4.77414539e+00  4.74081957e+00
  4.64084212e+00  4.47865648e+00  4.26537126e+00  4.01431677e+00
  3.73882335e+00  3.45222133e+00  3.17228447e+00  2.91012138e+00
  2.66795378e+00  2.45022512e+00  2.25471366e+00  2.07475425e+00
  1.90590345e+00  1.73483092e+00  1.55709323e+00  1.36380350e+00
  1.15718344e+00  9.32789604e-01  6.95065446e-01  4.46232683e-01
  1.92956478e-01 -6.25414490e-02 -3.13595933e-01 -5.55763533e-01
 -7.84600807e-01 -1.00232947e+00 -1.20450609e+00 -1.39557411e+00
 -1.57109008e+00 -1.73549744e+00 -1.88657447e+00 -2.02876462e+00
 -2.15984617e+00 -2.28426255e+00 -2.39979205e+00 -2.50643466e+00
 -2.60863383e+00 -2.70194612e+00 -2.79081496e+00 -2.87301864e+00
 -2.94633544e+00 -3.00854363e+00 -3.05964321e+00 -3.09519075e+00
 -3.11296452e+00 -3.11296452e+00 -3.09074731e+00 -3.04853461e+00
 -2.98632642e+00 -2.90190102e+00 -2.79970185e+00 -2.68195063e+00
 -2.54642564e+00 -2.39757033e+00 -2.23316296e+00 -2.05542528e+00
 -1.86213554e+00 -1.65329376e+00 -1.42667820e+00 -1.18006716e+00
 -9.11238909e-01 -6.24636887e-01 -3.20261097e-01  1.88846294e-03
  3.32924907e-01  6.68404793e-01  1.00166296e+00  1.32381252e+00
  1.63041003e+00  1.91256861e+00  2.16806654e+00  2.38801693e+00
  2.57464150e+00  2.72571853e+00  2.84569147e+00  2.93678204e+00
  3.00565539e+00  3.05897670e+00  3.10341112e+00  3.14562382e+00
  3.19005824e+00  3.24560127e+00  3.31225290e+00  3.39223486e+00
  3.48554715e+00  3.59218976e+00  3.70549754e+00  3.82324876e+00
  3.94544342e+00  4.06319463e+00  4.17872413e+00  4.28981019e+00
  4.39423108e+00  4.49643025e+00  4.59196426e+00  4.68305482e+00
  4.77192367e+00  4.85857079e+00  4.94521791e+00  5.02964331e+00
  5.11184699e+00  5.19627240e+00  5.27847608e+00  5.36290148e+00
  5.44510516e+00  5.52730884e+00  5.61173424e+00  5.69393792e+00
  5.77614160e+00  5.86056701e+00  5.94277069e+00  6.02719609e+00
  6.10939977e+00  6.19160345e+00  6.27602885e+00  6.35823253e+00
  6.44043621e+00  6.52486161e+00  6.60706530e+00  6.68926898e+00
  6.77369438e+00  6.85589806e+00  6.94032346e+00  7.02252714e+00
  7.10695254e+00  7.18915622e+00  7.27358163e+00  7.35578531e+00
  7.44021071e+00  7.52241439e+00  7.60461807e+00  7.68237831e+00
  7.75791683e+00  7.82901190e+00  7.89122009e+00  7.94676312e+00
  7.98897582e+00  8.02230164e+00  8.04007541e+00  8.04451885e+00
  8.03563196e+00  8.01341475e+00  7.97564549e+00  7.92232419e+00
  7.85567255e+00  7.77346887e+00  7.67571314e+00  7.56462709e+00
  7.44465415e+00  7.32023777e+00  7.19804311e+00  7.07807017e+00
  6.97142756e+00  6.88255871e+00  6.81590708e+00  6.77369438e+00
  6.75814233e+00  6.76925094e+00  6.80924192e+00  6.86922839e+00]","[-4.45127004 -4.18117526 -3.87218683 -3.51998323 -3.12672523 -2.69241282
 -2.21488525 -1.69846402 -1.14314915 -0.55542291  0.05823243  0.68701309
  1.32443677  1.95321742  2.56687277  3.15243825  3.70343161  4.21337056
  4.6822551   5.11440675  5.51414702  5.89444048  6.25960862  6.62261601
  6.98778415  7.35943457  7.74404954  8.13514679  8.53056555  8.92598431
  9.31492079  9.69089273 10.04525708 10.36937082 10.66107318 10.9138819
 11.12563621 11.29417535 11.42166009 11.50809042 11.55778786 11.57507392
 11.56643089 11.53834103 11.49728663 11.44542843 11.39140947 11.333069
 11.27905004 11.22503109 11.17533365 11.12779697 11.0845818  11.04352739
 11.00463375 10.96790086 10.93332872 10.90091735 10.86850598 10.8360946
 10.79936171 10.75830731 10.70428835 10.63082257 10.53142769 10.39313916
 10.20731395  9.96746978  9.66928515  9.31059928  8.89573369  8.43333142
  7.93419627  7.41777505  6.89703231  6.38925412  5.91172654  5.47525338
  5.08847765  4.75572088  4.48130458  4.26090724  4.09452885  3.97352639
  3.88925682  3.83091635  3.78986194  3.75312905  3.70775312  3.64725189
  3.56514308  3.45278365  3.31233436  3.13731295  2.93420167  2.7051613
  2.45235258  2.1822578   1.89703771  1.60101383  1.29850767  0.98735848
  0.67188778  0.35209556  0.02798182 -0.30045344 -0.63321021 -0.97028849
 -1.30952754 -1.65092734 -1.99232715 -2.33156619 -2.66432296 -2.99275822
 -3.3147112  -3.62802115 -3.93484882 -4.23519421 -4.52905734 -4.81859894
 -5.10597979 -5.39119988 -5.67209845 -5.95083627 -6.22741332 -6.49750811
 -6.75895985 -7.01392933 -7.26025577 -7.49361766 -7.714015   -7.92144779
 -8.11375528 -8.29093746 -8.45299432 -8.59992589 -8.73173214 -8.84625233
 -8.94780796 -9.03207754]",7.415382974729039,10.198886993423734,4.501015,-0.08802499999999913
004,1,1,csm,49b.png,1,1,296,310,300,1,1,606,neu_feedback_onset,9,"[-1.83218353 -1.6522242  -1.46129173 -1.26816465 -1.07723218 -0.89068897
 -0.70853501 -0.53296493 -0.3617841  -0.1927979  -0.01722781  0.16492615
  0.36244249  0.57532121  0.80795157  1.06033356  1.32807794  1.60899007
  1.8986807   2.18837134  2.47147809  2.73702784  2.98282595  3.19570468
  3.36908013  3.49636844  3.5687911   3.58195886  3.53367708  3.42175116
  3.25057033  3.02232922  2.7501956   2.44294795  2.11375405  1.7801709
  1.45536624  1.15250785  0.88037423  0.64335462  0.4480329   0.2878252
  0.15834227  0.05300022 -0.03917407 -0.12695912 -0.22352266 -0.33325396
 -0.46493152 -0.6229446  -0.80948781 -1.02456116 -1.26597002 -1.52713052
 -1.80584802 -2.09334403 -2.38303466 -2.66833605 -2.9426643  -3.20163017
 -3.44303903 -3.66469626 -3.86660185 -4.04656119 -4.20457426 -4.34722495
 -4.47012401 -4.57766068 -4.66764035 -4.74006301 -4.79492866 -4.83004267
 -4.84321043 -4.8322373  -4.79931791 -4.74445226 -4.66764035 -4.56888218
 -4.45476163 -4.32527869 -4.182628   -4.03339343 -3.87538036 -3.71297803
 -3.54838108 -3.38378413 -3.21918718 -3.05678485 -2.89657715 -2.74514796
 -2.60030264 -2.46643045 -2.34353139 -2.23380009 -2.1328473  -2.04286763
 -1.95947184 -1.87827068 -1.79268026 -1.69611672 -1.57980154 -1.4415401
 -1.27035927 -1.06625905 -0.82485019 -0.54393806 -0.23010654  0.11664437
  0.48753617  0.87598498  1.27540691  1.67482885  2.06986153  2.45392108
  2.818229    3.15839604  3.47442218  3.75972356  4.01649481  4.24473592
  4.44225226  4.61343309  4.76266766  4.89215059  5.00627114  5.11380782
  5.21476062  5.31790804  5.42325009  5.53298139  5.64710194  5.76341712
  5.87534305  5.9806851   6.07505402  6.15406055  6.21112083  6.24842947
  6.26159723  6.25281872  6.21989933  6.16503368  6.0904164   5.99385285
  5.88192693  5.75683324  5.62515568  5.49128349  5.36838444  5.26523701
  5.19500898  5.16867347  5.19500898  5.27840477  5.42105546  5.61637718
  5.85778604  6.12772504  6.4108318   6.68735467  6.94193129  7.15919927
  7.32599085  7.4401114   7.4993663   7.50375555  7.45986303  7.37646724
  7.25795744  7.11311212  6.94851517  6.77075046  6.58420725  6.39546941
  6.20673158  6.02457762  5.85559141  5.70635684  5.58345779  5.48689424
  5.42763934  5.40130383  5.40788771  5.44300172  5.50445125  5.57906853
  5.66246432  5.74147086  5.80950427  5.85778604  5.8797323   5.86656454
  5.81608814  5.72610848  5.6010148   5.43861247  5.24548538  5.03041203
  4.79778167  4.55856744  4.3193532   4.08452822  3.86287099  3.65438152
  3.46344905  3.28787897  3.12767127  2.98063133  2.84456451  2.71727621
  2.60096103  2.49561898  2.39905543  2.31346502  2.23884773  2.17739821
  2.12911643  2.08741854  2.05449915  2.02157976  1.98427112  1.94257322
  1.88551294  1.81528491  1.72749987  1.62215782  1.50145339  1.36538658
  1.22054126  1.07130669  0.9198775   0.7684483   0.62360298  0.48095229
  0.3470801   0.21320792  0.0771411  -0.06331496 -0.21693878 -0.39031424
 -0.59002521 -0.81607169 -1.07503756 -1.36472819 -1.68075434 -2.01872674
 -2.36986691 -2.72539632 -3.07653649 -3.41450889 -3.73272966 -4.02900418
 -4.29674855 -4.53815741 -4.75981464 -4.95952561 -5.14606882 -5.3216389
 -5.49281973 -5.65961131]","[-3.08826514e+00 -2.91821273e+00 -2.71868457e+00 -2.48741329e+00
 -2.22439889e+00 -1.92964138e+00 -1.60087339e+00 -1.24036228e+00
 -8.50375419e-01 -4.33180173e-01  6.68872813e-03  4.64696553e-01
  9.27239108e-01  1.38978166e+00  1.83872003e+00  2.26498473e+00
  2.65950633e+00  3.01548271e+00  3.32837914e+00  3.59592827e+00
  3.81813008e+00  4.00405405e+00  4.15823490e+00  4.28747473e+00
  4.39630828e+00  4.49607236e+00  4.58676697e+00  4.66839213e+00
  4.74548256e+00  4.81350352e+00  4.87018766e+00  4.90873287e+00
  4.93140653e+00  4.93367389e+00  4.91553497e+00  4.87472239e+00
  4.81577089e+00  4.73641310e+00  4.64118375e+00  4.53008284e+00
  4.40537774e+00  4.26480108e+00  4.10835286e+00  3.93603309e+00
  3.74784175e+00  3.54151149e+00  3.31704231e+00  3.07670157e+00
  2.82729137e+00  2.56881171e+00  2.30806468e+00  2.05185238e+00
  1.80697691e+00  1.57570563e+00  1.36257328e+00  1.17211458e+00
  9.99794803e-01  8.45613952e-01  7.05037292e-01  5.75797461e-01
  4.48824995e-01  3.24119894e-01  1.90345331e-01  4.75013066e-02
 -1.08946911e-01 -2.81266686e-01 -4.69458020e-01 -6.73520912e-01
 -8.93455363e-01 -1.12245928e+00 -1.36053265e+00 -1.60314075e+00
 -1.84574886e+00 -2.08835696e+00 -2.32643034e+00 -2.55996898e+00
 -2.78897289e+00 -3.01344208e+00 -3.23337653e+00 -3.44650888e+00
 -3.65510650e+00 -3.85690203e+00 -4.04962810e+00 -4.23101733e+00
 -4.40333711e+00 -4.55751796e+00 -4.69809462e+00 -4.82053235e+00
 -4.92483117e+00 -5.01099105e+00 -5.08354675e+00 -5.13796352e+00
 -5.18331083e+00 -5.21732131e+00 -5.24679706e+00 -5.26947072e+00
 -5.29214437e+00 -5.31481803e+00 -5.33975905e+00 -5.36470007e+00
 -5.39417582e+00 -5.42591893e+00 -5.45766205e+00 -5.49393990e+00
 -5.53021775e+00 -5.56876296e+00 -5.60504081e+00 -5.64131865e+00
 -5.67532914e+00 -5.70480489e+00 -5.72974591e+00 -5.75015220e+00
 -5.76375639e+00 -5.77055849e+00 -5.77282585e+00 -5.77282585e+00
 -5.77282585e+00 -5.77736058e+00 -5.78643004e+00 -5.80230160e+00
 -5.82724262e+00 -5.86352047e+00 -5.91113515e+00 -5.96555192e+00
 -6.02903815e+00 -6.09932648e+00 -6.17641691e+00 -6.25577470e+00
 -6.33966722e+00 -6.42582711e+00 -6.51652173e+00 -6.60721634e+00
 -6.70471306e+00 -6.80674451e+00 -6.91331068e+00 -7.02667896e+00
 -7.14684933e+00 -7.27155443e+00 -7.40079426e+00 -7.53230146e+00]",6.157242759654432,3.804639256485518,4.556585,-0.06598999999999933
004,1,1,csm,22b.png,1,1,276,304,279,1,1,982,neu_feedback_onset,10,"[ 0.59550198  0.53319594  0.4708899   0.41337663  0.35825974  0.30553925
  0.25042236  0.19770187  0.1401886   0.08027894  0.01557651 -0.0515223
 -0.12581028 -0.20249464 -0.28397177 -0.36784529 -0.45171881 -0.5403851
 -0.626655   -0.71052852 -0.79440204 -0.8710864  -0.94537438 -1.0100768
 -1.06998646 -1.11791419 -1.15625637 -1.185013   -1.2017877  -1.20418409
 -1.19699493 -1.17782384 -1.14667082 -1.10113948 -1.04841898 -0.98371656
 -0.90942858 -0.82555506 -0.73449239 -0.63384416 -0.52600678 -0.41098024
 -0.28876454 -0.15935969 -0.02276567  0.12101751  0.26959345  0.42535856
  0.58112367  0.73449239  0.88546472  1.02685151  1.15625637  1.26888652
  1.3599492   1.4294444   1.47737212  1.50133599  1.50612876  1.49414683
  1.47018296  1.43663356  1.39589499  1.35755281  1.31681424  1.27847206
  1.24492266  1.21137325  1.18022023  1.14667082  1.11312141  1.07717562
  1.03883344  0.9933021   0.94297799  0.89025749  0.83034784  0.76804179
  0.70333936  0.63624055  0.56674535  0.49964653  0.4349441   0.37263806
  0.31752118  0.26480068  0.22166573  0.18571993  0.15935969  0.14498137
  0.14258498  0.15217053  0.17853078  0.21687296  0.26719707  0.32710672
  0.39420554  0.46609713  0.53319594  0.59550198  0.64582609  0.68177189
  0.70094298  0.70094298  0.68177189  0.64582609  0.59550198  0.53559233
  0.47328628  0.40858386  0.35107059  0.30314286  0.26719707  0.24802598
  0.24083682  0.25042236  0.26959345  0.29835009  0.3318995   0.36305252
  0.38941277  0.40379108  0.40379108  0.38701638  0.35107059  0.2959537
  0.22166573  0.13060305  0.02276567 -0.09465726 -0.22406211 -0.36305252
 -0.50683569 -0.65780803 -0.81357313 -0.9765274  -1.14427443 -1.31681424
 -1.49175044 -1.66908302 -1.84641561 -2.0213518  -2.19149523 -2.3520531
 -2.50062905 -2.63482668 -2.75224961 -2.85289783 -2.92958219 -2.98469907
 -3.01345571 -3.01345571 -2.98230269 -2.91760026 -2.8241412  -2.69713272
 -2.543764   -2.36882781 -2.18430607 -1.99978433 -1.82724452 -1.67866857
 -1.57083119 -1.51092153 -1.50373237 -1.55645287 -1.66189386 -1.81526258
 -2.0045771  -2.22025186 -2.4407194  -2.65160139 -2.8409159  -2.99428462
 -3.09972561 -3.1548425  -3.15723888 -3.10931116 -3.0158521  -2.88644724
 -2.72828575 -2.55574594 -2.37601697 -2.20347716 -2.04531566 -1.90632526
 -1.79609149 -1.71221798 -1.65710109 -1.62834446 -1.61875891 -1.62355168
 -1.64032639 -1.66189386 -1.68585773 -1.7074252  -1.72419991 -1.73857822
 -1.74816377 -1.75535293 -1.75774931 -1.7601457  -1.75774931 -1.75295654
 -1.74097461 -1.72659629 -1.70502882 -1.67866857 -1.64511916 -1.60677698
 -1.56364203 -1.5157143  -1.46778658 -1.41985885 -1.37432751 -1.33358895
 -1.29764315 -1.26649013 -1.24492266 -1.23054434 -1.22335518 -1.22335518
 -1.22575157 -1.23054434 -1.23533711 -1.2377335  -1.23533711 -1.23054434
 -1.22335518 -1.21137325 -1.19939132 -1.18740939 -1.18022023 -1.17782384
 -1.185013   -1.2017877  -1.23054434 -1.27607568 -1.33598533 -1.41506608
 -1.51092153 -1.62355168 -1.75535293 -1.90153249 -2.05969398 -2.23223379
 -2.41435915 -2.60127727 -2.79298817 -2.98230269 -3.1716172  -3.35374256
 -3.52388598 -3.68204747 -3.82583065 -3.94804635 -4.04869457 -4.12537893
 -4.17570304 -4.19727052]","[-1.92107608e+00 -1.78820353e+00 -1.63397646e+00 -1.46314032e+00
 -1.27332240e+00 -1.07164085e+00 -8.58095675e-01 -6.32686885e-01
 -4.04905370e-01 -1.70005683e-01  6.48940045e-02  3.02166416e-01
  5.37066103e-01  7.71965790e-01  1.00686548e+00  1.23939244e+00
  1.47429213e+00  1.70681909e+00  1.93934605e+00  2.17424574e+00
  2.40914543e+00  2.64404511e+00  2.87894480e+00  3.11621721e+00
  3.35348962e+00  3.59313476e+00  3.83515262e+00  4.07954320e+00
  4.32630651e+00  4.58018799e+00  4.83881492e+00  5.10693274e+00
  5.38216874e+00  5.66926836e+00  5.96823160e+00  6.27905846e+00
  6.59937621e+00  6.92443941e+00  7.25424807e+00  7.57693855e+00
  7.88539268e+00  8.17486502e+00  8.43586467e+00  8.66364619e+00
  8.85346412e+00  9.00769119e+00  9.12395467e+00  9.20700001e+00
  9.26394539e+00  9.29716353e+00  9.31377260e+00  9.31851804e+00
  9.31614532e+00  9.31139987e+00  9.30428170e+00  9.29479080e+00
  9.27580901e+00  9.24733632e+00  9.19750911e+00  9.12158194e+00
  9.01243663e+00  8.85820957e+00  8.66127346e+00  8.41451016e+00
  8.12503782e+00  7.79760189e+00  7.44169327e+00  7.06680286e+00
  6.68242155e+00  6.30278570e+00  5.93264074e+00  5.57910484e+00
  5.24455074e+00  4.93135116e+00  4.63713337e+00  4.35952465e+00
  4.09377955e+00  3.83989807e+00  3.59550748e+00  3.35348962e+00
  3.11621721e+00  2.88369025e+00  2.65116329e+00  2.42100905e+00
  2.19085481e+00  1.96307329e+00  1.74003723e+00  1.51937389e+00
  1.30108327e+00  1.08753810e+00  8.76365651e-01  6.72311377e-01
  4.70629828e-01  2.73693726e-01  8.15030733e-02 -1.08314856e-01
 -2.88641888e-01 -4.61850749e-01 -6.25568712e-01 -7.75050331e-01
 -9.05550158e-01 -1.01944092e+00 -1.11197716e+00 -1.18078615e+00
 -1.22824064e+00 -1.25908605e+00 -1.27094967e+00 -1.27094967e+00
 -1.26145877e+00 -1.24484971e+00 -1.22586791e+00 -1.20214067e+00
 -1.17604071e+00 -1.14519529e+00 -1.10485898e+00 -1.05503178e+00
 -9.90968226e-01 -9.10295606e-01 -8.17759365e-01 -7.10986780e-01
 -5.97096023e-01 -4.80832541e-01 -3.64569060e-01 -2.55423751e-01
 -1.60514786e-01 -7.74694423e-02 -8.66044301e-03  4.59122116e-02
  9.33666938e-02  1.38448452e-01  1.88275658e-01  2.49966485e-01
  3.28266381e-01  4.30293518e-01  5.56047896e-01  7.10274963e-01
  8.92974720e-01  1.10177444e+00  1.33192868e+00  1.58818288e+00]",0.8288500940581762,8.041755198935114,4.172949999999999,0.007209999999999717
004,1,1,csm,34b.png,1,1,72,52,64,1,1,656,neu_feedback_onset,11,"[ 8.07782991e-01  6.40366827e-01  4.68300214e-01  3.00884050e-01
  1.42768784e-01  5.58053880e-03 -1.10680686e-01 -2.01364442e-01
 -2.64145503e-01 -3.01349095e-01 -3.15300442e-01 -3.08324769e-01
 -2.85072524e-01 -2.47868932e-01 -2.01364442e-01 -1.47884278e-01
 -8.97536657e-02 -2.92978287e-02  3.58084573e-02  1.00914743e-01
  1.70671478e-01  2.42753438e-01  3.14835397e-01  3.91567806e-01
  4.70625439e-01  5.49683072e-01  6.28740705e-01  7.10123562e-01
  7.89181195e-01  8.70564053e-01  9.49621686e-01  1.02635409e+00
  1.10541173e+00  1.18446936e+00  1.26585222e+00  1.34723508e+00
  1.43094316e+00  1.51697646e+00  1.60533500e+00  1.69369353e+00
  1.77740161e+00  1.85878447e+00  1.93551687e+00  2.00062316e+00
  2.05642855e+00  2.09828259e+00  2.12618528e+00  2.14246185e+00
  2.14711230e+00  2.14246185e+00  2.13083573e+00  2.11455916e+00
  2.10060781e+00  2.08898169e+00  2.08200602e+00  2.07968079e+00
  2.07968079e+00  2.08200602e+00  2.08200602e+00  2.07735557e+00
  2.06340422e+00  2.03782675e+00  1.99829794e+00  1.94714300e+00
  1.88436194e+00  1.80995475e+00  1.72857189e+00  1.64486381e+00
  1.55883051e+00  1.47279720e+00  1.39373957e+00  1.31700716e+00
  1.24492520e+00  1.17749369e+00  1.11238740e+00  1.05425679e+00
  9.98451400e-01  9.47296461e-01  8.98466747e-01  8.54287481e-01
  8.12433440e-01  7.75229848e-01  7.40351481e-01  7.07798338e-01
  6.75245195e-01  6.42692052e-01  6.10138909e-01  5.77585766e-01
  5.45032623e-01  5.14804704e-01  4.86902010e-01  4.63649765e-01
  4.45047969e-01  4.31096622e-01  4.21795724e-01  4.12494826e-01
  3.98543479e-01  3.79941683e-01  3.47388540e-01  3.00884050e-01
  2.33452540e-01  1.42768784e-01  2.65075593e-02 -1.13005911e-01
 -2.73446401e-01 -4.57139137e-01 -6.57108444e-01 -8.68703873e-01
 -1.09192543e+00 -1.31747220e+00 -1.54766943e+00 -1.78019188e+00
 -2.00806388e+00 -2.23593588e+00 -2.46148266e+00 -2.68702943e+00
 -2.90792576e+00 -3.12882209e+00 -3.34739319e+00 -3.56363907e+00
 -3.77755972e+00 -3.98682993e+00 -4.19377491e+00 -4.39374422e+00
 -4.58441263e+00 -4.76345491e+00 -4.93087108e+00 -5.08201067e+00
 -5.21687369e+00 -5.33546014e+00 -5.43544479e+00 -5.51682765e+00
 -5.57960871e+00 -5.62843843e+00 -5.66331679e+00 -5.68889426e+00
 -5.70517083e+00 -5.71447173e+00 -5.71912218e+00 -5.71912218e+00
 -5.71447173e+00 -5.70517083e+00 -5.68656904e+00 -5.65866634e+00
 -5.61681230e+00 -5.55635647e+00 -5.47497361e+00 -5.37033851e+00
 -5.24012593e+00 -5.08433589e+00 -4.90296838e+00 -4.69834863e+00
 -4.47280185e+00 -4.23097850e+00 -3.97752903e+00 -3.71477866e+00
 -3.44970307e+00 -3.18230225e+00 -2.91722666e+00 -2.65215107e+00
 -2.39172592e+00 -2.13362600e+00 -1.87320086e+00 -1.61045049e+00
 -1.34072445e+00 -1.06402273e+00 -7.73369669e-01 -4.68765259e-01
 -1.54859952e-01  1.70671478e-01  5.03178582e-01  8.33360461e-01
  1.15424144e+00  1.45884585e+00  1.73554757e+00  1.97737092e+00
  2.17501500e+00  2.32615459e+00  2.42846447e+00  2.48194463e+00
  2.49124553e+00  2.46566806e+00  2.41218790e+00  2.34475639e+00
  2.27499965e+00  2.21686904e+00  2.17966545e+00  2.17268977e+00
  2.20291769e+00  2.27499965e+00  2.38661043e+00  2.53542480e+00
  2.71214186e+00  2.91211116e+00  3.12835704e+00  3.35157859e+00
  3.57712537e+00  3.80034692e+00  4.02124325e+00  4.23981435e+00
  4.45838546e+00  4.68393223e+00  4.91645468e+00  5.15827803e+00
  5.40707705e+00  5.65820130e+00  5.90467510e+00  6.13719755e+00
  6.33949208e+00  6.50225779e+00  6.61154334e+00  6.65804783e+00
  6.63479559e+00  6.54178661e+00  6.37902089e+00  6.15579934e+00
  5.87677240e+00  5.55356620e+00  5.19780685e+00  4.81879525e+00
  4.42350709e+00  4.02356848e+00  3.62595509e+00  3.23531737e+00
  2.86095623e+00  2.50752210e+00  2.18431590e+00  1.89831328e+00
  1.65416471e+00  1.45884585e+00  1.31700716e+00  1.22167295e+00
  1.17516846e+00  1.16586756e+00  1.18679459e+00  1.22399818e+00
  1.26817744e+00  1.30538103e+00  1.32863328e+00  1.32630806e+00
  1.29608014e+00  1.23329908e+00  1.14029010e+00  1.02170365e+00
  8.77539726e-01  7.17099236e-01  5.45032623e-01  3.65990336e-01
  1.84622825e-01  5.58053880e-03 -1.73461748e-01 -3.47853585e-01
 -5.17594974e-01 -6.82685913e-01 -8.38475955e-01 -9.89615547e-01
 -1.12912902e+00 -1.25934159e+00 -1.38025326e+00 -1.49186404e+00]","[-2.13086909 -1.9759056  -1.79915036 -1.59818208 -1.38026467 -1.14539813
 -0.89842506 -0.64418808 -0.38510849 -0.1260289   0.13062938  0.38244506
  0.63183943  0.87396989  1.11367904  1.34612428  1.57372691  1.79406562
  2.01198304  2.22505784  2.43086873  2.63183701  2.82796268  3.01682443
  3.19842228  3.37517751  3.54466883  3.70931754  3.86912365  4.02166583
  4.16694411  4.30495847  4.43328761  4.55193154  4.65846894  4.75532112
  4.84248808  4.91996983  4.98776636  5.05072028  5.10883159  5.16452159
  5.21779029  5.27105899  5.326749    5.3800177   5.4357077   5.48897641
  5.5398238   5.5906712   5.63667598  5.67783816  5.71173643  5.74079208
  5.76016252  5.76742643  5.75774121  5.72626425  5.67299555  5.58582859
  5.46718466  5.31222117  5.11851681  4.88607157  4.62214937  4.32675021
  4.00955931  3.67541928  3.33159403  2.99019008  2.65362875  2.32675263
  2.01440434  1.72142649  1.44539777  1.19116079  0.95871555  0.74321944
  0.54709377  0.36791723  0.20326852  0.05072633 -0.08970933 -0.22288109
 -0.34878892 -0.46743285 -0.58607677 -0.69987809 -0.8112581  -0.9202168
 -1.02917551 -1.13329161 -1.2374077  -1.33425989 -1.42869076 -1.51827903
 -1.60060339 -1.67808514 -1.74588166 -1.80399297 -1.85484037 -1.89600255
 -1.9250582  -1.94442864 -1.95169255 -1.94684994 -1.9250582  -1.89115994
 -1.84031254 -1.77009471 -1.68534905 -1.58123295 -1.45774642 -1.31973206
 -1.16476857 -0.99285594 -0.80641549 -0.6006046  -0.38026588 -0.14055673
  0.11610155  0.39213028  0.68752943  0.99503511  1.31222601  1.63425952
  1.95145042  2.25169219  2.53256352  2.77953659  2.99019008  3.16210271
  3.29527446  3.39454795  3.46960839  3.5277197   3.58583101  3.65604884
  3.74321581  3.85943843]",4.376537554700894,4.725478540582909,4.300660000000001,-0.11423499999999898
004,1,1,csm,64b.png,1,1,132,227,128,1,1,741,neu_feedback_onset,12,"[ 1.54770995  1.41196718  1.2665285   1.11381789  0.95625932  0.78900484
  0.6169024   0.43995201  0.26057763  0.07635531 -0.10544304 -0.28724139
 -0.46661576 -0.6387182  -0.8035487  -0.96110727 -1.10896993 -1.2447127
 -1.37318353 -1.48953448 -1.60103746 -1.70284454 -1.79980366 -1.8943388
 -1.98402599 -2.07128919 -2.15612842 -2.23369572 -2.30641506 -2.36943849
 -2.422766   -2.46397363 -2.49306136 -2.50518125 -2.5003333  -2.4785175
 -2.43973385 -2.38640633 -2.31611097 -2.2361197  -2.14400853 -2.04462543
 -1.94039438 -1.83131537 -1.71981238 -1.6083094  -1.49923039 -1.3877274
 -1.27864839 -1.16956938 -1.05806639 -0.94656341 -0.83263644 -0.7162855
 -0.59993455 -0.48358361 -0.36965664 -0.26057763 -0.15877056 -0.06423542
  0.01817983  0.0884752   0.14422669  0.18785829  0.21937001  0.23876183
  0.24603377  0.24360979  0.23391388  0.21694603  0.19513023  0.16361851
  0.12968282  0.0884752   0.04241961 -0.00848392 -0.06665939 -0.12725884
 -0.19270625 -0.26057763 -0.32844902 -0.3963204  -0.45934383 -0.52236726
 -0.57811875 -0.62902229 -0.67265389 -0.70901356 -0.74294925 -0.76961301
 -0.79627677 -0.81809257 -0.83990837 -0.86414815 -0.89081191 -0.91989965
 -0.95141136 -0.98534705 -1.02170672 -1.05806639 -1.09685004 -1.13320971
 -1.1671454  -1.19623314 -1.2228969  -1.24228872 -1.25440861 -1.26168054
 -1.25925657 -1.24713668 -1.2228969  -1.18653723 -1.13563369 -1.0677623
 -0.9804991  -0.87384407 -0.74779721 -0.59993455 -0.43268007 -0.24845774
 -0.05211553  0.14907465  0.3526888   0.55145499  0.73567732  0.9029318
  1.04352252  1.15744949  1.23744076  1.28592032  1.30288817  1.29076828
  1.24956065  1.18653723  1.10654595  1.01443479  0.91505169  0.81324462
  0.70901356  0.60720649  0.51024737  0.4181362   0.330873    0.24603377
  0.16604249  0.09089917  0.01575586 -0.05211553 -0.11756293 -0.17331443
 -0.21937001 -0.25572968 -0.2751215  -0.27754548 -0.26300161 -0.2314899
 -0.18301034 -0.11756293 -0.03757166  0.04969155  0.14422669  0.24360979
  0.34056891  0.43268007  0.52236726  0.60235853  0.67265389  0.73567732
  0.78658086  0.83263644  0.87142009  0.9029318   0.93444352  0.96353125
  0.99261899  1.02170672  1.05321844  1.08473015  1.11866584  1.15260153
  1.18653723  1.21562496  1.2447127   1.26895248  1.2883443   1.30288817
  1.31258408  1.31985602  1.32227999  1.32227999  1.31985602  1.31258408
  1.30046419  1.28592032  1.26410452  1.23744076  1.20592905  1.1671454
  1.12108982  1.07018628  1.01443479  0.95141136  0.88838793  0.82051655
  0.75022119  0.67750185  0.60478251  0.52721521  0.4520719   0.3745046
  0.29451333  0.21694603  0.13695476  0.06181144 -0.01333188 -0.08362724
 -0.14907465 -0.21209807 -0.26784957 -0.32117708 -0.36723267 -0.41086427
 -0.4520719  -0.49085554 -0.52721521 -0.5611509  -0.5950866  -0.62417433
 -0.65326207 -0.67507787 -0.68962174 -0.69446969 -0.68719776 -0.66780594
 -0.63387024 -0.58296671 -0.51509532 -0.43268007 -0.330873   -0.21694603
 -0.0884752   0.05211553  0.20482614  0.36238471  0.52963919  0.70174163
  0.87626804  1.05806639  1.23986474  1.42651105  1.61558133  1.80949957
  2.00341781  2.19976003  2.39852622  2.59729242  2.79848259  2.99724878
  3.20086294  3.40205311]","[-3.76079518 -3.42891116 -3.06837527 -2.68157518 -2.2732862  -1.85067129
 -1.41850576 -0.97917726 -0.54223642 -0.10768323  0.31731933  0.73038362
  1.12912199  1.51592208  1.88600858  2.24176916  2.5832038   2.91508783
  3.23742124  3.55497933  3.87014978  4.18293257  4.49810301  4.81804876
  5.14515748  5.48181681  5.82563912  6.17901204  6.53954792  6.90724677
  7.27972093  7.64741978  8.00795567  8.35416562  8.67649903  8.97018058
  9.22327199  9.43338562  9.5933585   9.70080297  9.75571903  9.75810669
  9.7151289   9.62678567  9.50023996  9.34504239  9.16119297  8.9582423
  8.74096571  8.51175084  8.27298536  8.02944456  7.78112845  7.52803704
  7.27255797  7.01230359  6.7520492   6.48940717  6.22437748  5.9641231
  5.70386872  5.45316496  5.20962416  4.97802164  4.76074504  4.55779438
  4.36916965  4.19487084  4.03251031  3.88208805  3.73882876  3.59795712
  3.46186079  3.32098916  3.17772987  3.02491995  2.86255942  2.68348531
  2.48769761  2.27280867  2.03404318  1.77617646  1.49682084  1.20075163
  0.8903565   0.5727984   0.25285265 -0.06470545 -0.37271293 -0.66639447
 -0.94336244 -1.19645385 -1.42805638 -1.63578235 -1.81963178 -1.977217
 -2.11092567 -2.22314545 -2.31148868 -2.37834302 -2.42609611 -2.45474797
 -2.46429859 -2.45713563 -2.43564673 -2.39744425 -2.3473035  -2.28522448
 -2.21120717 -2.12763925 -2.03690837 -1.94140217 -1.84589598 -1.74561447
 -1.64772063 -1.55221443 -1.45670824 -1.3635897  -1.27047116 -1.17496496
 -1.07945877 -0.97917726 -0.87173279 -0.75712536 -0.63296731 -0.49687098
 -0.35361169 -0.20080177 -0.03605359  0.13346991  0.31254402  0.49639345
  0.68263053  0.87125526  1.05988     1.24611708  1.42757885  1.60187765
  1.76901349  1.92421106]",1.4842248089530024,7.664193056222092,4.125450000000001,-0.4802899999999992
004,1,1,csp,45a.png,1,1,280,63,284,1,1,571,pos_feedback_onset,13,"[ -1.68719106  -1.48293064  -1.26732242  -1.04717508  -0.8179495
  -0.5841848   -0.34588098  -0.11211627   0.11257019   0.32363929
   0.50974322   0.66634288   0.78436001   0.85925549   0.88649022
   0.86379461   0.79343825   0.67769068   0.52563014   0.34179577
   0.13753535  -0.08034243  -0.29822021  -0.51382843  -0.71354973
  -0.8973841   -1.05852288  -1.19469649  -1.30590494  -1.39214823
  -1.45342636  -1.49200888  -1.5078958   -1.50562624  -1.4852002
  -1.44888723  -1.39895691  -1.33767878  -1.26505286  -1.18334869
  -1.09483584  -1.00178387  -0.90419279  -0.80206258  -0.69993237
  -0.59780216  -0.49567195  -0.3958113   -0.29822021  -0.2074378
  -0.12346408  -0.04629903   0.02178778   0.0830659    0.13526579
   0.17838743   0.21696996   0.2487438    0.2827872    0.3168306
   0.35768269   0.40988257   0.48023894   0.56875179   0.6822298
   0.82521209   0.99542911   1.19741996   1.42664554   1.67856673
   1.94410527   2.20964382   2.46610412   2.6953297    2.88597276
   3.02441593   3.10158098   3.11065922   3.05392021   2.93136396
   2.75660782   2.53873004   2.29815666   2.04396592   1.79885342
   1.56962784   1.36990654   1.19968952   1.06578547   0.95911614
   0.87514241   0.80705561   0.74577748   0.6822298    0.60733431
   0.51882146   0.41215213   0.28505676   0.13753535  -0.02360343
  -0.19609     -0.37765482  -0.56148919  -0.74078445  -0.91554059
  -1.08121848  -1.23781814  -1.38760911  -1.53286096  -1.67584326
  -1.82563423  -1.98450344  -2.15699002  -2.34990264  -2.56778042
  -2.8083538   -3.07162278  -3.35531781  -3.65716931  -3.96809906
  -4.28356793  -4.59449768  -4.89634919  -5.18231377  -5.44785232
  -5.69296482  -5.91311216  -6.11056389  -6.28532003  -6.43965012
  -6.57355418  -6.69384087  -6.79597108  -6.88902305  -6.96845765
  -7.03654446  -7.09555302  -7.14094423  -7.17725719  -7.19995279
  -7.20903103  -7.20449191  -7.18179631  -7.14321379  -7.08874434
  -7.01838798  -6.93214469  -6.83228404  -6.72107559  -6.59851934
  -6.47369353  -6.3443286   -6.21496366  -6.09013785  -5.9675816
  -5.85410359  -5.74289514  -5.63849537  -5.5340956   -5.42742627
  -5.31394826  -5.18912245  -5.05067928  -4.89861875  -4.73067129
  -4.54910647  -4.36073298  -4.16782036  -3.98398598  -3.81149941
  -3.66397799  -3.54596086  -3.4642567   -3.42340461  -3.42567417
  -3.47106538  -3.5550391   -3.67305624  -3.81603853  -3.9771773
  -4.14966388  -4.31988089  -4.48555879  -4.63534976  -4.76471469
  -4.87138402  -4.95308819  -5.0098272   -5.0438706   -5.05975752
  -5.06202708  -5.0552184   -5.05067928  -5.05294884  -5.06883576
  -5.1006096   -5.15507905  -5.22997454  -5.32756562  -5.44785232
  -5.58175637  -5.72927778  -5.88360787  -6.04247709  -6.19907674
  -6.35113728  -6.49865869  -6.63937142  -6.77554503  -6.90717953
  -7.03881402  -7.17271807  -7.30889168  -7.44733486  -7.59031715
  -7.735569    -7.88082085  -8.02607271  -8.16678544  -8.30749817
  -8.44140223  -8.57303672  -8.70013209  -8.8249579   -8.94751415
  -9.07233996  -9.19489621  -9.32426114  -9.45589564  -9.59433881
  -9.74186022  -9.89845988 -10.06640733 -10.24343303 -10.42953696
 -10.62018002 -10.81082308 -10.99919658 -11.17849183 -11.34190017
 -11.48488246 -11.60289959 -11.693682   -11.75496012 -11.78673397
 -11.78900353 -11.7617688  -11.71183848 -11.63921255 -11.54616059
 -11.4372217  -11.316935   -11.18530051 -11.04685734 -10.90387505
 -10.75635363 -10.60883222 -10.46131081 -10.31378939 -10.1708071 ]","[-4.34665715 -4.0535597  -3.71859119 -3.33954788 -2.9186335  -2.45364433
 -1.94678408 -1.40907148 -0.84271025 -0.26092284  0.32747579  0.90705946
  1.46680947  1.99350337  2.48052996  2.92127799  3.31574749  3.66393844
  3.97025832  4.24352211  4.49254475  4.72834495  4.95973767  5.19553787
  5.44235677  5.70239811  5.97786563  6.26875934  6.57287548  6.88801033
  7.20755266  7.53150247  7.85104479  8.15956842  8.4548696   8.72592965
  8.97054481  9.18210387  9.35619934  9.49503497  9.59640702  9.66031549
  9.69337159  9.69777907  9.68014915  9.64268557  9.59199954  9.53249856
  9.46418261  9.38925544  9.31432828  9.23499363  9.15345524  9.07191686
  8.98817473  8.90222886  8.81187552  8.71491095  8.6135389   8.49894441
  8.37333122  8.23229185  8.07141881  7.88630464  7.67694932  7.44335286
  7.18110778  6.89021407  6.57507922  6.23570324  5.87649358  5.49965401
  5.11179574  4.71291877  4.30963431  3.90414612  3.50086166  3.09757721
  2.69870023  2.30643448  1.91637247  1.53292167  1.15387836  0.77924253
  0.41121792  0.04980453 -0.30499764 -0.64657737 -0.97493466 -1.28566203
 -1.57214825 -1.83218959 -2.06578605 -2.26632641 -2.43821814 -2.58146126
 -2.69605575 -2.78640909 -2.85913252 -2.91422602 -2.95830083 -2.99576441
 -3.02882051 -3.06187662 -3.09493272 -3.13019256 -3.16985989 -3.21173095
 -3.25360201 -3.29547308 -3.33293666 -3.36158528 -3.3792152  -3.38582642
 -3.37480772 -3.34836284 -3.30649178 -3.24919453 -3.17867485 -3.09713646
 -3.00898685 -2.91642976 -2.82166894 -2.72690811 -2.63655476 -2.55060889
 -2.47127425 -2.39855082 -2.33904984 -2.29056755 -2.25310397 -2.23106657
 -2.22445535 -2.23106657 -2.25530771 -2.29497503 -2.35006854 -2.41838448
 -2.49771913 -2.58586874]",1.4785617343071307,8.42280518495995,4.40614,-0.03324000000000016
004,1,1,csm,52b.png,1,1,124,46,125,1,1,718,neu_feedback_onset,14,"[ 1.03400820e+00  9.57808401e-01  8.70063177e-01  7.68463443e-01
  6.53009199e-01  5.30627702e-01  4.03628034e-01  2.72010197e-01
  1.38083275e-01  8.77452248e-03 -1.15916060e-01 -2.35988473e-01
 -3.46824546e-01 -4.53042450e-01 -5.47714930e-01 -6.37769239e-01
 -7.18587210e-01 -7.94787010e-01 -8.61750471e-01 -9.24095762e-01
 -9.77204714e-01 -1.02338641e+00 -1.06033177e+00 -1.08573170e+00
 -1.09958621e+00 -1.09496804e+00 -1.07418628e+00 -1.03262275e+00
 -9.70277460e-01 -8.82532235e-01 -7.74005246e-01 -6.47005579e-01
 -5.03842317e-01 -3.51442716e-01 -1.96734030e-01 -5.12616840e-02
  7.80470684e-02  1.81955887e-01  2.53537518e-01  2.88173791e-01
  2.85864706e-01  2.41992094e-01  1.65792293e-01  6.18834743e-02
 -6.28071083e-02 -1.96734030e-01 -3.35279122e-01 -4.64587875e-01
 -5.84660287e-01 -6.88569106e-01 -7.74005246e-01 -8.45586877e-01
 -9.01004914e-01 -9.49495696e-01 -9.93368308e-01 -1.03955001e+00
 -1.09265896e+00 -1.15500425e+00 -1.23351313e+00 -1.33049470e+00
 -1.44363986e+00 -1.57294861e+00 -1.72073004e+00 -1.88467507e+00
 -2.05785643e+00 -2.24027413e+00 -2.42961909e+00 -2.61896405e+00
 -2.81061810e+00 -2.99996305e+00 -3.18699893e+00 -3.36941663e+00
 -3.54952525e+00 -3.72732479e+00 -3.90512432e+00 -4.08061477e+00
 -4.25841431e+00 -4.43852292e+00 -4.62094063e+00 -4.80566742e+00
 -4.99270329e+00 -5.17973917e+00 -5.36446595e+00 -5.54919274e+00
 -5.72930136e+00 -5.90248273e+00 -6.07104592e+00 -6.23499095e+00
 -6.39200872e+00 -6.54209924e+00 -6.68988067e+00 -6.83535301e+00
 -6.97851627e+00 -7.11937045e+00 -7.25791554e+00 -7.39646063e+00
 -7.53269664e+00 -7.66200539e+00 -7.78669598e+00 -7.90445930e+00
 -8.00836812e+00 -8.10304060e+00 -8.18154949e+00 -8.24389478e+00
 -8.29238556e+00 -8.32471275e+00 -8.33856726e+00 -8.34087634e+00
 -8.32933092e+00 -8.30854916e+00 -8.27853105e+00 -8.24620386e+00
 -8.21156759e+00 -8.18154949e+00 -8.15614955e+00 -8.13998596e+00
 -8.13536779e+00 -8.14229505e+00 -8.16307681e+00 -8.19309491e+00
 -8.23465844e+00 -8.28545831e+00 -8.34318543e+00 -8.40322164e+00
 -8.46556693e+00 -8.52791222e+00 -8.58794842e+00 -8.64798463e+00
 -8.70340267e+00 -8.75420253e+00 -8.80038423e+00 -8.83963867e+00
 -8.87658403e+00 -8.90429305e+00 -8.92507481e+00 -8.93662024e+00
 -8.93662024e+00 -8.92507481e+00 -8.89967488e+00 -8.86042044e+00
 -8.80500240e+00 -8.73572986e+00 -8.65260280e+00 -8.55562124e+00
 -8.44709425e+00 -8.32933092e+00 -8.20233125e+00 -8.06609525e+00
 -7.92524107e+00 -7.77976872e+00 -7.62736912e+00 -7.47035135e+00
 -7.30640633e+00 -7.13784313e+00 -6.96235268e+00 -6.77993498e+00
 -6.59289910e+00 -6.39893597e+00 -6.19804559e+00 -5.99484612e+00
 -5.78702848e+00 -5.57690176e+00 -5.36446595e+00 -5.15203015e+00
 -4.93728526e+00 -4.72023128e+00 -4.50317730e+00 -4.28381424e+00
 -4.06676026e+00 -3.85201537e+00 -3.63957956e+00 -3.43176192e+00
 -3.23087154e+00 -3.03921750e+00 -2.85679979e+00 -2.68592751e+00
 -2.52660066e+00 -2.37881923e+00 -2.24258322e+00 -2.11558355e+00
 -1.99551114e+00 -1.88236598e+00 -1.77152991e+00 -1.66300292e+00
 -1.55447593e+00 -1.44363986e+00 -1.33049470e+00 -1.21504046e+00
 -1.09496804e+00 -9.74895629e-01 -8.57132301e-01 -7.39368973e-01
 -6.26223815e-01 -5.17696826e-01 -4.18406177e-01 -3.26042783e-01
 -2.45224813e-01 -1.75952267e-01 -1.20534230e-01 -7.43525326e-02
 -4.43344294e-02 -2.81708353e-02 -2.35526656e-02 -3.74071748e-02
 -6.28071083e-02 -1.04370636e-01 -1.62097757e-01 -2.33679388e-01
 -3.16806443e-01 -4.13788008e-01 -5.20005911e-01 -6.35460154e-01
 -7.57841652e-01 -8.87150405e-01 -1.01876824e+00 -1.15269516e+00
 -1.29124026e+00 -1.42978535e+00 -1.56833044e+00 -1.71149370e+00
 -1.85696605e+00 -2.00474748e+00 -2.15483799e+00 -2.30954668e+00
 -2.46425537e+00 -2.62358222e+00 -2.78290908e+00 -2.94454502e+00
 -3.10618096e+00 -3.26550781e+00 -3.42252558e+00 -3.57723427e+00
 -3.72963387e+00 -3.87741530e+00 -4.01826948e+00 -4.15450549e+00
 -4.28150515e+00 -4.40157757e+00 -4.51010456e+00 -4.60939520e+00
 -4.69483134e+00 -4.76641298e+00 -4.82644918e+00 -4.87263088e+00
 -4.90495807e+00 -4.92804892e+00 -4.93959434e+00 -4.94652159e+00
 -4.94421251e+00 -4.93959434e+00 -4.92804892e+00 -4.91419441e+00
 -4.89572173e+00 -4.87263088e+00 -4.84723095e+00 -4.81952193e+00
 -4.78719474e+00 -4.75486755e+00 -4.72254036e+00 -4.69252226e+00]","[-2.53839755 -2.27000155 -1.98709765 -1.69210384 -1.38985608 -1.08760833
 -0.78777855 -0.49762071 -0.21471681  0.05126122  0.30756732  0.54694754
  0.77423785  0.98702027  1.19013076  1.38115135  1.5625      1.73417673
  1.89134556  2.03884246  2.17183148  2.2903126   2.39186784  2.48133318
  2.55629062  2.61915816  2.67235376  2.72313138  2.76907304  2.8150147
  2.86095636  2.90206206  2.94074977  2.96976555  2.98669143  2.98427344
  2.96492959  2.92140591  2.85853838  2.77874497  2.68686165  2.58772439
  2.48858712  2.39912179  2.32658233  2.2758047   2.2492069   2.24678892
  2.27096874  2.31449242  2.37494197  2.44748143  2.52485686  2.5998143
  2.6675178   2.72313138  2.76423708  2.7884169   2.79567084  2.78358093
  2.75456515  2.71345946  2.66026385  2.5998143   2.53452878  2.46682529
  2.40395775  2.3435082   2.29273058  2.2492069   2.22019112  2.20084726
  2.19842928  2.20810121  2.22986305  2.26855076  2.32174636  2.38944986
  2.46924327  2.56596255  2.67960771  2.81017874  2.96009362  3.1245164
  3.30828304  3.50413959  3.70725008  3.91519653  4.11105308  4.28998375
  4.43989864  4.54870783  4.60432142  4.60190344  4.5390359   4.40846487
  4.22228025  3.98048205  3.69757815  3.38324048  3.04955896  2.71104147
  2.37735995  2.0606043   1.76319251  1.49237852  1.25058032  1.03296193
  0.84194135  0.67268261  0.52276772  0.38494274  0.26162566  0.14556252
  0.03433535 -0.07447385 -0.18086506 -0.28483829 -0.38881151 -0.49036676
 -0.58950402 -0.68380532 -0.77085268 -0.85064608 -0.92318555 -0.9836351
 -1.03441272 -1.07551842 -1.10937016 -1.131132   -1.15047586 -1.16256577
 -1.17465568 -1.18432761 -1.19399954 -1.20608945 -1.21817936 -1.23268725
 -1.24719514 -1.26412102]",-2.7683411119028278e-14,2.84118935701024,4.330720000000001,-0.07158500000000023
004,2,1,csp,12a.png,1,0,188,183,180,1,1,775,neg_feedback_onset,1,"[-1.38313948 -1.4986536  -1.53273973 -1.48729155 -1.36420274 -1.17294167
 -0.92487038 -0.63892561 -0.33025674 -0.02158788  0.27003791  0.5332586
  0.7586058   0.93850483  1.07863671  1.18657612  1.27179145  1.34943209
  1.43275374  1.53501214  1.6618883   1.81906324  2.00085594  2.19779804
  2.39852748  2.58789488  2.74885717  2.8700523   2.94201191  2.95905498
  2.91928783  2.8264978   2.6806849   2.4913175   2.26028928  1.99138757
  1.68839973  1.35511311  0.98963403  0.60332453  0.1980783  -0.21474263
 -0.62188254 -1.01197938 -1.36988377 -1.68233998 -1.93987964 -2.13303439
 -2.25801687 -2.31861444 -2.31482709 -2.25612319 -2.14818378 -2.00237088
 -1.82247185 -1.61606139 -1.38692683 -1.13885554 -0.87184751 -0.58779641
 -0.29048959  0.0162856   0.32495446  0.62983597  0.91956809  1.18278878
  1.41002965  1.59182236  1.72437954  1.80580752  1.83421263  1.81716956
  1.76035934  1.67325034  1.56152357  1.43654109  1.30209024  1.16195836
  1.01614546  0.86465155  0.70558293  0.53704594  0.35146589  0.15263012
 -0.06324871 -0.29617061 -0.54045456 -0.79420687 -1.05174654 -1.30739252
 -1.55546382 -1.79217307 -2.00994558 -2.20688767 -2.38110568 -2.53070592
 -2.66136943 -2.77309619 -2.87156724 -2.96056992 -3.04389158 -3.12531956
 -3.20485387 -3.28438817 -3.36013513 -3.4283074  -3.48701129 -3.52867212
 -3.54950253 -3.54571518 -3.5154164  -3.45671251 -3.37528452 -3.27113245
 -3.15372467 -3.02874218 -2.90186603 -2.78067089 -2.6708378  -2.5761541
 -2.49851347 -2.43980957 -2.39814874 -2.37163731 -2.36027526 -2.35648792
 -2.36216894 -2.37163731 -2.38868037 -2.40951079 -2.4379159  -2.4738957
 -2.51934388 -2.57426043 -2.63675167 -2.70681761 -2.77877722 -2.84694948
 -2.90754705 -2.95678257 -2.9908687  -3.00412442 -2.9984434  -2.97571931
 -2.93973951 -2.896185   -2.85452418 -2.82233172 -2.81096967 -2.82611907
 -2.87535459 -2.96435727 -3.09691445 -3.26923878 -3.48133027 -3.72561421
 -3.99262225 -4.272886   -4.55504342 -4.82773248 -5.08148479 -5.30872567
 -5.50188042 -5.66094903 -5.78593152 -5.87872154 -5.94689381 -5.998023
 -6.03968383 -6.07945099 -6.12489916 -6.17792203 -6.24230695 -6.31616024
 -6.39569454 -6.4790162  -6.56044418 -6.63051012 -6.68732034 -6.72708749
 -6.74602423 -6.74223688 -6.71761912 -6.67406462 -6.61346705 -6.53961377
 -6.45439844 -6.36160841 -6.26313736 -6.15898529 -6.05483322 -5.94689381
 -5.84084806 -5.73290865 -5.6268629  -5.52271083 -5.42234611 -5.32766241
 -5.24244708 -5.1685938  -5.11178358 -5.07769744 -5.06822907 -5.09284684
 -5.14965706 -5.24244708 -5.37121691 -5.52839185 -5.71018456 -5.90712665
 -6.10974977 -6.30479819 -6.48848457 -6.64755318 -6.78200404 -6.88426243
 -6.95622204 -6.99977655 -7.01871329 -7.01303226 -6.9884145  -6.94864735
 -6.89751815 -6.83692058 -6.77064199 -6.70057606 -6.62861644 -6.55476316
 -6.48280355 -6.41084393 -6.33888432 -6.26881839 -6.2025398  -6.13626121
 -6.07566364 -6.01885342 -5.96772422 -5.92416972 -5.88818991 -5.86167848
 -5.84274174 -5.83516704 -5.83706071 -5.84652908 -5.8597848  -5.87682787
 -5.89576461 -5.91470135 -5.93174441 -5.94689381 -5.96014952 -5.97340524
 -5.98855463 -6.0055977  -6.03021546 -6.06430159 -6.1078561  -6.16277264
 -6.22905123 -6.30290452]","[nan nan nan nan nan nan nan nan nan nan nan nan nan nan nan nan nan nan
 nan nan nan nan nan nan nan nan nan nan nan nan nan nan nan nan nan nan
 nan nan nan nan nan nan nan nan nan nan nan nan nan nan nan nan nan nan
 nan nan nan nan nan nan nan nan nan nan nan nan nan nan nan nan nan nan
 nan nan nan nan nan nan nan nan nan nan nan nan nan nan nan nan nan nan
 nan nan nan nan nan nan nan nan nan nan nan nan nan nan nan nan nan nan
 nan nan nan nan nan nan nan nan nan nan nan nan nan nan nan nan nan nan
 nan nan nan nan nan nan nan nan nan nan nan nan nan nan]",1.0822820286550798,,5.28074,0.04463999999999935
004,2,1,csp,31a.png,1,1,0,136,178,0,0,NaN,neg_feedback_onset,2,"[nan nan nan nan nan nan nan nan nan nan nan nan nan nan nan nan nan nan
 nan nan nan nan nan nan nan nan nan nan nan nan nan nan nan nan nan nan
 nan nan nan nan nan nan nan nan nan nan nan nan nan nan nan nan nan nan
 nan nan nan nan nan nan nan nan nan nan nan nan nan nan nan nan nan nan
 nan nan nan nan nan nan nan nan nan nan nan nan nan nan nan nan nan nan
 nan nan nan nan nan nan nan nan nan nan nan nan nan nan nan nan nan nan
 nan nan nan nan nan nan nan nan nan nan nan nan nan nan nan nan nan nan
 nan nan nan nan nan nan nan nan nan nan nan nan nan nan nan nan nan nan
 nan nan nan nan nan nan nan nan nan nan nan nan nan nan nan nan nan nan
 nan nan nan nan nan nan nan nan nan nan nan nan nan nan nan nan nan nan
 nan nan nan nan nan nan nan nan nan nan nan nan nan nan nan nan nan nan
 nan nan nan nan nan nan nan nan nan nan nan nan nan nan nan nan nan nan
 nan nan nan nan nan nan nan nan nan nan nan nan nan nan nan nan nan nan
 nan nan nan nan nan nan nan nan nan nan nan nan nan nan nan nan nan nan
 nan nan nan nan nan nan nan nan]","[-3.19586178 -3.20006217 -3.14965756 -3.04044759 -2.87243225 -2.64351135
 -2.3515847  -1.99665229 -1.57871414 -1.09567003 -0.55172037  0.05103466
  0.70629448  1.40355814  2.13232468  2.87159218  3.60875948  4.31862429
  4.98648527  5.59764106  6.14159073  6.61413387  7.01737069  7.35970194
  7.65162859  7.90785199  8.14517365  8.37409455  8.60301546  8.84243731
  9.08815975  9.34018276  9.58800538  9.82112667 10.02904565 10.20126138
 10.32937307 10.41128055 10.44488362 10.43438266 10.38607825 10.31047135
 10.22226329 10.12985486 10.05004757  9.9912422   9.96814009  9.98284143
 10.04374699 10.14875658 10.2978702  10.48898764 10.71160797 10.96363098
 11.2387561  11.53068275 11.83521055 12.14813913 12.46736827 12.78869761
 13.11212714 13.43555667 13.7589862  14.08031553 14.39954468 14.71037306
 15.01280067 15.29842675 15.56305091 15.79617219 15.98518945 16.11750153
 16.18050728 16.15740517 16.03769424 15.80877334 15.46434189 15.00019952
 14.4205466  13.7316837  12.95041237 12.09143395 11.17575035 10.22646368
  9.26037547  8.30058784  7.36390232  6.46081987  5.60184145  4.79116743
  4.0350984   3.32943398  2.67627434  2.06931893  1.50646754  0.9835198
  0.4983755   0.04683428 -0.37110388 -0.76173955 -1.12087234 -1.45480282
 -1.76143082 -2.04075632 -2.29277933 -2.52170023 -2.72331864 -2.90183494
 -3.05724913 -3.18956121 -3.29877118 -3.39117961 -3.46468633 -3.5213915
 -3.56759572 -3.60329898 -3.63060147 -3.65160339 -3.67260531 -3.69360723
 -3.71880953 -3.7524126  -3.79651662 -3.85742218 -3.93722947 -4.03803867
 -4.16405018 -4.31316379 -4.48537952 -4.67439677 -4.87601518 -5.07973378
 -5.28135219 -5.47246964 -5.64678555 -5.80009955 -5.93451182 -6.05002237
 -6.14873138 -6.23483924]",,12.233564424431927,5.501049999999999,-0.05582500000000046
004,2,1,csp,19a.png,1,1,312,308,309,1,1,552,neg_feedback_onset,3,"[ 1.66543539e-01  1.26862527e-01  9.41840475e-02  6.61739219e-02
  4.28321505e-02  2.41587334e-02  5.48531628e-03 -1.08539237e-02
 -2.25248094e-02 -3.65298722e-02 -4.58665808e-02 -5.52032893e-02
 -6.22058207e-02 -6.45399979e-02 -6.68741750e-02 -6.22058207e-02
 -5.28691122e-02 -3.88640494e-02 -1.78564551e-02  1.01536706e-02
  4.75005048e-02  9.18498704e-02  1.45535945e-01  2.06224550e-01
  2.73915687e-01  3.48609356e-01  4.30305555e-01  5.16670110e-01
  6.05368841e-01  7.01070104e-01  7.99105543e-01  9.01809337e-01
  1.00918149e+00  1.12122199e+00  1.24259920e+00  1.36631059e+00
  1.49702451e+00  1.63474096e+00  1.77245741e+00  1.91017386e+00
  2.04555614e+00  2.17393588e+00  2.29297891e+00  2.39568271e+00
  2.48671561e+00  2.55907511e+00  2.61276118e+00  2.65244219e+00
  2.67344979e+00  2.68045232e+00  2.67578396e+00  2.65944472e+00
  2.62910042e+00  2.58941941e+00  2.54040169e+00  2.47971308e+00
  2.40968777e+00  2.32799157e+00  2.23695866e+00  2.13658904e+00
  2.02688272e+00  1.91250804e+00  1.79579918e+00  1.67909032e+00
  1.56238147e+00  1.45034096e+00  1.34763717e+00  1.25660426e+00
  1.17490806e+00  1.10955110e+00  1.05819921e+00  1.02318655e+00
  1.00451313e+00  9.99844777e-01  1.00918149e+00  1.03018908e+00
  1.06286756e+00  1.10021439e+00  1.14222958e+00  1.18657895e+00
  1.23092831e+00  1.27294350e+00  1.31029034e+00  1.34530299e+00
  1.37564730e+00  1.40132325e+00  1.42466502e+00  1.44333843e+00
  1.46201185e+00  1.47835109e+00  1.49469033e+00  1.51336375e+00
  1.53670552e+00  1.56471564e+00  1.60439666e+00  1.65108020e+00
  1.71176880e+00  1.78412830e+00  1.86815867e+00  1.96152576e+00
  2.06656373e+00  2.17627005e+00  2.29064473e+00  2.40735359e+00
  2.52172827e+00  2.63376877e+00  2.74114092e+00  2.84617889e+00
  2.94421433e+00  3.03758142e+00  3.12628015e+00  3.21264470e+00
  3.29200673e+00  3.36670040e+00  3.43672571e+00  3.49974849e+00
  3.55343457e+00  3.59778393e+00  3.62812824e+00  3.64680165e+00
  3.65147001e+00  3.64213330e+00  3.61412317e+00  3.57210798e+00
  3.51608773e+00  3.44839660e+00  3.36903457e+00  3.28033584e+00
  3.18696876e+00  3.09360167e+00  3.00023458e+00  2.91620421e+00
  2.84151054e+00  2.78315611e+00  2.74114092e+00  2.72013333e+00
  2.72246751e+00  2.74814345e+00  2.80182953e+00  2.87885737e+00
  2.98622952e+00  3.11694344e+00  3.27333331e+00  3.45073077e+00
  3.64913583e+00  3.86388013e+00  4.08796113e+00  4.32137885e+00
  4.55479656e+00  4.78354592e+00  5.00529275e+00  5.21536869e+00
  5.40910539e+00  5.58650285e+00  5.74756108e+00  5.88994588e+00
  6.01832562e+00  6.13503448e+00  6.24007245e+00  6.33810789e+00
  6.43380916e+00  6.52717624e+00  6.62754586e+00  6.73024965e+00
  6.84229015e+00  6.96366737e+00  7.09671546e+00  7.23910027e+00
  7.39082178e+00  7.55188000e+00  7.71994076e+00  7.89500404e+00
  8.07006733e+00  8.24746479e+00  8.42486225e+00  8.59992554e+00
  8.77498883e+00  8.94771793e+00  9.12044704e+00  9.29784450e+00
  9.47991032e+00  9.66897867e+00  9.86738373e+00  1.00774597e+01
  1.02992065e+01  1.05326242e+01  1.07730445e+01  1.10228014e+01
  1.12772267e+01  1.15339862e+01  1.17884115e+01  1.20381685e+01
  1.22832571e+01  1.25213431e+01  1.27500925e+01  1.29695051e+01
  1.31772469e+01  1.33756520e+01  1.35577178e+01  1.37211102e+01
  1.38634950e+01  1.39778697e+01  1.40595659e+01  1.41062494e+01
  1.41132519e+01  1.40829076e+01  1.40152165e+01  1.39171811e+01
  1.37958038e+01  1.36557532e+01  1.35087001e+01  1.33639811e+01
  1.32262646e+01  1.31025532e+01  1.29928469e+01  1.29041482e+01
  1.28341229e+01  1.27827710e+01  1.27524267e+01  1.27477583e+01
  1.27687659e+01  1.28224520e+01  1.29158191e+01  1.30488672e+01
  1.32309330e+01  1.34596823e+01  1.37374494e+01  1.40619000e+01
  1.44283659e+01  1.48275101e+01  1.52523304e+01  1.56888215e+01
  1.61229785e+01  1.65431303e+01  1.69306037e+01  1.72690594e+01
  1.75444923e+01  1.77405632e+01  1.78432670e+01  1.78479354e+01
  1.77498999e+01  1.75584974e+01  1.72807303e+01  1.69399405e+01
  1.65641379e+01  1.61883354e+01  1.58452114e+01  1.55697785e+01
  1.53947152e+01  1.53386949e+01  1.54110544e+01  1.56141278e+01
  1.59339101e+01  1.63447253e+01  1.68162291e+01  1.73134088e+01
  1.77965835e+01  1.82354088e+01  1.86018746e+01  1.88726391e+01]","[nan nan nan nan nan nan nan nan nan nan nan nan nan nan nan nan nan nan
 nan nan nan nan nan nan nan nan nan nan nan nan nan nan nan nan nan nan
 nan nan nan nan nan nan nan nan nan nan nan nan nan nan nan nan nan nan
 nan nan nan nan nan nan nan nan nan nan nan nan nan nan nan nan nan nan
 nan nan nan nan nan nan nan nan nan nan nan nan nan nan nan nan nan nan
 nan nan nan nan nan nan nan nan nan nan nan nan nan nan nan nan nan nan
 nan nan nan nan nan nan nan nan nan nan nan nan nan nan nan nan nan nan
 nan nan nan nan nan nan nan nan nan nan nan nan nan nan]",16.819897059453663,,4.284165,-0.37813999999999925
004,2,1,csm,26b.png,1,1,316,289,315,1,1,569,neu_feedback_onset,4,"[ 1.04138563  1.37236632  1.64116277  1.83172741  1.92600676  1.91998893
  1.81166797  1.60706172  1.31419396  0.94911222  0.52786406  0.06850297
 -0.41292349 -0.90036779 -1.38179426 -1.84516723 -2.28446888 -2.69568732
 -3.07280472 -3.41782702 -3.73075422 -4.00958039 -4.25831739 -4.4749593
 -4.66151206 -4.81998161 -4.95036794 -5.05467701 -5.13290881 -5.18907523
 -5.22117033 -5.23521193 -5.23120005 -5.20913467 -5.17102174 -5.12087315
 -5.05668295 -4.98045709 -4.89018963 -4.78788651 -4.66953583 -4.5391495
 -4.39271562 -4.23424607 -4.06374086 -3.88721783 -3.70868885 -3.53617769
 -3.37570221 -3.23528615 -3.12094737 -3.03870368 -2.99256698 -2.98253726
 -3.00660858 -3.06076906 -3.13900086 -3.23528615 -3.33959522 -3.44791618
 -3.55222524 -3.65051648 -3.74078394 -3.82503357 -3.90727726 -3.98751501
 -4.07577653 -4.17206182 -4.27837683 -4.39873345 -4.53313167 -4.67555367
 -4.82198755 -4.97042738 -5.11084343 -5.24122976 -5.35556855 -5.44583601
 -5.51403809 -5.55616291 -5.57221046 -5.56418669 -5.53209159 -5.481943
 -5.41374091 -5.32949128 -5.23320599 -5.12488503 -5.00051653 -4.86210642
 -4.70163093 -4.51507818 -4.30244815 -4.05972898 -3.78692065 -3.49004099
 -3.1731019  -2.84813904 -2.52718806 -2.22830246 -1.9635179  -1.75088788
 -1.59843617 -1.51418653 -1.50014493 -1.56032324 -1.6826858  -1.86522667
 -2.09390424 -2.35868879 -2.65155656 -2.96047188 -3.27741097 -3.596356
 -3.91128915 -4.21619258 -4.50304251 -4.76381518 -4.9944987  -5.1830574
 -5.3254794  -5.4177528  -5.45787167 -5.44784196 -5.39568742 -5.30943185
 -5.20311684 -5.09078399 -4.98446898 -4.89620746 -4.83001132 -4.79189839
 -4.77785679 -4.78186868 -4.79591028 -4.80995189 -4.81396377 -4.79992217
 -4.76782707 -4.71767848 -4.65750017 -4.59531592 -4.54717327 -4.52711384
 -4.54516733 -4.60935753 -4.7277082  -4.89821341 -5.11686126 -5.37362204
 -5.65646009 -5.94932786 -6.24018968 -6.5170099  -6.76574691 -6.98038287
 -7.15690591 -7.29331008 -7.38959537 -7.44977368 -7.47986283 -7.48387472
 -7.46381528 -7.42570236 -7.37354782 -7.30735168 -7.23112583 -7.14487025
 -7.04858496 -6.93825806 -6.81790144 -6.67949133 -6.52503367 -6.34650469
 -6.14189845 -5.9051971  -5.63640066 -5.32748534 -4.98045709 -4.59531592
 -4.17607371 -3.73276017 -3.27339908 -2.81203205 -2.36470663 -1.94546441
 -1.56834701 -1.24539009 -0.98261148 -0.786029   -0.64962484 -0.57139304
 -0.54330983 -0.54932766 -0.5834287  -0.6295654  -0.67971399 -0.7258507
 -0.76396362 -0.78803495 -0.80007061 -0.80007061 -0.78803495 -0.76596957
 -0.73588041 -0.69977343 -0.65764861 -0.61351785 -0.57139304 -0.53127417
 -0.49917907 -0.48112558 -0.47711369 -0.49316124 -0.52726228 -0.58142276
 -0.65363673 -0.74189824 -0.84420137 -0.95854015 -1.08090271 -1.20928311
 -1.34568727 -1.48610332 -1.63253721 -1.78699487 -1.9494763  -2.12198745
 -2.30452832 -2.50111079 -2.71374081 -2.94643027 -3.19717322 -3.4719875
 -3.77287904 -4.09583596 -4.43885232 -4.79791623 -5.16299796 -5.52406781
 -5.86507823 -6.17599949 -6.44278999 -6.65542001 -6.81188361 -6.90616296
 -6.94226995 -6.93023428 -6.87807975 -6.79583606 -6.69955077 -6.59323576
 -6.48892669 -6.38862951 -6.29435016 -6.20809458 -6.12785684 -6.04962504
 -5.97540513 -5.90118521]","[-3.57279119 -3.39429665 -3.1934903  -2.96590978 -2.7070927  -2.41703909
 -2.0868242  -1.71421687 -1.29475472 -0.82397539 -0.30634124  0.2603789
  0.86726031  1.5009159   2.15018976  2.79277008  3.41526976  3.99537699
  4.51970468  4.97486574  5.3563978   5.65760733  5.88741904  6.05252648
  6.16185438  6.23102101  6.2689511   6.2934941   6.30911237  6.32696182
  6.35150482  6.39389727  6.45413918  6.53892408  6.65717671  6.81112824
  7.00747223  7.24620866  7.52956873  7.85755244  8.22569741  8.62507893
  9.04900344  9.48631505  9.92139547 10.34085762 10.72685205 11.06376048
 11.33596464 11.52561508 11.61709353 11.60593762 11.48545381 11.26010446
 10.93881431 10.53720161 10.075347    9.57556231  9.05792817  8.54029403
  8.03604697  7.54741819  7.07663886  6.61701544  6.15739202  5.69553741
  5.21806454  4.72720457  4.2251887   3.7142481   3.21000105  2.72137227
  2.25728648  1.82666842  1.43398045  1.0747602   0.74454532  0.43217989
  0.12427682 -0.1903198  -0.52499704 -0.88644847 -1.27690526 -1.69636741
 -2.13814138 -2.5977648  -3.05961941 -3.51701164 -3.95432325 -4.36486067
 -4.74193037 -5.08106999 -5.38451069 -5.65225249 -5.89098893 -6.10072
 -6.28813926 -6.45994025 -6.61389178 -6.75668741 -6.88609595 -7.00211739
 -7.10252057 -7.18953665 -7.25870328 -7.31002046 -7.34348818 -7.35687527
 -7.35464409 -7.33902582 -7.31002046 -7.27209037 -7.22969792 -7.18730547
 -7.1471442  -7.11367647 -7.08690229 -7.07128402 -7.06905284 -7.07797757
 -7.0980582  -7.12706356 -7.16276247 -7.20515492 -7.25200974 -7.29886455
 -7.34795055 -7.39703654 -7.44389136 -7.49074617 -7.53313863 -7.57553108
 -7.61346117 -7.64916007 -7.68039661 -7.70940198 -7.73394497 -7.75625679
 -7.77633743 -7.79641806]",-0.6864004712630289,8.321415104653573,4.985185,-0.5285949999999984
004,2,1,csm,8b.png,1,1,116,127,108,1,1,781,neu_feedback_onset,5,"[ 5.52928764e-01  4.99198937e-01  4.47911375e-01  3.94181548e-01
  3.42893986e-01  2.94048689e-01  2.42761127e-01  1.93915830e-01
  1.40186003e-01  8.15716463e-02  2.05150248e-02 -4.78683912e-02
 -1.18694072e-01 -1.94404283e-01 -2.74999023e-01 -3.55593763e-01
 -4.36188504e-01 -5.16783244e-01 -5.94935720e-01 -6.70645930e-01
 -7.41471611e-01 -8.07412762e-01 -8.70911649e-01 -9.29526005e-01
 -9.83255832e-01 -1.02965886e+00 -1.07117737e+00 -1.10536908e+00
 -1.13223399e+00 -1.15177211e+00 -1.16154117e+00 -1.15909890e+00
 -1.14688758e+00 -1.12490719e+00 -1.09315775e+00 -1.05163925e+00
 -1.00035169e+00 -9.39295065e-01 -8.73353913e-01 -8.00085968e-01
 -7.24375757e-01 -6.41338752e-01 -5.60744012e-01 -4.77707006e-01
 -3.94670001e-01 -3.11632996e-01 -2.33480520e-01 -1.55328045e-01
 -8.20600993e-02 -1.12344184e-02  5.71489977e-02  1.18205619e-01
  1.74377711e-01  2.25665273e-01  2.64741511e-01  2.96490954e-01
  3.16029073e-01  3.20913602e-01  3.11144543e-01  2.89164159e-01
  2.52530186e-01  2.03684889e-01  1.47512797e-01  8.88984409e-02
  2.78418194e-02 -3.07725372e-02 -7.96178344e-02 -1.16251807e-01
 -1.38232191e-01 -1.45558986e-01 -1.33347661e-01 -1.01598218e-01
 -5.51951858e-02  8.30370052e-03  8.64561760e-02  1.76819976e-01
  2.79395100e-01  3.91739283e-01  5.11410261e-01  6.40850299e-01
  7.77617131e-01  9.24153023e-01  1.07801571e+00  1.23920519e+00
  1.40772146e+00  1.58356453e+00  1.76184987e+00  1.93769294e+00
  2.11109374e+00  2.27228322e+00  2.41637685e+00  2.53360556e+00
  2.61908483e+00  2.66793013e+00  2.67037240e+00  2.62885389e+00
  2.53604783e+00  2.39928100e+00  2.22099566e+00  2.00607635e+00
  1.76429213e+00  1.50296979e+00  1.23432066e+00  9.68113790e-01
  7.09233715e-01  4.65007229e-01  2.45203392e-01  4.73799383e-02
 -1.28463132e-01 -2.77441288e-01 -4.04439061e-01 -5.14340979e-01
 -6.07147044e-01 -6.85299519e-01 -7.56125200e-01 -8.14739557e-01
 -8.66027119e-01 -9.09987886e-01 -9.44179594e-01 -9.68602243e-01
 -9.80813567e-01 -9.80813567e-01 -9.63717713e-01 -9.31968270e-01
 -8.80680708e-01 -8.09855027e-01 -7.17048963e-01 -6.07147044e-01
 -4.75264742e-01 -3.28728850e-01 -1.69981634e-01 -3.90762377e-03
  1.67050916e-01  3.35567192e-01  4.94314407e-01  6.35965769e-01
  7.55636747e-01  8.48442812e-01  9.11941698e-01  9.43691141e-01
  9.43691141e-01  9.16826228e-01  8.67980931e-01  8.02039780e-01
  7.28771834e-01  6.55503888e-01  5.92005002e-01  5.45601969e-01
  5.23621586e-01  5.30948380e-01  5.70024618e-01  6.45734829e-01
  7.55636747e-01  8.99730374e-01  1.07313118e+00  1.27339690e+00
  1.49808526e+00  1.73986949e+00  1.99386503e+00  2.25762964e+00
  2.52383651e+00  2.79004337e+00  3.05380798e+00  3.31268805e+00
  3.56179907e+00  3.80114103e+00  4.02827166e+00  4.24807550e+00
  4.45322574e+00  4.64860693e+00  4.83421906e+00  5.01250440e+00
  5.18102067e+00  5.33976789e+00  5.49363057e+00  5.63772420e+00
  5.77204877e+00  5.89660427e+00  6.00894846e+00  6.10663905e+00
  6.19211832e+00  6.25805947e+00  6.31178930e+00  6.34598101e+00
  6.36551913e+00  6.37040366e+00  6.35819233e+00  6.33376968e+00
  6.29713571e+00  6.24829041e+00  6.18723379e+00  6.11396585e+00
  6.02848658e+00  5.93079598e+00  5.81845180e+00  5.69145403e+00
  5.55224493e+00  5.40082451e+00  5.23963503e+00  5.07356102e+00
  4.90016021e+00  4.72675941e+00  4.55580087e+00  4.39461139e+00
  4.24074870e+00  4.09909734e+00  3.97454183e+00  3.86463991e+00
  3.77183385e+00  3.69123911e+00  3.62774022e+00  3.57156813e+00
  3.52760736e+00  3.48853112e+00  3.45433942e+00  3.42258997e+00
  3.39328279e+00  3.36641788e+00  3.34443750e+00  3.32489938e+00
  3.31268805e+00  3.31024579e+00  3.32001485e+00  3.34199523e+00
  3.38107147e+00  3.43724356e+00  3.51051151e+00  3.60087531e+00
  3.70589270e+00  3.82556367e+00  3.95256145e+00  4.07955922e+00
  4.20411473e+00  4.31890118e+00  4.41170724e+00  4.48253292e+00
  4.52405142e+00  4.53382048e+00  4.50939784e+00  4.45566801e+00
  4.37263100e+00  4.27005588e+00  4.15282717e+00  4.03071392e+00
  3.90860068e+00  3.79625650e+00  3.69612364e+00  3.61552890e+00
  3.55691454e+00  3.52028057e+00  3.50806924e+00  3.51783830e+00
  3.55203001e+00  3.60820210e+00  3.68635458e+00  3.78404517e+00
  3.90127389e+00  4.03559845e+00  4.18457661e+00  4.34088156e+00]","[-2.6736609  -2.61920752 -2.51030076 -2.33559617 -2.09282486 -1.7865246
 -1.4189643  -1.00829506 -0.56586136 -0.1143521   0.32808161  0.74555751
  1.12673116  1.46025811  1.74386946  1.98210299  2.18176538  2.35646997
  2.51756121  2.68319024  2.8669704   3.0870528   3.35024413  3.66335106
  4.02637359  4.43704282  4.87947652  5.34686802  5.81652842  6.27484435
  6.69912693  7.07803169  7.39794529  7.64979217  7.83357232  7.95155464
  8.0105458   8.02189026  7.99920135  7.95155464  7.89029459  7.82449676
  7.76096782  7.69970777  7.64525439  7.59533879  7.54996098  7.50231427
  7.45012978  7.38660084  7.30945855  7.20962736  7.08256947  6.91920934
