sub,run,cat_cond,trial_type,picture,old,response_old,target_pos,response_pos,dot_resp_loc,cat_corr,TN_corr,TN_rt,feedback_type,trial,SP_timeseries,FB_timeseries,SP_peak_response,FB_peak_response,preStim_bl,anticipation
005,1,1,csp,6a.png,1,1,228,226,NaN,0,1,303,neg_feedback_onset,1,"[ 3.33388599e-01  1.28518823e-01 -5.31182975e-02 -2.13634823e-01
 -3.48806634e-01 -4.58633730e-01 -5.38891992e-01 -5.87469362e-01
 -6.00141719e-01 -5.72684945e-01 -5.07211099e-01 -3.99496063e-01
 -2.55876014e-01 -7.84630120e-02  1.24294704e-01  3.46060956e-01
  5.78387506e-01  8.12826115e-01  1.03881649e+00  1.25213450e+00
  1.44855604e+00  1.62174492e+00  1.77592527e+00  1.91320914e+00
  2.03782065e+00  2.15398393e+00  2.27225926e+00  2.39687077e+00
  2.53626670e+00  2.69255911e+00  2.86574799e+00  3.05794541e+00
  3.26492724e+00  3.47824526e+00  3.69156327e+00  3.89432099e+00
  4.08229429e+00  4.24492287e+00  4.38009468e+00  4.48569766e+00
  4.56173180e+00  4.61453329e+00  4.65043831e+00  4.67578302e+00
  4.70112773e+00  4.73280863e+00  4.78138600e+00  4.84897190e+00
  4.93979046e+00  5.04961756e+00  5.17845319e+00  5.31784912e+00
  5.45724505e+00  5.59030480e+00  5.70646808e+00  5.80151076e+00
  5.86698460e+00  5.90500167e+00  5.91767403e+00  5.91344991e+00
  5.89655344e+00  5.88388108e+00  5.88599314e+00  5.91133785e+00
  5.97469964e+00  6.07819056e+00  6.22392266e+00  6.41189596e+00
  6.63155016e+00  6.87232494e+00  7.12366003e+00  7.36654688e+00
  7.58831313e+00  7.77839849e+00  7.92413060e+00  8.02339740e+00
  8.07197477e+00  8.07408682e+00  8.03395769e+00  7.95792355e+00
  7.85443263e+00  7.73193318e+00  7.59676137e+00  7.45314132e+00
  7.30740921e+00  7.15745298e+00  7.00538470e+00  6.85120435e+00
  6.69491194e+00  6.53439542e+00  6.37176683e+00  6.21125031e+00
  6.05284584e+00  5.90288961e+00  5.76138162e+00  5.63254599e+00
  5.51849478e+00  5.41711592e+00  5.33052148e+00  5.25659939e+00
  5.19323761e+00  5.13832406e+00  5.09397081e+00  5.05595374e+00
  5.02638490e+00  5.00104019e+00  4.97991959e+00  4.96513518e+00
  4.95035076e+00  4.93767840e+00  4.92711811e+00  4.91866987e+00
  4.91444575e+00  4.91444575e+00  4.92289399e+00  4.94823870e+00
  4.98836783e+00  5.05172962e+00  5.13621200e+00  5.24392704e+00
  5.37276267e+00  5.51849478e+00  5.67267512e+00  5.82474341e+00
  5.96413934e+00  6.07819056e+00  6.15211264e+00  6.17745735e+00
  6.14155234e+00  6.03594937e+00  5.85642430e+00  5.60720128e+00
  5.28828029e+00  4.90810957e+00  4.47936148e+00  4.01682044e+00
  3.53527087e+00  3.04949717e+00  2.57428377e+00  2.12441509e+00
  1.70622730e+00  1.32816864e+00  9.90239117e-01  6.92438721e-01
  4.30543338e-01  2.02440907e-01  1.79525061e-03 -1.73505691e-01
 -3.29798098e-01 -4.69194028e-01 -5.93805541e-01 -7.07856756e-01
 -8.09235614e-01 -9.00054174e-01 -9.84536556e-01 -1.06268276e+00
 -1.13660484e+00 -1.21263899e+00 -1.28867313e+00 -1.36893139e+00
 -1.45763789e+00 -1.55479263e+00 -1.66673179e+00 -1.79345536e+00
 -1.93707541e+00 -2.10181605e+00 -2.28556523e+00 -2.49043501e+00
 -2.71431332e+00 -2.95720017e+00 -3.21487143e+00 -3.48521506e+00
 -3.76189486e+00 -4.04491083e+00 -4.32581475e+00 -4.60038249e+00
 -4.86438994e+00 -5.11361296e+00 -5.34171539e+00 -5.54447311e+00
 -5.72188611e+00 -5.87184234e+00 -5.99011767e+00 -6.07671211e+00
 -6.13373772e+00 -6.16119450e+00 -6.16330656e+00 -6.14007390e+00
 -6.09360859e+00 -6.03024680e+00 -5.94998854e+00 -5.85494586e+00
 -5.75145495e+00 -5.63951579e+00 -5.51701634e+00 -5.39029276e+00
 -5.25512095e+00 -5.11361296e+00 -4.96576879e+00 -4.80947639e+00
 -4.64684780e+00 -4.47365892e+00 -4.28990974e+00 -4.09771232e+00
 -3.89495461e+00 -3.68374865e+00 -3.46409446e+00 -3.23387997e+00
 -2.99732930e+00 -2.75444245e+00 -2.50944355e+00 -2.25810846e+00
 -2.00888543e+00 -1.75966241e+00 -1.51255144e+00 -1.26966459e+00
 -1.03733804e+00 -8.11347674e-01 -5.95917600e-01 -3.95271944e-01
 -2.07298644e-01 -3.19977021e-02  1.26406764e-01  2.67914753e-01
  3.94638326e-01  5.04465422e-01  5.97396042e-01  6.73430185e-01
  7.32567853e-01  7.76921103e-01  8.06489937e-01  8.21274353e-01
  8.25498472e-01  8.21274353e-01  8.12826115e-01  8.04377877e-01
  8.00153758e-01  8.04377877e-01  8.17050234e-01  8.44507008e-01
  8.84636140e-01  9.39549688e-01  1.00713559e+00  1.08316974e+00
  1.16765212e+00  1.25424656e+00  1.34295306e+00  1.42743544e+00
  1.50769370e+00  1.57739167e+00  1.63441728e+00  1.67877053e+00
  1.70622730e+00  1.71889966e+00  1.71678760e+00  1.69989112e+00
  1.67032229e+00  1.62808110e+00  1.58161579e+00  1.52670224e+00]","[  3.43378218   3.20077073   2.88351668   2.49815159   2.06080703
   1.59119934   1.10904488   0.63047521   0.1698295   -0.26034548
  -0.65288016  -1.00598212  -1.31427419  -1.58134116  -1.80718303
  -1.99179979  -2.13519145  -2.23735801  -2.29292228  -2.29829946
  -2.24990478  -2.14236103  -1.97566823  -1.74803397  -1.46662783
  -1.13861941  -0.77297067  -0.38402079   0.01568346   0.41001053
   0.78462124   1.12876123   1.42988372   1.67723433   1.86722828
   1.9891112    2.03929828   2.01241234   1.9012838    1.70591267
   1.42271414   1.04989582   0.58745771   0.03898461  -0.58476912
  -1.27663388  -2.01689333  -2.7912083   -3.57627764  -4.34880022
  -5.08905966  -5.77554724  -6.39213138  -6.92805772  -7.37436426
  -7.73284341  -8.00349517  -8.19707391  -8.32074922  -8.38527547
  -8.40499182  -8.38886026  -8.34763516  -8.2866937   -8.21141308
  -8.12896288  -8.04113548  -7.95151569  -7.85831112  -7.76510654
  -7.67010956  -7.57511258  -7.48011561  -7.38332624  -7.28653687
  -7.1879551   -7.08578854  -6.9782448   -6.86353147  -6.73806376
  -6.5964645   -6.43694128  -6.2559093   -6.04978379  -5.81497995
  -5.55687496  -5.27905362  -4.9904779   -4.70369458  -4.43662761
  -4.20720095  -4.03333856  -3.9329644   -3.92221002  -4.01362221
  -4.21437053  -4.5262474   -4.9474604   -5.47083996  -6.0874241
  -6.78108126  -7.53926467  -8.34046557  -9.16676002  -9.99843165
 -10.81397172 -11.59545628 -12.32496135 -12.99173257 -13.58501557
 -14.09943315 -14.53140053 -14.88091771 -15.15515426 -15.35590258
 -15.49212466 -15.57099007 -15.6032532  -15.59787601 -15.5602357
 -15.50108664 -15.42759841 -15.3469406  -15.2644904  -15.18204019
 -15.10496718 -15.03685614 -14.97412229 -14.92214281 -14.87733292
 -14.8396926  -14.80742948 -14.78054354 -14.75365761 -14.72677167
 -14.69630094 -14.66045303 -14.61385074 -14.55828647 -14.49017543]",6.77717666216447,8.748557434046233e-15,4.734715,
005,1,1,csp,16a.png,1,1,236,283,237,1,1,548,neg_feedback_onset,2,"[-1.24443578 -1.20977786 -1.14479427 -1.04948501 -0.92601618 -0.78088616
 -0.61842718 -0.44080536 -0.25235295 -0.05956829  0.13321636  0.31950266
  0.49495836  0.6530851   0.78955064  0.90435498  0.99749813  1.07547844
  1.14479427  1.2141101   1.29209041  1.39173192  1.5216991   1.6863242
  1.88777334  2.12388039  2.38598087  2.66541032  2.95133812  3.23076756
  3.48420357  3.70514778  3.87843736  3.99757395  4.05605918  4.0473947
  3.97591275  3.84161333  3.64882867  3.40405714  3.1137971   2.78238078
  2.41847267  2.03073724  1.62134061  1.19678115  0.76572332  0.33033326
 -0.10289069 -0.52528403 -0.93251454 -1.31375161 -1.66249689 -1.96791977
 -2.22135577 -2.41197431 -2.52894477 -2.56143657 -2.50295134 -2.3448246
 -2.08705635 -1.7296466  -1.28125982 -0.75922496 -0.17870488  0.43214088
  1.04731889  1.63866957  2.17803338  2.64374912  3.02065395  3.30224952
  3.48853581  3.5860112   3.60983852  3.57734672  3.50803089  3.41921998
  3.32607683  3.24159816  3.17228233  3.12029546  3.08563754  3.07047471
  3.07047471  3.08347142  3.1029665   3.12895994  3.15928561  3.19177741
  3.22643533  3.25892712  3.29358504  3.32391071  3.35423639  3.38239595
  3.40838938  3.43005058  3.44954566  3.46470849  3.47770521  3.49070193
  3.50153253  3.51452925  3.52535985  3.53619045  3.54485492  3.54918716
  3.5426888   3.52535985  3.48853581  3.4322167   3.35207027  3.24376428
  3.11163098  2.95133812  2.76938406  2.56360269  2.34049236  2.10005307
  1.84661706  1.5866827   1.32241609  1.05598336  0.79171676  0.53394851
  0.28917698  0.05740217 -0.15487756 -0.34116386 -0.49712448 -0.6205933
 -0.70290585 -0.741896   -0.73106541 -0.66824793 -0.55127747 -0.38448625
 -0.16570816  0.09639233  0.39531685  0.72240093  1.06898008  1.4220576
  1.77296899  2.11088367  2.43146939  2.72822779  2.99466051  3.23293368
  3.43871506  3.61417076  3.75930078  3.87627124  3.96724827  4.03006574
  4.0690559   4.0798865   4.06688978  4.0257335   3.96291603  3.87627124
  3.76579914  3.63366583  3.48203745  3.31308011  3.12895994  2.93184304
  2.72606167  2.51161582  2.29500384  2.07405963  1.85528154  1.63866957
  1.4220576   1.20544562  0.98883365  0.76788944  0.54044687  0.30433982
  0.06173441 -0.18520324 -0.43647312 -0.68341077 -0.92385006 -1.14696039
 -1.34840953 -1.5216991  -1.66033077 -1.76213839 -1.82712199 -1.85528154
 -1.84878318 -1.81412527 -1.75564003 -1.67765972 -1.5866827  -1.48487507
 -1.37656908 -1.2682631  -1.15779099 -1.04948501 -0.94551126 -0.84586975
 -0.74839436 -0.65741734 -0.56644031 -0.47979552 -0.39315073 -0.3021737
 -0.20903055 -0.10722293  0.0054153   0.13105024  0.27184803  0.42780864
  0.60543046  0.80254736  1.01699321  1.25310026  1.50653627  1.77946735
  2.06539515  2.36215356  2.66541032  2.96866708  3.2675916   3.55785164
  3.83078273  4.08205262  4.30732907  4.50227984  4.66690494  4.80120436
  4.90734423  4.98315842  5.03514529  5.06763709  5.08496605  5.09146441
  5.09363052  5.09363052  5.09796276  5.11095948  5.13045456  5.16078024
  5.19977039  5.24309279  5.2885813   5.32540534  5.34706653  5.34923265
  5.32323922  5.26475398  5.17377695  5.05030813  4.89651363  4.71889181
  4.52394104  4.31599354]","[-2.48211862 -2.50451233 -2.47316114 -2.38582568 -2.24474532 -2.04768068
 -1.79687115 -1.49455609 -1.14745361 -0.75556372 -0.32784389  0.13122713
  0.6171706   1.12102904  1.6383237   2.16457584  2.6975461   3.23051635
  3.76348661  4.29645687  4.82718775  5.35791864  5.8908889   6.42385915
  6.96130815  7.50547526  8.05636048  8.62068193  9.20067898  9.79635162
 10.41441797 11.05487802 11.71997116 12.41193674 13.12629604 13.85633093
 14.59756267 15.33655504 16.05987182 16.74735866 17.38110061 17.94094331
 18.40449307 18.75383492 18.97329326 19.04943187 18.97553263 18.75159555
 18.38433874 17.89391653 17.304962   16.64658697 15.9613395  15.28728888
 14.66698316 14.13625228 13.72644742 13.45772292 13.34575438 13.38830242
 13.57640957 13.88768212 14.29524761 14.76327611 15.26041643 15.75307802
 16.20767029 16.6062783  16.92426896 17.15492415 17.29376514 17.33855256
 17.29376514 17.16836038 16.97577449 16.72720432 16.44056486 16.12705294
 15.80682292 15.49555037 15.21338965 14.97377697 14.79238793 14.68489813
 14.66250442 14.72744618 14.88420213 15.12829355 15.44628421 15.82473788
 16.24126086 16.67345942 17.09670051 17.48635103 17.82225666 18.08202367
 18.2566946  18.33955132 18.32835447 18.23206152 18.05962997 17.82897477
 17.56025027 17.26913206 16.98025323 16.70704999 16.4607192  16.25021834
 16.07330804 15.92774894 15.79786543 15.67022129 15.52914093 15.35223064
 15.13053293 14.8483722  14.50574846 14.10266172 13.65030881 13.16212597
 12.65602816 12.15216973 11.67294437 11.23626706 10.85557402 10.53982273
 10.29573131 10.12329976 10.0202887   9.97774065  9.99341625 10.058358
 10.1658478  10.31140691 10.49279594 10.7032968  10.94067011 11.20491587
 11.49603407 11.80730662]",5.029244483583964,14.567946989613802,4.616550000000001,0.11313499999999976
005,1,1,csm,52b.png,1,1,32,359,32,1,1,359,neu_feedback_onset,3,"[-1.54863789e+00 -1.40560833e+00 -1.26649738e+00 -1.11758989e+00
 -9.54967240e-01 -7.74710806e-01 -5.76820590e-01 -3.65215211e-01
 -1.47731904e-01  6.77920938e-02  2.73519546e-01  4.59653908e-01
  6.24235869e-01  7.59428195e-01  8.67190194e-01  9.49481175e-01
  1.00434183e+00  1.03960939e+00  1.05528386e+00  1.05724317e+00
  1.04940594e+00  1.03177216e+00  1.01217907e+00  9.94545284e-01
  9.86708047e-01  9.96504593e-01  1.03569077e+00  1.11406314e+00
  1.24337754e+00  1.42951190e+00  1.67638484e+00  1.98399636e+00
  2.34254992e+00  2.74028966e+00  3.15958181e+00  3.57691464e+00
  3.96485783e+00  4.29989968e+00  4.55656917e+00  4.71331390e+00
  4.75445939e+00  4.67020910e+00  4.46056303e+00  4.12552118e+00
  3.67879871e+00  3.13019217e+00  2.49929465e+00  1.80373993e+00
  1.06312110e+00  2.95071946e-01 -4.80814446e-01 -1.25082291e+00
 -2.00319759e+00 -2.72422333e+00 -3.40802220e+00 -4.04871626e+00
 -4.64042760e+00 -5.18315621e+00 -5.67494279e+00 -6.11774664e+00
 -6.51156776e+00 -6.86032478e+00 -7.16597699e+00 -7.43440233e+00
 -7.66756011e+00 -7.86936895e+00 -8.04374745e+00 -8.19265494e+00
 -8.32001003e+00 -8.42777203e+00 -8.51790025e+00 -8.59039468e+00
 -8.65113326e+00 -8.69815668e+00 -8.73538355e+00 -8.76477319e+00
 -8.78632559e+00 -8.80200006e+00 -8.81179661e+00 -8.81767454e+00
 -8.81767454e+00 -8.81179661e+00 -8.80200006e+00 -8.78632559e+00
 -8.76281388e+00 -8.73538355e+00 -8.70207530e+00 -8.66484843e+00
 -8.62370294e+00 -8.58059814e+00 -8.53945265e+00 -8.50222578e+00
 -8.47283614e+00 -8.45128374e+00 -8.44344650e+00 -8.44736512e+00
 -8.46891752e+00 -8.50614439e+00 -8.56296436e+00 -8.63741810e+00
 -8.73146494e+00 -8.84314555e+00 -8.97050064e+00 -9.11157090e+00
 -9.26635631e+00 -9.43093827e+00 -9.60139816e+00 -9.77773598e+00
 -9.95603310e+00 -1.01323709e+01 -1.03047901e+01 -1.04693721e+01
 -1.06261168e+01 -1.07711057e+01 -1.09043387e+01 -1.10218972e+01
 -1.11218220e+01 -1.12021537e+01 -1.12628923e+01 -1.12962005e+01
 -1.13001191e+01 -1.12687702e+01 -1.11962757e+01 -1.10747986e+01
 -1.08984608e+01 -1.06594251e+01 -1.03518135e+01 -9.97758550e+00
 -9.53282235e+00 -9.02732061e+00 -8.47087683e+00 -7.87916549e+00
 -7.27177968e+00 -6.67027180e+00 -6.09815355e+00 -5.58089595e+00
 -5.13613279e+00 -4.78149785e+00 -4.52482836e+00 -4.37200226e+00
 -4.32301953e+00 -4.37004295e+00 -4.49935735e+00 -4.70116618e+00
 -4.95587636e+00 -5.24585410e+00 -5.55738424e+00 -5.87087370e+00
 -6.17260729e+00 -6.44495125e+00 -6.67614972e+00 -6.84856892e+00
 -6.95633092e+00 -6.99355779e+00 -6.95437161e+00 -6.84660961e+00
 -6.68006834e+00 -6.47434089e+00 -6.24902035e+00 -6.03349635e+00
 -5.85323991e+00 -5.73372206e+00 -5.69257657e+00 -5.74547791e+00
 -5.89634471e+00 -6.14321766e+00 -6.47042227e+00 -6.86424339e+00
 -7.30312862e+00 -7.76160695e+00 -8.22204458e+00 -8.66288912e+00
 -9.07238471e+00 -9.44269413e+00 -9.76793943e+00 -1.00520392e+01
 -1.02969529e+01 -1.05085583e+01 -1.06927333e+01 -1.08533967e+01
 -1.09964262e+01 -1.11257406e+01 -1.12374212e+01 -1.13334274e+01
 -1.14078811e+01 -1.14607825e+01 -1.14862535e+01 -1.14764569e+01
 -1.14274742e+01 -1.13314681e+01 -1.11884385e+01 -1.09905483e+01
 -1.07358381e+01 -1.04282266e+01 -1.00677137e+01 -9.66213674e+00
 -9.21933289e+00 -8.75105803e+00 -8.27102730e+00 -7.79491520e+00
 -7.33839619e+00 -6.91714474e+00 -6.54291671e+00 -6.22550864e+00
 -5.97079846e+00 -5.78466410e+00 -5.66318693e+00 -5.60244835e+00
 -5.59461112e+00 -5.63379730e+00 -5.71021035e+00 -5.81209442e+00
 -5.92965297e+00 -6.05504875e+00 -6.18044453e+00 -6.29800307e+00
 -6.39988714e+00 -6.48021882e+00 -6.53507947e+00 -6.56250980e+00
 -6.55467256e+00 -6.51352707e+00 -6.43515471e+00 -6.32151478e+00
 -6.17260729e+00 -5.98843224e+00 -5.76703031e+00 -5.50840152e+00
 -5.21058654e+00 -4.86966676e+00 -4.48564218e+00 -4.05851281e+00
 -3.59219725e+00 -3.09453274e+00 -2.57727515e+00 -2.05609894e+00
 -1.54863789e+00 -1.07252578e+00 -6.43437098e-01 -2.80964921e-01
  9.01282172e-03  2.20618201e-01  3.53851218e-01  4.14589799e-01
  4.10671181e-01  3.55810527e-01  2.63723001e-01  1.48123766e-01
  2.07686761e-02 -1.02667795e-01 -2.16307721e-01 -3.06435938e-01
 -3.69133829e-01 -3.96564156e-01 -3.88726919e-01 -3.43662811e-01
 -2.67249757e-01 -1.65365685e-01 -4.78071413e-02  7.36700210e-02]","[-4.99154944e-01 -4.97279127e-01 -4.97279127e-01 -4.95403310e-01
 -4.86024224e-01 -4.69141870e-01 -4.41004613e-01 -3.99736635e-01
 -3.45337938e-01 -2.77808520e-01 -1.97148383e-01 -1.03357525e-01
  5.43986974e-03  1.29243802e-01  2.69930088e-01  4.33126181e-01
  6.18832079e-01  8.30799417e-01  1.07465565e+00  1.34664913e+00
  1.65053151e+00  1.98255115e+00  2.33708059e+00  2.71036820e+00
  3.09303490e+00  3.47945324e+00  3.85836830e+00  4.22227683e+00
  4.55992392e+00  4.86193048e+00  5.11704161e+00  5.31400241e+00
  5.44343380e+00  5.49408086e+00  5.45656452e+00  5.32713313e+00
  5.10391089e+00  4.78877361e+00  4.38359710e+00  3.89963628e+00
  3.34627022e+00  2.73850546e+00  2.08384528e+00  1.39917201e+00
  6.95740582e-01 -1.33183018e-02 -7.18625551e-01 -1.40705045e+00
 -2.06733808e+00 -2.69010938e+00 -3.26598524e+00 -3.78558660e+00
 -4.23953435e+00 -4.62595268e+00 -4.94296578e+00 -5.19244946e+00
 -5.37627954e+00 -5.50195929e+00 -5.57886779e+00 -5.61825995e+00
 -5.62951486e+00 -5.62388741e+00 -5.61263250e+00 -5.60512923e+00
 -5.60888087e+00 -5.63326649e+00 -5.67641029e+00 -5.74393970e+00
 -5.83022729e+00 -5.93339724e+00 -6.04407045e+00 -6.15849529e+00
 -6.26916851e+00 -6.37233845e+00 -6.46612931e+00 -6.55054108e+00
 -6.62932540e+00 -6.71186135e+00 -6.80002476e+00 -6.90694634e+00
 -7.03637772e+00 -7.19207055e+00 -7.37402481e+00 -7.57848888e+00
 -7.79983530e+00 -8.02305754e+00 -8.23690070e+00 -8.42448242e+00
 -8.57267197e+00 -8.66833865e+00 -8.70397917e+00 -8.67209028e+00
 -8.57642360e+00 -8.41885496e+00 -8.21063926e+00 -7.96490721e+00
 -7.69666536e+00 -7.41904442e+00 -7.15080257e+00 -6.90131889e+00
 -6.68559991e+00 -6.50739728e+00 -6.37233845e+00 -6.28229923e+00
 -6.23352798e+00 -6.22602471e+00 -6.25041034e+00 -6.30480903e+00
 -6.37984172e+00 -6.47175676e+00 -6.57492670e+00 -6.68559991e+00
 -6.79627313e+00 -6.90882216e+00 -7.01949537e+00 -7.12454113e+00
 -7.22395944e+00 -7.31962611e+00 -7.40778952e+00 -7.49407711e+00
 -7.57473724e+00 -7.65352157e+00 -7.73418170e+00 -7.81671766e+00
 -7.90488106e+00 -8.00242356e+00 -8.10934513e+00 -8.22752161e+00
 -8.36070463e+00 -8.50701837e+00 -8.66646283e+00 -8.83903801e+00
 -9.02286809e+00 -9.21420144e+00 -9.41116224e+00 -9.61187467e+00
 -9.81071129e+00 -1.00057963e+01 -1.01933780e+01 -1.03734564e+01]",0.9714254365340619,1.9965728820617303,5.10384,-0.13815499999999936
005,1,1,csp,60a.png,1,1,252,253,253,1,1,319,pos_feedback_onset,4,"[-3.16368417e+00 -2.97070305e+00 -2.75761974e+00 -2.51840356e+00
 -2.25305453e+00 -1.95353176e+00 -1.62184546e+00 -1.25397521e+00
 -8.51931218e-01 -4.19733927e-01  3.65860032e-02  5.08987693e-01
  9.85409824e-01  1.45379107e+00  1.90408034e+00  2.32019588e+00
  2.69610701e+00  3.02578308e+00  3.30319344e+00  3.53034829e+00
  3.71528853e+00  3.86404480e+00  3.98867844e+00  4.09723032e+00
  4.19975154e+00  4.30428297e+00  4.41484507e+00  4.53344805e+00
  4.65607147e+00  4.77467444e+00  4.88322632e+00  4.96966578e+00
  5.02796216e+00  5.05208480e+00  5.03399282e+00  4.97569644e+00
  4.87719566e+00  4.74452115e+00  4.58772399e+00  4.41484507e+00
  4.23794572e+00  4.06908724e+00  3.91832074e+00  3.79167689e+00
  3.69719655e+00  3.63890017e+00  3.61678775e+00  3.62482863e+00
  3.65498193e+00  3.70121699e+00  3.74544183e+00  3.77760535e+00
  3.77961557e+00  3.73740095e+00  3.63688995e+00  3.47205191e+00
  3.23283574e+00  2.92125164e+00  2.54132007e+00  2.09706146e+00
  1.60656779e+00  1.07989016e+00  5.35120553e-01 -1.16592758e-02
 -5.42357345e-01 -1.04692255e+00 -1.51128336e+00 -1.93141934e+00
 -2.30129981e+00 -2.62092478e+00 -2.89230448e+00 -3.11945933e+00
 -3.31043023e+00 -3.46722738e+00 -3.60191212e+00 -3.71247422e+00
 -3.80896478e+00 -3.89339402e+00 -3.96777215e+00 -4.03008897e+00
 -4.08637513e+00 -4.13462041e+00 -4.17683503e+00 -4.21100877e+00
 -4.24116207e+00 -4.26729493e+00 -4.29342779e+00 -4.31956065e+00
 -4.34770373e+00 -4.38388768e+00 -4.43012274e+00 -4.48841912e+00
 -4.56480748e+00 -4.65928782e+00 -4.77588058e+00 -4.91659597e+00
 -5.08143401e+00 -5.26838447e+00 -5.47342690e+00 -5.69656132e+00
 -5.92974683e+00 -6.16896301e+00 -6.40616896e+00 -6.64136470e+00
 -6.86650933e+00 -7.08160287e+00 -7.28262486e+00 -7.46756510e+00
 -7.64044402e+00 -7.79925139e+00 -7.94599745e+00 -8.08068219e+00
 -8.20732605e+00 -8.32190858e+00 -8.42845024e+00 -8.52695102e+00
 -8.61138026e+00 -8.68575840e+00 -8.74606499e+00 -8.79230005e+00
 -8.82446357e+00 -8.84054533e+00 -8.84054533e+00 -8.82245335e+00
 -8.79028983e+00 -8.74204455e+00 -8.67570730e+00 -8.59127806e+00
 -8.48875684e+00 -8.36613342e+00 -8.22340781e+00 -8.05655955e+00
 -7.86759887e+00 -7.65652578e+00 -7.42736070e+00 -7.18211387e+00
 -6.92681593e+00 -6.66548734e+00 -6.40616896e+00 -6.15288125e+00
 -5.91165485e+00 -5.68248978e+00 -5.46940646e+00 -5.27039469e+00
 -5.08545445e+00 -4.91257553e+00 -4.74773750e+00 -4.58893012e+00
 -4.43615340e+00 -4.28337669e+00 -4.13059997e+00 -3.97983347e+00
 -3.82705676e+00 -3.67830048e+00 -3.53356464e+00 -3.39485947e+00
 -3.26620539e+00 -3.15363307e+00 -3.05915273e+00 -2.98879503e+00
 -2.94658041e+00 -2.93451910e+00 -2.95864173e+00 -3.02296877e+00
 -3.12951043e+00 -3.27826671e+00 -3.47325804e+00 -3.71046400e+00
 -3.98988457e+00 -4.30347889e+00 -4.64923672e+00 -5.01710697e+00
 -5.39904876e+00 -5.78300078e+00 -6.16293235e+00 -6.52678216e+00
 -6.87052977e+00 -7.18412409e+00 -7.46555488e+00 -7.71281194e+00
 -7.92388503e+00 -8.10078439e+00 -8.24149978e+00 -8.35005166e+00
 -8.42845024e+00 -8.47870574e+00 -8.50282838e+00 -8.50081816e+00
 -8.47870574e+00 -8.43649112e+00 -8.37417430e+00 -8.29376550e+00
 -8.19727495e+00 -8.08470263e+00 -7.95604855e+00 -7.81131271e+00
 -7.64848490e+00 -7.46555488e+00 -7.26252267e+00 -7.03335759e+00
 -6.77604944e+00 -6.49059820e+00 -6.17097323e+00 -5.81717452e+00
 -5.42719184e+00 -5.00102521e+00 -4.54269506e+00 -4.05220139e+00
 -3.53155442e+00 -2.98879503e+00 -2.42593345e+00 -1.85503098e+00
 -1.28010807e+00 -7.13226041e-01 -1.64435993e-01  3.54200757e-01
  8.34643327e-01  1.26282018e+00  1.63471087e+00  1.93825408e+00
  2.17344982e+00  2.33426742e+00  2.42070687e+00  2.43477841e+00
  2.37447181e+00  2.24983818e+00  2.06087750e+00  1.81362045e+00
  1.51610789e+00  1.17638072e+00  8.04490027e-01  4.08476696e-01
 -1.60817597e-03 -4.09682827e-01 -8.09716599e-01 -1.19165839e+00
 -1.54545710e+00 -1.86709230e+00 -2.15254353e+00 -2.39980059e+00
 -2.61288390e+00 -2.79179348e+00 -2.94054975e+00 -3.06116295e+00
 -3.15363307e+00 -3.22399077e+00 -3.27022583e+00 -3.29434847e+00
 -3.29434847e+00 -3.27223605e+00 -3.23404187e+00 -3.17775571e+00
 -3.11342867e+00 -3.04508119e+00 -2.98075415e+00 -2.92647822e+00
 -2.89230448e+00 -2.88225338e+00 -2.90436580e+00 -2.95864173e+00]","[-2.130685   -1.97117783 -1.796109   -1.60547849 -1.39734109 -1.17364203
 -0.93632649 -0.68928491 -0.43251729 -0.16796882  0.09657964  0.36307331
  0.62567657  0.8843894   1.13726661  1.38236298  1.61967852  1.847268
  2.06707665  2.27715926  2.4755706   2.66231069  2.8315439   2.98132502
  3.11165404  3.21280492  3.28477767  3.32562706  3.32951748  3.29839413
  3.23031181  3.12721571  2.99105106  2.82765348  2.64091339  2.43472121
  2.21491256  1.98537786  1.75195275  1.51658242  1.28315731  1.05362261
  0.82992354  0.61400531  0.40586792  0.20551136  0.01488085 -0.16602361
 -0.33720203 -0.49670919 -0.6445451  -0.78265496 -0.91103877 -1.03164175
 -1.14251868 -1.24755998 -1.34482044 -1.4401357  -1.52961533 -1.61714974
 -1.70468416 -1.79416379 -1.88753383 -1.98673951 -2.0898356  -2.20265774
 -2.32520592 -2.45748016 -2.60142564 -2.75704239 -2.9282208  -3.11301569
 -3.31726266 -3.54096173 -3.78411289 -4.04866136 -4.33460712 -4.63805977
 -4.9590193  -5.29165009 -5.63206172 -5.97247334 -6.30899455 -6.62995408
 -6.93535194 -7.21351687 -7.46250366 -7.67647668 -7.85543594 -7.9935458
 -8.09275147 -8.15305296 -8.17445026 -8.15888859 -8.10636793 -8.0149431
 -7.88850449 -7.72510691 -7.52475036 -7.28548961 -7.0112151  -6.69803641
 -6.35178915 -5.97441855 -5.5659246  -5.13019772 -4.66918312 -4.18482601
 -3.67712638 -3.15191987 -2.61115169 -2.06065746 -1.5043276  -0.95577858
 -0.42473645  0.07518234  0.53230652  0.93496485  1.27343126  1.53992493
  1.73250065  1.85310363  1.90367907  1.89200782  1.82976112  1.72666503
  1.59050038  1.43293842  1.26176001  1.08474596  0.90967712  0.74627954
  0.59649843  0.46811462  0.36696373  0.2969362   0.25803201  0.25219638
  0.27748411  0.32805955]",3.9650583566853967,1.779380197963949,4.97458,0.3495549999999996
005,1,1,csp,51a.png,1,1,192,281,191,1,0,304,neg_feedback_onset,5,"[-1.38151025 -1.28224462 -1.17152527 -1.05507906 -0.92717912 -0.79164336
 -0.64083597 -0.47475694 -0.28958837 -0.08723921  0.12656367  0.34991133
  0.56753212  0.76797233  0.93977822  1.0657692   1.13640051  1.14212738
  1.07340502  0.9321424   0.71833952  0.43963218  0.10556517 -0.27049883
 -0.6771061  -1.09707605 -1.51704601 -1.92747119 -2.31307996 -2.67005442
 -2.99075875 -3.27137504 -3.51190328 -3.71425244 -3.88033147 -4.01395827
 -4.11895076 -4.20294475 -4.26975815 -4.32129992 -4.36520587 -4.40529391
 -4.443473   -4.48356104 -4.52746699 -4.57900876 -4.63627739 -4.70309079
 -4.77754001 -4.86344295 -4.95507276 -5.05624734 -5.16505774 -5.279595
 -5.39795016 -5.52012324 -5.64611423 -5.77210521 -5.90000515 -6.02790509
 -6.15580503 -6.28370497 -6.40969596 -6.53377799 -6.65022421 -6.76094356
 -6.86020918 -6.94420317 -7.00719867 -7.04728671 -7.06064939 -7.04155984
 -6.99192703 -6.909842   -6.79339578 -6.6464063  -6.46887355 -6.26652439
 -6.03935882 -5.79119476 -5.52585011 -5.24714277 -4.95507276 -4.65345798
 -4.34229842 -4.02732095 -3.70852558 -3.39163916 -3.08238856 -2.78268273
 -2.50206644 -2.2405397  -2.00764727 -1.80529811 -1.63731013 -1.50177437
 -1.39678188 -1.32233267 -1.27269985 -1.24406554 -1.23261181 -1.23833868
 -1.25742822 -1.2917894  -1.34333116 -1.41396247 -1.50368333 -1.61440268
 -1.74421157 -1.8892921  -2.04200845 -2.1985427  -2.35125905 -2.49443063
 -2.61851266 -2.72350515 -2.80559018 -2.86285881 -2.89531104 -2.90294685
 -2.88194836 -2.8342245  -2.75404841 -2.63951115 -2.48679481 -2.29589938
 -2.0649159  -1.79384439 -1.48650274 -1.15052678 -0.79355232 -0.42703308
 -0.0586049   0.30027852  0.63816343  0.95123194  1.22993928  1.47428543
  1.67663459  1.83316885  1.94197924  1.99352101  1.98397624  1.90570911
  1.75108381  1.51628243  1.20130496  0.80996932  0.35372924 -0.15596157
 -0.6981046  -1.25170136 -1.79575334 -2.30926206 -2.77504691 -3.17974523
 -3.51763015 -3.79061062 -4.0044135  -4.16667462 -4.2888477  -4.38047751
 -4.44729091 -4.49119686 -4.50837745 -4.4892879  -4.41865659 -4.28312083
 -4.0712269  -3.76579421 -3.36682276 -2.87240358 -2.29208147 -1.64112804
 -0.94245075 -0.22086602  0.4930829   1.17267065  1.7892629   2.3199522
  2.74755797  3.05489962  3.23243237  3.28206518  3.19998015  2.99572203
  2.68074457  2.26841043  1.77780917  1.22421241  0.63052762  0.01775328
 -0.59693002 -1.19443273 -1.76139216 -2.28253669 -2.75404841 -3.17401837
 -3.53862865 -3.85933297 -4.14185821 -4.39765809 -4.63818634 -4.87298772
 -5.11160702 -5.35786212 -5.613662   -5.87900666 -6.15007817 -6.42114969
 -6.68458538 -6.93084049 -7.1560971  -7.3527194  -7.51688947 -7.64860732
 -7.74787295 -7.8165953  -7.85477439 -7.86622812 -7.85286544 -7.81468635
 -7.7497819  -7.65624314 -7.53025215 -7.36608208 -7.16182397 -6.9136599
 -6.61968094 -6.27797811 -5.89427829 -5.47049043 -5.01806825 -4.54273862
 -4.05977318 -3.58062564 -3.11674974 -2.67578129 -2.26726506 -1.89120106
 -1.54568032 -1.2287939  -0.93099703 -0.64656283 -0.36976445 -0.09487503
  0.17810544  0.45108591  0.71261265  0.95886776  1.17839751  1.36356608
  1.50673765  1.60027642  1.64418237  1.64227341  1.59454955  1.50864661
  1.39410935  1.25857359]","[ -0.5079614   -0.58316189  -0.68880068  -0.81234434  -0.94125946
  -1.05764118  -1.14895606  -1.19371825  -1.17760386  -1.08986996
  -0.9215641   -0.66910531  -0.33607457   0.07036617   0.53410253
   1.04081059   1.57437597   2.11331281   2.64329722   3.15179577
   3.62627505   4.05778262   4.44273751   4.77218728   5.04434143
   5.25203802   5.39169608   5.45615364   5.44182974   5.34514339
   5.16430412   4.90468338   4.56807166   4.16342141   3.69968505
   3.18760553   2.63434478   2.05243623   1.44725133   0.82774254
   0.1992813   -0.43634189  -1.07554605  -1.71654071  -2.35932585
  -3.00211099  -3.64489612  -4.28947175  -4.93225689  -5.57504203
  -6.21782717  -6.86061231  -7.50339745  -8.14797308  -8.79075822
  -9.43354336 -10.0763285  -10.71911364 -11.36189878 -12.0064744
 -12.64925954 -13.29204468 -13.93482982 -14.57761496 -15.2204001
 -15.86497573 -16.50776087 -17.15054601 -17.79333115 -18.43611629
 -19.07890143 -19.72347706 -20.3662622  -21.00904734 -21.65183247
 -22.29461761 -22.93740275 -23.58197838 -24.22476352 -24.86754866
 -25.5103338  -26.15311894 -26.79590408 -27.43689873 -28.07789338
 -28.71530706 -29.34913976 -29.977601   -30.59352882 -31.19513274
 -31.77166983 -32.31418765 -32.81015278 -33.24345084 -33.59617695
 -33.84863574 -33.98113184 -33.97396989 -33.80745452 -33.4708428
 -32.95339181 -32.25868252 -31.39029591 -30.36792735 -29.21843415
 -27.97941655 -26.6902653  -25.39753307 -24.14419157 -22.97321251
 -21.91503419 -20.99830441 -20.23197561 -19.62320974 -19.16484485
 -18.84434752 -18.64739386 -18.552498   -18.54533605 -18.60621263
 -18.71901337 -18.87299533 -19.05741557 -19.26511217 -19.48713266
 -19.72168657 -19.96161194 -20.20511829 -20.45041512 -20.69213098
 -20.92847538 -21.15765783 -21.37609735 -21.58200345 -21.77358565
 -21.94726297 -22.10303541 -22.237322   -22.35012274 -22.44143762]",-1.0203838143580337,1.8796093871697224,5.238470000000001,0.28433499999999867
005,1,1,csp,33a.png,1,1,108,127,108,1,1,267,pos_feedback_onset,6,"[ 0.81927324  0.80923927  0.81325286  0.83532758  0.86944306  0.90957892
  0.94770799  0.96576913  0.94971478  0.88349062  0.75304907  0.54835619
  0.26740517 -0.08779719 -0.50721693 -0.9727929  -1.46847077 -1.96816223
 -2.45581293 -2.91135494 -3.3227475  -3.67794986 -3.97896881 -4.22179076
 -4.4124361  -4.55692519 -4.65927163 -4.72950939 -4.76563166 -4.76964525
 -4.74355694 -4.67933956 -4.57498633 -4.42046327 -4.21577038 -3.95689409
 -3.64383438 -3.28060485 -2.87924625 -2.45380613 -2.02234564 -1.6049327
 -1.22564882 -0.90255515 -0.65571961 -0.50119655 -0.44901993 -0.50119655
 -0.65371282 -0.90054836 -1.22765561 -1.61496666 -2.04241357 -2.49394199
 -2.949484   -3.39499205 -3.82043216 -4.21777718 -4.58702709 -4.9261751
 -5.2412416  -5.53222659 -5.80113685 -6.05198597 -6.28076037 -6.48946685
 -6.67208501 -6.82460128 -6.94099527 -7.01524661 -7.04133492 -7.0172534
 -6.93898848 -6.80453335 -6.61990839 -6.38310682 -6.1021558  -5.78307571
 -5.43188694 -5.05862344 -4.66729881 -4.27196059 -3.87862916 -3.50135208
 -3.14614972 -2.82706963 -2.5481254  -2.319351   -2.14476001 -2.02635923
 -1.96615544 -1.96414864 -2.01632526 -2.1206785  -2.27319476 -2.46986048
 -2.70264847 -2.96955193 -3.26254371 -3.57359662 -3.8966903  -4.21978397
 -4.53284368 -4.82382866 -5.07869137 -5.28137746 -5.42185297 -5.48205676
 -5.45797525 -5.34158125 -5.1268544  -4.81981507 -4.42447685 -3.95087371
 -3.41104639 -2.82104925 -2.19492984 -1.54874249 -0.89252118 -0.24031346
  0.4018603   1.02195933  1.61998364  2.19392644  2.73977414  3.26154031
  3.75721818  4.23282812  4.68636334  5.12384421  5.54527074  5.95264972
  6.34397435  6.71924464  7.074447    7.40958143  7.71662076  7.99355819
  8.23437335  8.43705945  8.59760289  8.72001726  8.80229577  8.8504588
  8.86851994  8.86651315  8.84443842  8.80831615  8.76215991  8.70396291
  8.63372516  8.54943985  8.44709341  8.32467904  8.18219674  8.01763971
  7.83502155  7.64236942  7.43968333  7.23699724  7.03631794  6.83764543
  6.64097972  6.44030042  6.22758036  5.99679917  5.73992966  5.45496506
  5.13588497  4.78670299  4.41544629  4.02813524  3.6388174   3.25752673
  2.89831078  2.56718994  2.27419816  2.01933545  1.8046086   1.62199044
  1.47148096  1.34304621  1.2326726   1.13433974  1.04202726  0.94971478
  0.85740231  0.75906945  0.65270942  0.53430863  0.40386709  0.25937799
  0.10084135 -0.07374964 -0.26238818 -0.46507428 -0.67779433 -0.89653477
 -1.117282   -1.33602244 -1.54071532 -1.72935386 -1.88789051 -2.01030488
 -2.08455622 -2.10261736 -2.05646112 -1.93806033 -1.74540821 -1.47850474
 -1.13734993 -0.72997095 -0.26640177  0.23529648  0.76107624  1.28484921
  1.78855426  2.24810985  2.64144128  2.9504874   3.16722104  3.28160824
  3.29766259  3.22140445  3.06286781  2.84212058  2.57321032  2.27620495
  1.96715883  1.65209233  1.34103942  1.03600688  0.73097435  0.42393502
  0.10485493 -0.2302795  -0.58748865 -0.96877932 -1.37013792 -1.78755086
 -2.21299097 -2.6364243  -3.04380327 -3.42308715 -3.76223517 -4.04719977
 -4.26995379 -4.42046327 -4.4967214  -4.49872819 -4.43049723 -4.30005569
 -4.11944432 -3.90271068 -3.6659091  -3.42509394 -3.19832633 -3.00366741
 -2.85115115 -2.75482508]","[ -3.96010179  -3.48644984  -2.98493601  -2.47227743  -1.96333377
  -1.47296469  -1.00674257  -0.57395472  -0.17460111   0.1931757
   0.53309063   0.85071605   1.15348181   1.44510281   1.7237216
   1.9930531    2.24381002   2.47227743   2.66731059   2.81962219
   2.92363988   2.97007634   2.95335921   2.87348849   2.72674926
   2.51685644   2.2493824    1.92989951   1.56583762   1.16462656
   0.73741107   0.29719338  -0.14859669  -0.58509947  -1.00302766
  -1.39309397  -1.74786857  -2.06549399  -2.34225533  -2.58001003
  -2.78247302  -2.95150176  -3.09452607  -3.21526088  -3.31556365
  -3.4028642   -3.47344763  -3.5328863   -3.58118023  -3.62018686
  -3.6499062   -3.67405316  -3.69634266  -3.72048963  -3.75206642
  -3.79478797  -3.85608411  -3.93595483  -4.03997251  -4.16999461
  -4.32602114  -4.50619462  -4.71051507  -4.93712503  -5.18416702
  -5.44606869  -5.72283002  -6.01073611  -6.30607203  -6.61069525
  -6.92089084  -7.23851626  -7.5598566   -7.88862678  -8.22111187
  -8.55916934  -8.90279919  -9.24642904  -9.58820142  -9.92625889
 -10.25317161 -10.56522466 -10.85684566 -11.12803462 -11.37321916
 -11.59425674 -11.79300481 -11.97132084 -12.1347772  -12.28708881
 -12.43197058 -12.57499489 -12.71987666 -12.86847335 -13.02078496
 -13.1805264  -13.34398276 -13.50929658 -13.67832532 -13.84735405
 -14.01266787 -14.17798169 -14.33772313 -14.49189219 -14.64234634
 -14.78722811 -14.92653751 -15.06027453 -15.18843918 -15.30917399
 -15.42247896 -15.53021156 -15.62679941 -15.71409997 -15.78839831
 -15.84969445 -15.89427346 -15.92399279 -15.93513754 -15.92956517
 -15.90356075 -15.8608392  -15.79954307 -15.72338726 -15.63051433
 -15.52463919 -15.40947675 -15.28502703 -15.15500492 -15.0212679
 -14.88567342 -14.7519364  -14.6219143  -14.49374965 -14.37301484
 -14.25599495 -14.14826235 -14.04424466 -13.94951427 -13.86035626]",7.25791805260809,0.35551758084588336,4.9830749999999995,0.21272000000000002
005,1,1,csp,50a.png,1,1,56,36,56,1,1,448,pos_feedback_onset,7,"[-1.0927735  -0.77413842 -0.46998675 -0.19273284  0.04520894  0.23763142
  0.37832743  0.46522791  0.50040191  0.49005662  0.43626109  0.35556779
  0.25211484  0.14245471  0.03279458 -0.06445119 -0.14100637 -0.19066379
 -0.21135437 -0.19894002 -0.15135166 -0.07479648  0.02658741  0.15073095
  0.28728884  0.43005391  0.57074992  0.69696252  0.80662264  0.889385
  0.9452496   0.97214736  0.97421642  0.95559489  0.92455901  0.89352312
  0.86869441  0.8645563   0.88524689  0.93697336  1.01973572  1.1314649
  1.26388468  1.40458069  1.54113858  1.65700589  1.73769919  1.76873507
  1.74390636  1.65700589  1.50596458  1.29698962  1.03421913  0.7279984
  0.39074179  0.0369327  -0.32515262 -0.6789617  -1.01828738 -1.33278434
 -1.61417636 -1.85625627 -2.05488593 -2.20385817 -2.30731112 -2.3590376
 -2.36731383 -2.33420889 -2.26592994 -2.16868417 -2.05074781 -1.92039709
 -1.7838392  -1.64728131 -1.51693059 -1.40106329 -1.2996794  -1.21691704
 -1.15691433 -1.11760221 -1.09898068 -1.09898068 -1.11760221 -1.15277621
 -1.20243363 -1.26657446 -1.34726776 -1.44244447 -1.55624271 -1.68452437
 -1.8293585  -1.98867604 -2.16247699 -2.34662324 -2.53904573 -2.73560633
 -2.93423599 -3.1307966  -3.32321908 -3.50943439 -3.68737346 -3.8570363
 -4.01635384 -4.16532609 -4.3060221  -4.43637282 -4.5584473  -4.66603836
 -4.76328413 -4.84811555 -4.9163945  -4.96605191 -4.9970878  -5.00743309
 -4.9970878  -4.9619138  -4.90811826 -4.83363214 -4.74052449 -4.63500248
 -4.51706612 -4.39085352 -4.25843374 -4.12394491 -3.98531796 -3.84669101
 -3.70392594 -3.56116087 -3.41632674 -3.26735449 -3.11424413 -2.95699564
 -2.79560904 -2.63008432 -2.46249055 -2.29489677 -2.12316487 -1.94729486
 -1.76521767 -1.57279518 -1.35968211 -1.12174033 -0.84448642 -0.5175751
 -0.13066107  0.3245319   0.854211    1.46251434  2.14737286  2.89844127
  3.70330522  4.54541222  5.39993358  6.24410965  7.05104265  7.79176577
  8.43938123  8.97112939  9.37045777  9.62288296  9.72012874  9.6663332
  9.46770354  9.14079222  8.70835889  8.19523227  7.62831011  7.04276641
  6.46136084  5.91512927  5.42062417  4.99439802  4.64679611  4.37574939
  4.18125784  4.05504525  3.98883536  3.97228289  3.99504253  4.05090713
  4.13573855  4.24746773  4.38816374  4.55989564  4.77093965  5.02129579
  5.31924028  5.66684219  6.06410152  6.50481108  6.98690182  7.50209751
  8.04419096  8.59869877  9.15941375  9.71599062 10.26015313 10.78155599
 11.27192297 11.72504689 12.12644433 12.47197718 12.75130014 12.95613698
 13.08028052 13.11752358 13.06579711 12.92717016 12.70371179 12.40162918
 12.03126762 11.60504147 11.13536508 10.63465281 10.11738806  9.59805426
  9.08492763  8.58835347  8.12074614  7.68624376  7.29312255  6.94345158
  6.64136897  6.38894378  6.18410694  6.02272034  5.90478397  5.82615973
  5.78477855  5.78064044  5.80960726  5.87995527  5.98961539  6.14479482
  6.35170071  6.60826403  6.91448476  7.26829384  7.66141505  8.07936496
  8.51179829  8.9400935   9.34769812  9.7221978  10.05117817 10.32843208
 10.55189045 10.72362234 10.851904   10.94501165 11.0132906  11.06294802
 11.10019108 11.12501979 11.13536508 11.12295073 11.07950049 10.99466907
 10.86018024 10.66982681]","[-1.71162578 -1.63230324 -1.56652356 -1.51235207 -1.45818057 -1.39820499
 -1.31888244 -1.21053945 -1.06350254 -0.86616352 -0.614653   -0.3031669
  0.07022947  0.50360144  0.9892102   1.51544758  2.06877071  2.62983263
  3.18122106  3.69778497  4.16404677  4.5625942   4.88181908  5.11591733
  5.26488894  5.334538    5.33260331  5.27456242  5.17202352  5.03852948
  4.88762317  4.72704338  4.5625942   4.39621032  4.22789174  4.05763847
  3.88351581  3.70358906  3.51592352  3.3205192   3.11544139  2.90649419
  2.68980821  2.47118754  2.24869747  2.0242727   1.79984793  1.57542317
  1.34519431  1.10916137  0.86345494  0.60420564  0.32947877  0.03540494
 -0.27608116 -0.60304482 -0.94161667 -1.28599261 -1.62456445 -1.94959342
 -2.25334074 -2.5300023  -2.77570873 -2.98659062 -3.16458268 -3.31742368
 -3.44898303 -3.5689342  -3.68501597 -3.80690184 -3.94039588 -4.09323688
 -4.26349015 -4.45695978 -4.66784167 -4.89420113 -5.12829938 -5.36626702
 -5.59649588 -5.81705125 -6.02019436 -6.2039905  -6.36457029 -6.50193373
 -6.6180155  -6.71281562 -6.78439938 -6.83857088 -6.86952602 -6.8811342
 -6.86759132 -6.8288974  -6.76311772 -6.66638291 -6.53675826 -6.37617847
 -6.18270885 -5.95828408 -5.70290417 -5.42237321 -5.1186259  -4.79553163
 -4.45889448 -4.11258384 -3.76240382 -3.41415849 -3.07171726 -2.74088419
 -2.4274634  -2.13725896 -1.87414027 -1.64584611 -1.45431118 -1.30533957
 -1.19699658 -1.1350863  -1.11573933 -1.14475978 -1.21827824 -1.3382294
 -1.50461328 -1.71356048 -1.97087508 -2.270753   -2.61125955 -2.98852532
 -3.39868092 -3.83011819 -4.27316363 -4.72007847 -5.15731983 -5.57521422
 -5.96408817 -6.31620289 -6.62962368 -6.90241586 -7.13457941 -7.32998373
 -7.49443291 -7.62986165]",9.556931709673774,2.818417147599906,4.833115,-0.3767150000000008
005,1,1,csm,12b.png,1,1,144,125,145,1,1,407,neu_feedback_onset,8,"[-1.12003694 -0.95667099 -0.79766147 -0.64954301 -0.51231561 -0.38815749
 -0.27924686 -0.18122729 -0.09192057 -0.00914849  0.06926716  0.14768282
  0.22609847  0.31322698  0.40471191  0.5070879   0.62253317  0.74886951
  0.89263154  1.05381928  1.23678914  1.43936292  1.66807524  1.92292612
  2.20391556  2.50886533  2.83559722  3.18411125  3.54569454  3.91599069
  4.28846506  4.65658299  5.01380987  5.34925462  5.65856081  5.9330156
  6.17044078  6.36430171  6.51459838  6.6213308   6.68449897  6.71063752
  6.70192467  6.66489505  6.60608331  6.52984587  6.44053915  6.34469779
  6.24014359  6.13123296  6.0179659   5.8981642   5.77182787  5.64113511
  5.5017295   5.35578925  5.20984901  5.06173055  4.9157903   4.77638469
  4.64787014  4.53024666  4.43004888  4.3472768   4.28193042  4.23400974
  4.20351476  4.19044549  4.18826728  4.19915834  4.21658404  4.24272259
  4.27321757  4.30806897  4.34509859  4.38648463  4.43004888  4.48014777
  4.53895951  4.6064841   4.68925618  4.78727575  4.90272102  5.03777021
  5.19024509  5.36014568  5.5365809   5.71301613  5.88291671  6.02885696
  6.14648044  6.2248961   6.25321286  6.23143074  6.15737151  6.03103517
  5.85895637  5.64984796  5.40806636  5.14450263  4.86786962  4.58470198
  4.30806897  4.04668345  3.80490185  3.59361522  3.41718     3.28213081
  3.19064588  3.14490342  3.14272521  3.18411125  3.2625269   3.37361575
  3.51084314  3.66985267  3.84410968  4.02925775  4.22529689  4.42569245
  4.63044444  4.83955286  5.04866127  5.25776968  5.46252167  5.66291724
  5.85242174  6.02667875  6.18351006  6.31420282  6.4144006   6.4841034
  6.51895481  6.51677659  6.47974698  6.40568775  6.29677712  6.15301508
  5.97657986  5.76964966  5.53004627  5.26430432  4.97242383  4.65440478
  4.31896003  3.96608959  3.60232807  3.23638835  2.87262684  2.51975639
  2.18648985  1.87936187  1.60490708  1.37183832  1.18233382  1.03857179
  0.94055222  0.8860969   0.87302763  0.89698797  0.94926507  1.0233243
  1.11045281  1.19975953  1.28906624  1.36966011  1.4371847   1.49381823
  1.53738249  1.56787746  1.5918378   1.61361993  1.63540205  1.65936239
  1.68767916  1.72035235  1.75956018  1.798768    1.83797583  1.87500545
  1.90332221  1.92510434  1.9359954   1.93381719  1.92074791  1.89678757
  1.86193617  1.81837192  1.76827303  1.71381771  1.66154061  1.6092635
  1.56134282  1.522135    1.48946181  1.46767968  1.4546104   1.45025398
  1.45243219  1.46114504  1.47639253  1.49381823  1.51342215  1.53520427
  1.55916461  1.58530316  1.61797635  1.65718418  1.70946128  1.77480766
  1.85757974  1.95777753  2.07540101  2.20827198  2.35421223  2.50886533
  2.66569664  2.82034973  2.96846819  3.1078738   3.23421014  3.34965541
  3.4520314   3.54569454  3.63500126  3.71995156  3.80708006  3.89856499
  4.00094099  4.11202983  4.23183153  4.36252429  4.49757347  4.63044444
  4.7611372   4.87658247  4.97678025  5.0530177   5.10311659  5.12707693
  5.12707693  5.10311659  5.06390876  5.01380987  4.95499813  4.89182996
  4.82866179  4.76331541  4.69579082  4.62608802  4.54985057  4.46490028
  4.36905893  4.26450472  4.14470302  4.01618848  3.87460465  3.72648619
  3.57401131  3.41718   ]","[ -1.201514    -1.13356056  -1.05201642  -0.9568816   -0.85009761
  -0.73360599  -0.6054652   -0.46955831  -0.32588531  -0.17638773
  -0.01912404   0.14008118   0.30511097   0.47402382   0.64681973
   0.82349869   1.0040607    1.18850577   1.37489237   1.56710354
   1.75931472   1.95152589   2.14373707   2.33206519   2.51456873
   2.69124769   2.85821902   3.01548271   3.16109723   3.29312107
   3.41543728   3.52804584   3.63482983   3.73578924   3.8406317
   3.94935721   4.06779036   4.1998142    4.34737025   4.51240005
   4.69684512   4.89876393   5.11621495   5.34531514   5.58800602
   5.83652148   6.08892      6.34131851   6.58789244   6.82670027
   7.04803435   7.24801163   7.41498296   7.54506527   7.62466788
   7.64990773   7.61496024   7.51788389   7.35673715   7.13928612
   6.86941386   6.55682801   6.21317773   5.84428759   5.46180677
   5.07155983   4.67354679   4.26970917   3.86198849   3.44456018
   3.01548271   2.57281454   2.11461417   1.6428231    1.15549981
   0.65652737   0.14784728  -0.36471585  -0.88116204  -1.39566671
  -1.90240526  -2.39943618  -2.87899336  -3.33525221  -3.76238816
  -4.15457662  -4.50405148  -4.80498817  -5.05350363  -5.24571481
  -5.3816217   -5.46316583  -5.49034721  -5.47287347  -5.41851071
  -5.33502505  -5.23600717  -5.13310624  -5.03602989  -4.95642728
  -4.90400605  -4.88459078  -4.90400605  -4.96419339  -5.06515279
  -5.20494274  -5.37773865  -5.57965746  -5.80293306  -6.04562394
  -6.30190551  -6.56983624  -6.84553308  -7.12899603  -7.4144005
  -7.7017465   -7.9890925   -8.27255545  -8.54631076  -8.80841691
  -9.05693237  -9.28797408  -9.497659    -9.68792865  -9.85489998
 -10.0005145  -10.12477223 -10.22961469 -10.31310036 -10.37717075
 -10.42182587 -10.44318267 -10.44318267 -10.41600129 -10.36163853
 -10.2800944  -10.16942736 -10.03352046  -9.87237372  -9.69181171]",5.0911908724177355,5.383271997258592,4.59092,0.6437950000000008
005,1,1,csm,10b.png,1,1,80,75,77,1,1,310,neu_feedback_onset,9,"[-1.16898105 -1.1162008  -1.02079034 -0.88071968 -0.6959888  -0.47471775
 -0.22502657  0.03887468  0.30277594  0.5484071   0.75749809  0.90974882
  0.99500922  0.99906924  0.91177883  0.73313798  0.46111669  0.09977497
 -0.3366771  -0.83808948 -1.38619208 -1.96677483 -2.55750764 -3.1401204
 -3.70243307 -4.22617555 -4.70525783 -5.13155985 -5.5010216  -5.81161308
 -6.06739429 -6.27039525 -6.42264598 -6.52820648 -6.58910677 -6.60940686
 -6.59113677 -6.53632651 -6.44497608 -6.31708547 -6.15265469 -5.95371375
 -5.72229265 -5.4583914  -5.16404    -4.83923846 -4.49210682 -4.12264506
 -3.73288321 -3.32485128 -2.90057926 -2.45600715 -1.98910494 -1.4958126
 -0.96395007 -0.38945735  0.23781563  0.92192887  1.66897242  2.47285623
  3.3295203   4.22475455  5.14434891  6.06394327  6.96323754  7.81990161
  8.60957535  9.32007872  9.93517164 10.4528241  10.87303609 11.19986764
 11.44752882 11.62616967 11.74797024 11.82511061 11.86368079 11.8657108
 11.83323065 11.75609028 11.63022969 11.4434688  11.18768759 10.85679602
 10.44673407  9.95750175  9.39721909  8.77806615  8.11628301  7.43216977
  6.75211654  6.09642343  5.48742054  4.94540797  4.48459578  4.11107401
  3.83093268  3.63605175  3.51831119  3.46350093  3.45132088  3.46756095
  3.49192107  3.51425118  3.52237121  3.51019116  3.47568099  3.41884072
  3.34576038  3.25643995  3.15899949  3.05749901  2.95599853  2.85855806
  2.76517762  2.67991722  2.60074684  2.52360647  2.4444361   2.35917569
  2.25767521  2.13587463  1.9815939   1.79280301  1.56341192  1.29342064
  0.98485917  0.64178755  0.27232579 -0.11134603 -0.5051679  -0.89695976
 -1.27860157 -1.6440033  -1.98707493 -2.30578644 -2.59810783 -2.85997907
 -3.09140017 -3.29237112 -3.45883191 -3.58875253 -3.68010296 -3.72882319
 -3.72882319 -3.67401293 -3.56033239 -3.38169155 -3.13200036 -2.81328885
 -2.42555701 -1.97083485 -1.46130243 -0.9071098  -0.32449704  0.26623576
  0.84478851  1.38883109  1.87400339  2.27797531  2.58653677  2.78547772
  2.86464809  2.82810792  2.68194723  2.44037608  2.12369458  1.75626283
  1.36650098  0.98282916  0.62960749  0.33525609  0.11601505 -0.01796559
 -0.06059579 -0.01390557  0.11398504  0.30683596  0.55043711  0.82854843
  1.12492984  1.42740127  1.72175267  2.00595402  2.2759453   2.53578653
  2.79156775  3.04937897  3.32140026  3.61372165  3.93446317  4.28362483
  4.6571466   5.04487844  5.43261028  5.795982    6.11469351  6.3643847
  6.52475546  6.58159573  6.52475546  6.35423465  6.07815334  5.71275161
  5.28441957  4.82157738  4.35264515  3.91010305  3.52237121  3.21177974
  2.99456871  2.88088817  2.87276813  2.96817858  3.15493947  3.42493075
  3.75988234  4.14355416  4.55767613  4.98600816  5.41028017  5.8162821
  6.18371384  6.49836533  6.74602651  6.9124873   6.98556765  6.95917752
  6.83128691  6.60392584  6.28927434  5.9015425   5.46306042  4.9941282
  4.52519597  4.07656384  3.67462194  3.33358032  3.06764906  2.87885816
  2.76517762  2.7184874   2.72660744  2.77329766  2.84028798  2.9093083
  2.96614857  2.99862873  2.99659872  2.95802854  2.88088817  2.76923764
  2.63322699  2.48300628  2.33075556  2.18662488  2.06685431  1.97956389
  1.9389637   1.94911375]","[ 4.34174341e-01  6.27725334e-01  7.47990029e-01  7.89331018e-01
  7.51748301e-01  6.42758421e-01  4.75515330e-01  2.61293841e-01
  2.26435871e-02 -2.17885803e-01 -4.39623835e-01 -6.21900013e-01
 -7.47802116e-01 -8.04176192e-01 -7.81626561e-01 -6.83911496e-01
 -5.11030997e-01 -2.76139015e-01  7.61050024e-03  3.23305325e-01
  6.55912372e-01  9.84761148e-01  1.29669770e+00  1.57856808e+00
  1.82473488e+00  2.02956069e+00  2.18928723e+00  2.30579366e+00
  2.38283823e+00  2.42230008e+00  2.42605835e+00  2.39975045e+00
  2.34337637e+00  2.25693613e+00  2.14606711e+00  2.01076933e+00
  1.85480105e+00  1.68192055e+00  1.49588610e+00  1.30233511e+00
  1.10690498e+00  9.17112257e-01  7.34836078e-01  5.69472123e-01
  4.19141254e-01  2.87601743e-01  1.74853592e-01  7.33802554e-02
 -2.05765377e-02 -1.18291602e-01 -2.31039754e-01 -3.70095808e-01
 -5.42976307e-01 -7.62835203e-01 -1.03343077e+00 -1.35664213e+00
 -1.73622758e+00 -2.16279142e+00 -2.63257538e+00 -3.13618379e+00
 -3.66422097e+00 -4.20353296e+00 -4.74848236e+00 -5.28591522e+00
 -5.81207326e+00 -6.31756081e+00 -6.79674045e+00 -7.24773306e+00
 -7.66490122e+00 -8.04824493e+00 -8.39400593e+00 -8.70218421e+00
 -8.97090064e+00 -9.19639694e+00 -9.38055226e+00 -9.52148745e+00
 -9.62108165e+00 -9.67745573e+00 -9.69060968e+00 -9.66618091e+00
 -9.60416943e+00 -9.50833350e+00 -9.38431053e+00 -9.23585880e+00
 -9.06673657e+00 -8.88446039e+00 -8.69090940e+00 -8.48984186e+00
 -8.28689519e+00 -8.08582765e+00 -7.89039752e+00 -7.70624221e+00
 -7.53524084e+00 -7.38303084e+00 -7.25900787e+00 -7.16505108e+00
 -7.10867700e+00 -7.09740219e+00 -7.13310577e+00 -7.21954602e+00
 -7.36048121e+00 -7.55403220e+00 -7.79644073e+00 -8.08582765e+00
 -8.41279729e+00 -8.76983310e+00 -9.14941855e+00 -9.53839967e+00
 -9.92925993e+00 -1.03126036e+01 -1.06809143e+01 -1.10323127e+01
 -1.13611615e+01 -1.16655815e+01 -1.19493310e+01 -1.22142891e+01
 -1.24585768e+01 -1.26897105e+01 -1.29058111e+01 -1.31087578e+01
 -1.32985505e+01 -1.34733102e+01 -1.36311576e+01 -1.37702136e+01
 -1.38867201e+01 -1.39787977e+01 -1.40502049e+01 -1.40971833e+01
 -1.41253703e+01 -1.41328869e+01 -1.41272494e+01 -1.41103372e+01
 -1.40877876e+01 -1.40596006e+01 -1.40351718e+01 -1.40145013e+01
 -1.40013473e+01 -1.40032265e+01 -1.40220178e+01 -1.40614797e+01]",8.197990899466827,0.9299373590060647,4.926085,0.4117549999999994
005,1,1,csp,3a.png,1,1,328,318,329,1,1,277,pos_feedback_onset,10,"[-3.44515551 -3.18847641 -2.92092109 -2.63813903 -2.33795501 -2.01166802
 -1.65492759 -1.2633832  -0.83485963 -0.37153211  0.12224886  0.6334318
  1.14678999  1.64492145  2.10607372  2.51066958  2.84565756  3.09363566
  3.25025342  3.31333557  3.2915831   3.19369701  3.03707925  2.83913182
  2.61725667  2.39103102  2.17133112  1.97338368  1.8015392   1.65797293
  1.54703536  1.46437599  1.40564433  1.37084038  1.35343841  1.34908792
  1.35561366  1.36648989  1.38171662  1.39259285  1.39911859  1.39694334
  1.38389186  1.35778891  1.31428397  1.25555232  1.18159393  1.09458407
  0.99887322  0.89663663  0.79440005  0.69651395  0.60732884  0.5355457
  0.48333979  0.45288633  0.44636059  0.46376257  0.50291701  0.56382391
  0.63995754  0.72914265  0.82702874  0.93144058  1.03585241  1.14026425
  1.24032559  1.33821169  1.43174729  1.5209324   1.60576701  1.68407589
  1.76020952  1.82981741  1.89507481  1.95380646  2.00818763  2.05386781
  2.09302224  2.12565094  2.14957865  2.16480538  2.17568161  2.18003211
  2.17785686  2.17133112  2.15827964  2.14087767  2.11477471  2.08214601
  2.04081633  1.98643516  1.91900252  1.8385184   1.74280755  1.63186997
  1.50788092  1.36866514  1.22074837  1.06413062  0.90098713  0.73566839
  0.5725249   0.4093814   0.2505884   0.0961459  -0.04959562 -0.19098665
 -0.32585194 -0.45419148 -0.57383004 -0.68259237 -0.78265371 -0.86531308
 -0.92839523 -0.96754967 -0.97625066 -0.95232295 -0.88706555 -0.77830322
 -0.62386071 -0.42156278 -0.17575992  0.10919738  0.42460813  0.76394659
  1.1098108   1.44914926  1.77108575  2.05604305  2.29532017  2.48021613
  2.60202994  2.6607616   2.65423586  2.59115371  2.47804089  2.32794887
  2.14740341  1.95163122  1.75368378  1.56008684  1.38171662  1.22292362
  1.09023358  0.98582174  0.90968811  0.86183269  0.84443072  0.85530695
  0.89446139  0.96841977  1.07935735  1.22509886  1.41217007  1.63839571
  1.89725005  2.1843826   2.49109237  2.79997738  3.10233665  3.37859296
  3.62004533  3.81146703  3.95285806  4.03986792  4.0811976   4.0855481
  4.06814612  4.05074415  4.05074415  4.08989859  4.18125895  4.34005194
  4.57280333  4.88603883  5.27540797  5.73656024  6.25861941  6.82853401
  7.43325256  8.05972357  8.69272032  9.31919133  9.92826037 10.51122645
 11.05938858 11.56622103 12.02954855 12.44719589 12.81698781 13.14109954
 13.42170635 13.66750921 13.88285862 14.07863081 14.25917628 14.4375465
 14.62244245 14.8160394  15.02486307 15.24891346 15.48601534 15.72964296
 15.97109532 16.20167146 16.40831988 16.58451485 16.72373063 16.81944148
 16.87599789 16.89339987 16.88469888 16.85424543 16.81726624 16.78463754
 16.76723557 16.77158606 16.80203951 16.85859592 16.94125529 17.04349188
 17.1566047  17.27624326 17.39153133 17.50029366 17.600355   17.68954011
 17.77654997 17.86355983 17.96362118 18.08543498 18.23987749 18.43347443
 18.67710205 18.97076034 19.31879979 19.71469466 20.15191922 20.61959723
 21.10250197 21.58540671 22.05090947 22.48378354 22.86880218 23.19726441
 23.46264449 23.66494242 23.80850869 23.9020443  23.95642546 23.98035317
 23.98687891 23.97817793 23.96077595 23.9303225  23.88464232 23.81938493
 23.73019982 23.61491175]","[-1.84566178e+00 -1.68564674e+00 -1.51446787e+00 -1.33398580e+00
 -1.14420052e+00 -9.45112052e-01 -7.36720380e-01 -5.20886148e-01
 -3.01330637e-01 -7.80538451e-02  1.47083586e-01  3.68499738e-01
  5.86194610e-01  7.92725642e-01  9.88092835e-01  1.16857491e+00
  1.32858994e+00  1.46627730e+00  1.58349761e+00  1.67652961e+00
  1.74723393e+00  1.79747120e+00  1.82910208e+00  1.84584784e+00
  1.84770848e+00  1.83654464e+00  1.81235632e+00  1.77700417e+00
  1.72676689e+00  1.66164449e+00  1.58349761e+00  1.48674434e+00
  1.37696658e+00  1.25230370e+00  1.11461635e+00  9.67625796e-01
  8.13192681e-01  6.53177647e-01  4.91301973e-01  3.27565660e-01
  1.67550626e-01  9.39623165e-03 -1.43176243e-01 -2.90166797e-01
 -4.27854152e-01 -5.56238307e-01 -6.73458623e-01 -7.83236378e-01
 -8.87432215e-01 -9.84185491e-01 -1.08279941e+00 -1.18327396e+00
 -1.29305172e+00 -1.41213267e+00 -1.54609875e+00 -1.69122866e+00
 -1.85124370e+00 -2.02242257e+00 -2.20476528e+00 -2.39455056e+00
 -2.59363903e+00 -2.80389134e+00 -3.02716813e+00 -3.26533004e+00
 -3.52209836e+00 -3.79747306e+00 -4.09145417e+00 -4.40032040e+00
 -4.71848983e+00 -5.03479862e+00 -5.33994357e+00 -5.62462148e+00
 -5.87952915e+00 -6.09536338e+00 -6.27212417e+00 -6.40422961e+00
 -6.49167968e+00 -6.54191696e+00 -6.55680208e+00 -6.54191696e+00
 -6.50470416e+00 -6.44702433e+00 -6.37818065e+00 -6.29817313e+00
 -6.21072305e+00 -6.11955170e+00 -6.02651970e+00 -5.92976642e+00
 -5.82929187e+00 -5.72881731e+00 -5.62090020e+00 -5.50740116e+00
 -5.38459893e+00 -5.24505093e+00 -5.08689654e+00 -4.89897190e+00
 -4.67569511e+00 -4.40962360e+00 -4.09331481e+00 -3.72304747e+00
 -3.30068220e+00 -2.82994030e+00 -2.32012496e+00 -1.79170322e+00
 -1.26328148e+00 -7.64629979e-01 -3.18076396e-01  4.47483903e-02
  3.03377341e-01  4.35482776e-01  4.29900856e-01  2.79189021e-01
 -1.47920874e-02 -4.48321191e-01 -1.01023445e+00 -1.68192546e+00
 -2.44664848e+00 -3.28393644e+00 -4.17518297e+00 -5.09806038e+00
 -6.03396226e+00 -6.96614287e+00 -7.87413515e+00 -8.74863592e+00
 -9.57289941e+00 -1.03432043e+01 -1.10483869e+01 -1.16865864e+01
 -1.22559422e+01 -1.27583150e+01 -1.31955654e+01 -1.35732753e+01
 -1.38933053e+01 -1.41612375e+01 -1.43826536e+01 -1.45594144e+01
 -1.46952411e+01 -1.47919944e+01 -1.48533955e+01 -1.48775838e+01]",22.181968076081425,0.8518009599041461,4.59718,-0.27955999999999825
005,1,1,csm,47b.png,1,1,184,180,183,1,1,508,neu_feedback_onset,11,"[-6.05114860e-01 -5.75105622e-01 -5.47239900e-01 -5.21517696e-01
 -4.93651974e-01 -4.67929770e-01 -4.35777014e-01 -3.97193707e-01
 -3.47892816e-01 -2.83587304e-01 -2.04277174e-01 -1.03531873e-01
  1.86485982e-02  1.62264240e-01  3.25171535e-01  5.03083449e-01
  6.93856466e-01  8.93203551e-01  1.09469415e+00  1.29189772e+00
  1.48052722e+00  1.65629562e+00  1.81705939e+00  1.95853152e+00
  2.08071199e+00  2.18360081e+00  2.26505446e+00  2.32721645e+00
  2.37223031e+00  2.40223955e+00  2.41724417e+00  2.41938768e+00
  2.41510065e+00  2.40223955e+00  2.38509141e+00  2.36794327e+00
  2.34865162e+00  2.33150348e+00  2.31435535e+00  2.29935073e+00
  2.28434611e+00  2.26934149e+00  2.25004984e+00  2.22861467e+00
  2.20074894e+00  2.16859619e+00  2.13215640e+00  2.09142958e+00
  2.04427220e+00  1.99497131e+00  1.94567042e+00  1.89422601e+00
  1.84278160e+00  1.79348071e+00  1.74417982e+00  1.69702244e+00
  1.64986507e+00  1.60485121e+00  1.55983735e+00  1.51482349e+00
  1.46980963e+00  1.42265226e+00  1.37549488e+00  1.32833751e+00
  1.27689310e+00  1.22330517e+00  1.16757373e+00  1.10969877e+00
  1.05182381e+00  9.91805334e-01  9.33930374e-01  8.78198931e-01
  8.22467488e-01  7.71023079e-01  7.21722187e-01  6.70277778e-01
  6.16689852e-01  5.54527858e-01  4.81648279e-01  3.93764080e-01
  2.88731745e-01  1.57977206e-01  7.93101305e-03 -1.67837384e-01
 -3.62897435e-01 -5.77249139e-01 -8.02318428e-01 -1.03810530e+00
 -1.27603569e+00 -1.50967905e+00 -1.73474834e+00 -1.94910004e+00
 -2.14416010e+00 -2.31778498e+00 -2.46783117e+00 -2.59001164e+00
 -2.68218287e+00 -2.74434487e+00 -2.77006707e+00 -2.75934949e+00
 -2.70576156e+00 -2.60930329e+00 -2.46354413e+00 -2.26634057e+00
 -2.01554907e+00 -1.70688262e+00 -1.34248472e+00 -9.24498899e-01
 -4.57212185e-01  5.29448709e-02  5.90967648e-01  1.14828208e+00
  1.70559651e+00  2.25004984e+00  2.76235041e+00  3.22749361e+00
  3.63476184e+00  3.96915050e+00  4.22851606e+00  4.41071501e+00
  4.52217790e+00  4.56933527e+00  4.56504824e+00  4.52217790e+00
  4.46001590e+00  4.38927984e+00  4.32283081e+00  4.27138641e+00
  4.24137717e+00  4.23494662e+00  4.24995123e+00  4.28424751e+00
  4.33354840e+00  4.39356688e+00  4.46215942e+00  4.53289548e+00
  4.60791858e+00  4.68937223e+00  4.77725643e+00  4.87371469e+00
  4.98089055e+00  5.10307102e+00  5.23382556e+00  5.37315416e+00
  5.51462629e+00  5.65395490e+00  5.78042240e+00  5.88545474e+00
  5.96690838e+00  6.01620928e+00  6.03121390e+00  6.01192224e+00
  5.96047783e+00  5.88545474e+00  5.78685295e+00  5.67753358e+00
  5.55964015e+00  5.43960319e+00  5.31956624e+00  5.20381632e+00
  5.09235343e+00  4.98089055e+00  4.87371469e+00  4.76868236e+00
  4.66365002e+00  4.56504824e+00  4.47287701e+00  4.39142336e+00
  4.32497433e+00  4.27781696e+00  4.25423827e+00  4.25423827e+00
  4.28639102e+00  4.34426598e+00  4.43643722e+00  4.55861769e+00
  4.71080740e+00  4.89514986e+00  5.10735805e+00  5.34743196e+00
  5.60465400e+00  5.87688067e+00  6.15339437e+00  6.42347751e+00
  6.67855604e+00  6.91005588e+00  7.10725945e+00  7.26802323e+00
  7.39234722e+00  7.48023141e+00  7.53810637e+00  7.57883320e+00
  7.61098595e+00  7.64099519e+00  7.68172202e+00  7.73745346e+00
  7.81033304e+00  7.89393020e+00  7.98610144e+00  8.07398563e+00
  8.15115225e+00  8.20474017e+00  8.22617534e+00  8.21117072e+00
  8.15758280e+00  8.06326805e+00  7.93036999e+00  7.76531918e+00
  7.56811561e+00  7.34733336e+00  7.10511593e+00  6.83931982e+00
  6.55208854e+00  6.24342208e+00  5.91117694e+00  5.55749663e+00
  5.18023763e+00  4.78797401e+00  4.38284929e+00  3.97558105e+00
  3.57474337e+00  3.19105382e+00  2.83522999e+00  2.51155892e+00
  2.22861467e+00  1.99068427e+00  1.79562422e+00  1.64557803e+00
  1.53625866e+00  1.46123557e+00  1.41836523e+00  1.40121709e+00
  1.40550412e+00  1.42693929e+00  1.46123557e+00  1.50624942e+00
  1.55769383e+00  1.61342528e+00  1.66915672e+00  1.72274464e+00
  1.76990202e+00  1.81062884e+00  1.83849457e+00  1.85349918e+00
  1.85564270e+00  1.84278160e+00  1.81705939e+00  1.77847609e+00
  1.72488816e+00  1.66272617e+00  1.58984659e+00  1.51053646e+00
  1.42479578e+00  1.33262454e+00  1.23830979e+00  1.13970801e+00
  1.03896271e+00  9.36073891e-01  8.33185073e-01  7.26009221e-01]","[ -2.08376157  -1.89099371  -1.70215989  -1.51332606  -1.3205582
  -1.1238563   -0.92322036  -0.71668337  -0.50424532  -0.28590621
  -0.06166605   0.17240921   0.41828659   0.6779331    0.95724979
   1.26017072   1.59062991   1.94862736   2.34006414   2.76100621
   3.20948654   3.68747215   4.18709498   4.70638799   5.24141716
   5.78824844   6.33901376   6.88977907   7.4307093    7.95590337
   8.45355917   8.91384162   9.32888263   9.69081412   9.99373504
  10.23961242  10.4245122   10.55630248  10.63891727  10.68022467
  10.68809275  10.6723566   10.64088429  10.59760988  10.55236844
  10.50909402  10.46778662  10.43041326  10.39894096  10.36746865
  10.33009529  10.28091982  10.2061731   10.09995407   9.94849361
   9.74195661   9.47050799   9.12627967   8.70927164   8.21358286
   7.64511437   7.00976723   6.31540953   5.57384337   4.80277192
   4.01596433   3.23112375   2.46201932   1.72635422   1.03396353
   0.3887813   -0.20329141  -0.74815567  -1.25171254  -1.72379709
  -2.17817848  -2.62862583  -3.08694126  -3.56295985  -4.06061566
  -4.58384271  -5.12673995  -5.68734036  -6.25580885  -6.82821138
  -7.39274583  -7.94744519  -8.48837541  -9.01160246  -9.51712634
 -10.00691407 -10.48293267 -10.94518213 -11.39562948 -11.83427472
 -12.26111784 -12.67419183 -13.07152966 -13.45313135 -13.81309582
 -14.15142309 -14.46614613 -14.75726494 -15.0228125  -15.26278882
 -15.47719389 -15.66602771 -15.83322433 -15.97681671 -16.09877189
 -16.20105688 -16.28367168 -16.3485833  -16.39579176 -16.4311981
 -16.45283531 -16.46463742 -16.47053848 -16.46660444 -16.46070339
 -16.44890127 -16.43513214 -16.42136301 -16.40562685 -16.38792368
 -16.37022051 -16.35448436 -16.33678119 -16.31907802 -16.30137485
 -16.28367168 -16.26596851 -16.24826534 -16.23056216 -16.21285899
 -16.1931888  -16.17548563 -16.15778246 -16.14007929 -16.12237612]",6.897301955101886,8.895204112643336,4.66523,-0.4744049999999982
005,1,1,csm,1b.png,1,1,272,295,274,1,1,249,neu_feedback_onset,12,"[nan nan nan nan nan nan nan nan nan nan nan nan nan nan nan nan nan nan
 nan nan nan nan nan nan nan nan nan nan nan nan nan nan nan nan nan nan
 nan nan nan nan nan nan nan nan nan nan nan nan nan nan nan nan nan nan
 nan nan nan nan nan nan nan nan nan nan nan nan nan nan nan nan nan nan
 nan nan nan nan nan nan nan nan nan nan nan nan nan nan nan nan nan nan
 nan nan nan nan nan nan nan nan nan nan nan nan nan nan nan nan nan nan
 nan nan nan nan nan nan nan nan nan nan nan nan nan nan nan nan nan nan
 nan nan nan nan nan nan nan nan nan nan nan nan nan nan nan nan nan nan
 nan nan nan nan nan nan nan nan nan nan nan nan nan nan nan nan nan nan
 nan nan nan nan nan nan nan nan nan nan nan nan nan nan nan nan nan nan
 nan nan nan nan nan nan nan nan nan nan nan nan nan nan nan nan nan nan
 nan nan nan nan nan nan nan nan nan nan nan nan nan nan nan nan nan nan
 nan nan nan nan nan nan nan nan nan nan nan nan nan nan nan nan nan nan
 nan nan nan nan nan nan nan nan nan nan nan nan nan nan nan nan nan nan
 nan nan nan nan nan nan nan nan]","[ -0.24222732  -0.23307976  -0.22759123  -0.22393221  -0.22210269
  -0.22576172  -0.23307976  -0.24405683  -0.25869292  -0.26784048
  -0.2714995   -0.25686341  -0.21844367  -0.14709272  -0.0318335
   0.13099302   0.34504587   0.61398405   0.92866003   1.28541477
   1.66961218   2.0702752    2.4691087    2.84964709   3.19542476
   3.49180562   3.72598309   3.89063912   3.97845567   3.98577372
   3.91625228   3.77172088   3.55949754   3.29055935   2.97405387
   2.62461717   2.25505585   1.87634698   1.4976381    1.12990629
   0.77864009   0.44383949   0.127334    -0.16904686  -0.45079163
  -0.71790031  -0.9722024   -1.21552743  -1.4497049   -1.67473481
  -1.89061717  -2.09918148  -2.30042774  -2.49069693  -2.67364808
  -2.84379265  -3.00296015  -3.14932107  -3.28287541  -3.39996414
  -3.50241678  -3.59023334  -3.66707282  -3.73659425  -3.80428618
  -3.87929615  -3.97077172  -4.08968997  -4.24885747  -4.45742178
  -4.72270094  -5.05201301  -5.44535798  -5.89907683  -6.40585151
  -6.95104593  -7.51819449  -8.09083159  -8.64883259  -9.17390238
  -9.65323439 -10.07585155 -10.43626531 -10.73081666 -10.96499413
 -11.14245674 -11.26869303 -11.35468007 -11.40407688 -11.42603102
 -11.42603102 -11.41139493 -11.38395226 -11.35102105 -11.31808984
 -11.28881766 -11.26686352 -11.25771596 -11.26137499 -11.27601108
 -11.30162424 -11.33455545 -11.36748665 -11.39309981 -11.40590639
 -11.39492933 -11.35285056 -11.27418157 -11.15526332 -10.9924368
 -10.78936102 -10.55335404 -10.2917339  -10.01730718  -9.74653948
  -9.49223738  -9.27635503  -9.10986948  -9.00558733  -8.97448563
  -9.0165644   -9.13182362  -9.31111575  -9.5434637   -9.81057238
 -10.09414666 -10.37223241 -10.63019353 -10.84790539 -11.01622045
 -11.12599114 -11.17172892 -11.15892234 -11.08940091 -10.9759712
 -10.82961028 -10.66129522 -10.48383261 -10.31185853 -10.15269103]",,1.4176884488304298,4.332330000000001,
005,1,1,csm,8b.png,1,1,284,271,284,1,1,369,neu_feedback_onset,13,"[ 1.05151292  0.80826568  0.59335793  0.40678967  0.24147601  0.09741697
 -0.02538745 -0.12693727 -0.21431734 -0.2804428  -0.3300369  -0.36073801
 -0.37254613 -0.36546125 -0.34184502 -0.29933579 -0.24265683 -0.16944649
 -0.08442804  0.01476015  0.12811808  0.25328413  0.39498155  0.55321033
  0.72797048  0.92162362  1.13653137  1.3703321   1.62538745  1.90169742
  2.19690037  2.51099631  2.84398524  3.19822878  3.56900369  3.96103321
  4.37195572  4.79940959  5.23867159  5.68265683  6.12664207  6.55881919
  6.9697417   7.34760148  7.68059041  7.96162362  8.18361624  8.34656827
  8.44811808  8.49062731  8.48118081  8.42450185  8.32767528  8.19778598
  8.04191882  7.86715867  7.67586716  7.47276753  7.26494465  7.05239852
  6.83749077  6.62258303  6.41239852  6.20457565  5.99911439  5.79837638
  5.60236162  5.40634686  5.2103321   5.01431734  4.81830258  4.6199262
  4.42154982  4.22317343  4.02243542  3.82405904  3.62568266  3.42494465
  3.22420664  3.02110701  2.81564576  2.60546125  2.39763838  2.18745387
  1.98435424  1.78597786  1.60177122  1.43173432  1.28059041  1.15306273
  1.05151292  0.97594096  0.92870849  0.90745387  0.91453875  0.94051661
  0.98538745  1.04678967  1.11527675  1.18612546  1.25933579  1.32546125
  1.38686347  1.43881919  1.47896679  1.5096679   1.52856089  1.53564576
  1.53328413  1.51675277  1.49077491  1.45535055  1.40575646  1.34671587
  1.27822878  1.20501845  1.12708487  1.04678967  0.97121771  0.90509225
  0.84841328  0.80826568  0.78937269  0.79409594  0.82715867  0.88856089
  0.98066421  1.09874539  1.23808118  1.39158672  1.55217712  1.7104059
  1.85210332  1.97254613  2.06228782  2.11896679  2.1402214   2.12605166
  2.08118081  2.00797048  1.91586716  1.80723247  1.68678967  1.56162362
  1.43409594  1.30184502  1.16723247  1.0302583   0.88856089  0.74450185
  0.59571956  0.44457565  0.28870849  0.13284133 -0.02774908 -0.19070111
 -0.35601476 -0.52605166 -0.70553506 -0.89446494 -1.0904797  -1.29830258
 -1.51557196 -1.74228782 -1.97372694 -2.20516605 -2.43660517 -2.66332103
 -2.88295203 -3.09313653 -3.28915129 -3.47335793 -3.64339483 -3.79926199
 -3.94095941 -4.06376384 -4.1700369  -4.2597786  -4.33062731 -4.3802214
 -4.41564576 -4.43217712 -4.43453875 -4.42745387 -4.41092251 -4.38730627
 -4.36132841 -4.33298893 -4.30464945 -4.27158672 -4.23143911 -4.18420664
 -4.12516605 -4.0495941  -3.95512915 -3.83704797 -3.69771218 -3.53239852
 -3.34819188 -3.14273063 -2.92309963 -2.69402214 -2.4602214  -2.22642066
 -1.99734317 -1.77535055 -1.56752768 -1.37623616 -1.20383764 -1.05505535
 -0.92752768 -0.82833948 -0.75512915 -0.70789668 -0.68664207 -0.69136531
 -0.71734317 -0.76221402 -0.81889299 -0.88738007 -0.96295203 -1.04088561
 -1.12118081 -1.20619926 -1.29121771 -1.38332103 -1.48487085 -1.59586716
 -1.72103321 -1.85800738 -2.01151292 -2.17682657 -2.35158672 -2.53343173
 -2.71055351 -2.88295203 -3.03881919 -3.17343173 -3.2797048  -3.35763838
 -3.4001476  -3.40723247 -3.38361624 -3.32929889 -3.24900369 -3.14745387
 -3.03409594 -2.90892989 -2.78140221 -2.65623616 -2.53579336 -2.43188192
 -2.34214022 -2.27601476 -2.23822878 -2.22878229 -2.2500369  -2.30435424
 -2.39173432 -2.51217712]","[ -1.65020594  -1.54471417  -1.44847606  -1.36334235  -1.28376084
  -1.20603006  -1.12274708  -1.0283597   -0.91361427  -0.76740637
  -0.58233309  -0.34914075  -0.05857569   0.29491428   0.7187321
   1.21287777   1.77920202   2.41030192   3.09322234   3.80945595
   4.53679396   5.24562464   5.90818699   6.49672004   6.98716424
   7.36471374   7.61641341   7.74041251   7.73671104   7.61271194
   7.37396741   7.03343256   6.59665961   6.07475295   5.47696624
   4.80885169   4.07966294   3.29680295   2.4713761    1.6089346
   0.7187321   -0.18997773  -1.11349342  -2.04071057  -2.96607699
  -3.88589122  -4.79089958  -5.67184841  -6.52503625  -7.34120944
  -8.1111143   -8.82919864  -9.48805953 -10.08214478 -10.61145437
 -11.07598831 -11.47759734 -11.82183365 -12.11610017 -12.37150131
 -12.60099218 -12.81197572 -13.01740707 -13.22839061 -13.45047855
 -13.68922309 -13.94462422 -14.21668195 -14.49984408 -14.79040913
 -15.07912346 -15.36043485 -15.62694038 -15.87123711 -16.08962359
 -16.28024907 -16.44126283 -16.57266486 -16.67445517 -16.74848448
 -16.7947528  -16.81326013 -16.80215573 -16.76329034 -16.69481323
 -16.59672439 -16.46902382 -16.3098608  -16.12478751 -15.91195324
 -15.6732087  -15.41225537 -15.13094398 -14.82557306 -14.49799334
 -14.1463541  -13.77065534 -13.36904631 -12.94337775 -12.49364967
 -12.0217128  -11.53311933 -11.02971999 -10.51521626  -9.9988618
  -9.4806566   -8.96800361  -8.46460427  -7.97786153  -7.50777539
  -7.06174878  -6.64163242  -6.24927706  -5.89023489  -5.56450591
  -5.27764231  -5.03149485  -4.83346643  -4.6854078   -4.59657263
  -4.57066237  -4.60952776  -4.71687026  -4.89083915  -5.12773295
  -5.42014874  -5.75513139  -6.12342722  -6.50837966  -6.89888429
  -7.28198598  -7.64658035  -7.9871152   -8.29803832  -8.57934971
  -8.83104937  -9.05498805  -9.2548672   -9.43068682  -9.58059618]",6.232206642066442,2.7854454667687003,4.234374999999999,0.5401499999999988
005,1,1,csm,7b.png,1,1,128,359,126,1,1,418,neu_feedback_onset,14,"[ 3.74746647  3.05964035  2.43650006  1.87157704  1.36271508  0.9034456
  0.48945621  0.12074691 -0.21130709 -0.50239338 -0.75682436 -0.97460003
 -1.15572038 -1.30234163 -1.41446375 -1.49424296 -1.54383544 -1.56324119
 -1.55461641 -1.5179611  -1.45758765 -1.37349605 -1.26784251 -1.14493941
 -1.00263056 -0.84522834 -0.67704515 -0.49808099 -0.31264824 -0.12074691
  0.07331062  0.26952434  0.47005045  0.66842037  0.87110268  1.07378498
  1.27862349  1.48346199  1.69045668  1.89313899  2.09150891  2.28341024
  2.4645306   2.63271379  2.77933503  2.90655052  3.00573548  3.0768899
  3.1178576   3.12648238  3.10276424  3.04454698  2.95829919  2.83970848
  2.69739963  2.53352883  2.35025227  2.15619475  1.95351244  1.74867394
  1.54814783  1.3540903   1.16865755  0.99616197  0.83229117  0.67920135
  0.52826771  0.38164647  0.23502523  0.08624779 -0.06252965 -0.2069947
 -0.34067877 -0.45495709 -0.54336108 -0.59510975 -0.60589072 -0.5735478
 -0.49592479 -0.37302169 -0.21561947 -0.02371814  0.19190133  0.42908275
  0.68135754  0.94010091  1.20746906  1.4791496   1.75514252  2.03329165
  2.31790935  2.60683945  2.91086291  3.23213593  3.57928328  3.96308595
  4.3921687   4.87300013  5.41636121  6.02225193  6.6906723   7.41084135
  8.16550951  8.93742723  9.69425158 10.40363966 11.03324852 11.54642287
 11.91728837 12.11565829 12.12643926 11.94316271 11.56582863 11.01168658
 10.3022985   9.46569494  8.54068739  7.56393117  6.57423779  5.60826254
  4.69834835  3.86821338  3.13510716  2.51412308  2.00310492  1.60636509
  1.3152788   1.12337746  1.01988012  0.99616197  1.04359826  1.15356419
  1.31959119  1.53089827  1.77886067  2.05485359  2.34378369  2.63702618
  2.91948769  3.17823106  3.40247531  3.58359567  3.71296736  3.79274656
  3.82293329  3.80783992  3.76040364  3.68493682  3.59868903  3.50597266
  3.41972487  3.34425805  3.28172841  3.23860451  3.20841778  3.19116823
  3.18254345  3.18038725  3.18038725  3.18254345  3.18254345  3.18469964
  3.18685584  3.19332442  3.20410539  3.22135495  3.24722929  3.2838846
  3.32916469  3.38522575  3.44559921  3.51244124  3.57928328  3.64612532
  3.71081116  3.76902842  3.82077709  3.86174479  3.88977532  3.90486869
  3.90486869  3.88977532  3.85527621  3.80137134  3.73021691  3.63750054
  3.52537841  3.39169434  3.24076071  3.07257752  2.89145716  2.69739963
  2.49687352  2.29419121  2.09582129  1.90823235  1.74004916  1.59558411
  1.48346199  1.41446375  1.39290181  1.42308853  1.50718013  1.64517659
  1.83276554  2.06347837  2.32006555  2.59390228  2.86127043  3.10492044
  3.30975894  3.45853638  3.54047178  3.55125275  3.49519169  3.37660097
  3.21488637  3.02945362  2.83970848  2.67152529  2.53784122  2.45374962
  2.42787529  2.4623744   2.55077839  2.68661866  2.85911424  3.05748415
  3.27094743  3.4908793   3.71081116  3.92858683  4.14205011  4.36198197
  4.59053862  4.8449696   5.13821208  5.48104705  5.88856786  6.36724309
  6.91707275  7.53158825  8.20432101  8.91155289  9.63387813 10.3432662
 11.01384277 11.62404588 12.15446979 12.59217733 12.92854371 13.16572513
 13.30587779 13.35762646 13.33175212 13.23903575 13.09241451 12.89620078
 12.65901936 12.38733882]","[-2.84542663 -2.66193717 -2.45164589 -2.21661445 -1.95890455 -1.67645449
 -1.36926428 -1.04145728 -0.69509516 -0.33017793  0.04710937  0.43264339
  0.82023909  1.20783479  1.58718378  1.95416269  2.30670984  2.64482524
  2.9664472   3.27982245  3.58495098  3.89007951  4.19520804  4.50858329
  4.82608189  5.14564218  5.4610791   5.76414595  6.04247265  6.28368913
  6.4754253   6.60943445  6.67746987  6.67334651  6.59706437  6.45274683
  6.24451722  5.9785606   5.66930871  5.32088491  4.94772097  4.55806359
  4.15809781  3.75400868  3.3540429   2.96232384  2.58091318  2.21393427
  1.8634488   1.53770347  1.2366983   0.97074168  0.74189528  0.55634415
  0.422335    0.33780615  0.30688096  0.32543607  0.39140981  0.49449377
  0.62644124  0.77282047  0.92538474  1.07176396  1.19958808  1.30061036
  1.3665841   1.38926257  1.36864578  1.296487    1.1769096   1.00991358
  0.79756062  0.54603575  0.25946233 -0.04978955 -0.37759656 -0.7115886
 -1.04351896 -1.36307924 -1.66408441 -1.94447279 -2.19599766 -2.42278238
 -2.62688863 -2.81243976 -2.98149746 -3.14230844 -3.29693439 -3.44949865
 -3.6041246  -3.76081222 -3.9216232  -4.08243418 -4.24530684 -4.40611783
 -4.56692881 -4.72155475 -4.87205734 -5.01431321 -5.15038404 -5.27614647
 -5.39160051 -5.49880783 -5.59776844 -5.68848233 -5.7709495  -5.84516995
 -5.91320536 -5.97093238 -6.01835101 -6.05546123 -6.08020138 -6.09463314
 -6.09669482 -6.0884481  -6.07401635 -6.05546123 -6.0389678  -6.0286594
 -6.03072108 -6.05133788 -6.09257146 -6.16266856 -6.25956748 -6.38532992
 -6.53995586 -6.7151986  -6.91105813 -7.11722605 -7.32545566 -7.53162358
 -7.72748311 -7.90684921 -8.06353683 -8.1954843  -8.30269163 -8.38103544
 -8.43670078 -8.46556429]",9.850455915400513,4.082640351392614,4.6377999999999995,0.09712500000000013
005,2,1,csm,64b.png,1,1,196,214,NaN,0,1,339,neu_feedback_onset,1,"[-2.80870554 -2.54336747 -2.27394727 -2.00044495 -1.71877838 -1.43098863
 -1.13911675 -0.83908062 -0.53292131 -0.22063881  0.09776687  0.42025468
  0.74478356  1.07135349  1.39588236  1.71837017  2.03881692  2.3572226
  2.67358723  2.98995185  3.3103986   3.63492747  3.96557953  4.30439584
  4.65341745  5.00652119  5.36370706  5.71885186  6.06991454  6.40873085
  6.73325972  7.03941903  7.3210856   7.58234155  7.81910475  8.03545733
  8.23548142  8.42121807  8.5967494   8.7641165   8.92740146  9.08048112
  9.22335547  9.34581919  9.44174911  9.50298097  9.52135053  9.4907346
  9.41113318  9.28254627  9.11109705  8.91107297  8.69267932  8.47224462
  8.26609735  8.08444282  7.93952741  7.83339218  7.76399607  7.72929802
  7.71705164  7.71705164  7.71909271  7.71092846  7.68439465  7.63540916
  7.55988986  7.46191888  7.34353728  7.20882719  7.0679939   6.92511956
  6.79245052  6.67610998  6.58426219  6.52507139  6.50874289  6.53731776
  6.61896024  6.75162928  6.93124274  7.15371851  7.40681021  7.67827147
  7.94769166  8.20282442  8.42734125  8.60695471  8.73554163  8.80493774
  8.82126623  8.7906503   8.72125419  8.62736534  8.52327117  8.419177
  8.32732921  8.25180991  8.19670124  8.15587999  8.12934619  8.1068945
  8.08240176  8.04974477  8.0048414   7.94156847  7.86196705  7.76603714
  7.65377872  7.52927393  7.39456384  7.25168949  7.10473302  6.95369442
  6.80061477  6.64753511  6.49241439  6.33729367  6.18217296  6.02501117
  5.86989046  5.71476974  5.56169008  5.40861042  5.25757183  5.11265642
  4.97182314  4.84119516  4.72485463  4.63096577  4.56361072  4.53299479
  4.54728222  4.61667833  4.74526525  4.93916614  5.19838103  5.52086884
  5.89846533  6.3250473   6.78428627  7.26393586  7.74766758  8.22119398
  8.66818658  9.07844006  9.43358486  9.72137461  9.92752189 10.04182136
 10.04998561  9.94793251  9.7274978   9.39072256  8.93964784  8.38243789
  7.7354212   7.01492629  6.23932269  5.43106211  4.61463727  3.81045881
  3.03893734  2.31640136  1.65917937  1.07951774  0.58353965  0.17532723
 -0.14103739 -0.37371847 -0.52679812 -0.60844061 -0.63293335 -0.61252273
 -0.55945512 -0.48801795 -0.40841652 -0.33085616 -0.26350112 -0.21451563
 -0.18594076 -0.17981757 -0.19614607 -0.23288518 -0.2859528  -0.3451436
 -0.4043344  -0.45536095 -0.48597688 -0.49210007 -0.46760732 -0.41045759
 -0.32269192 -0.20839244 -0.0757234   0.06715094  0.21206635  0.35289963
  0.48352761  0.60190921  0.70804444  0.80397436  0.89378109  0.98358782
  1.07747668  1.17952978  1.29178819  1.41629298  1.55304414  1.70000061
  1.85716239  2.02248842  2.19189658  2.36538685  2.54091819  2.71236741
  2.88177556  3.04506053  3.20222231  3.34713772  3.48184781  3.60022942
  3.70432358  3.79004819  3.85536218  3.90434767  3.93088147  3.93904572
  3.92679935  3.89618342  3.84923899  3.78596607  3.70636464  3.61451685
  3.51042268  3.39612321  3.27365948  3.14303151  3.01036247  2.87157025
  2.73277803  2.59194474  2.45111146  2.31231924  2.17352702  2.03881692
  1.90818895  1.7816431   1.66122043  1.54487989  1.43262148  1.32444519
  1.2162689   1.10605154  0.99175207  0.86724728  0.73253718  0.58149859
  0.41209044  0.22227166]","[ -3.50394753  -3.30411802  -3.07908478  -2.82524729  -2.53720475
  -2.21135662  -1.84590264  -1.43904255  -0.99617714  -0.51910667
  -0.01683249   0.50524462   1.03632306   1.56560124   2.08407782
   2.58095121   3.04541981   3.46848229   3.83933707   4.15258334
   4.39561923   4.56844476   4.66205859   4.67646071   4.61165114
   4.46943013   4.25159796   3.96535568   3.61430383   3.20744374
   2.7501762    2.24430148   1.69882092   1.11733503   0.50164409
  -0.14105083  -0.80894948  -1.49665106  -2.20055502  -2.91346032
  -3.63536694  -4.35907384  -5.08098046  -5.79928655  -6.50859132
  -7.20349396  -7.87859367  -8.52668939  -9.14058006  -9.70946409
 -10.22434014 -10.67620688 -11.05786325 -11.36210818 -11.58534115
 -11.72756216 -11.79237173 -11.78697094 -11.7203611  -11.60154355
 -11.44852095 -11.27029462 -11.08486723 -10.90124011 -10.73381538
 -10.58979411 -10.47637736 -10.40076619 -10.36296061 -10.36116034
 -10.39716566 -10.4637755  -10.55738933 -10.66900581 -10.78962363
 -10.91384197 -11.02725873 -11.12267282 -11.19288319 -11.22888851
 -11.22888851 -11.18928266 -11.11367149 -11.00025474 -10.859834
 -10.6960098  -10.51418294 -10.32515503 -10.13252657  -9.94169839
  -9.75447074  -9.57084361  -9.38901676  -9.20358937  -9.00736039
  -8.79492901  -8.56089444  -8.29805562  -8.01001308  -7.70036734
  -7.37631948  -7.05587215  -6.74982695  -6.48158733  -6.26375516
  -6.10893229  -6.02792032  -6.02251953  -6.0873291   -6.21334771
  -6.3879735   -6.59680435  -6.82363785  -7.05407189  -7.27730486
  -7.48973623  -7.68776548  -7.87499314  -8.05321946  -8.23324605
  -8.41687317  -8.61130189  -8.82013273  -9.03976517  -9.27019921
  -9.50783431  -9.74366914  -9.97230291 -10.18833482 -10.38636407
 -10.56279012 -10.71581273 -10.8436316  -10.94984729 -11.03265952
 -11.09926936 -11.14967681 -11.19108292 -11.22348771 -11.25229196]",5.934949310223057,0.9996426472189942,4.8994100000000005,
005,2,1,csp,7a.png,1,1,232,288,231,1,1,289,pos_feedback_onset,2,"[-1.95952512e+00 -1.86747839e+00 -1.75402544e+00 -1.61916627e+00
 -1.46076026e+00 -1.28094804e+00 -1.08187022e+00 -8.61386181e-01
 -6.23777170e-01 -3.66902563e-01 -9.71842262e-02  1.87518463e-01
  4.85064882e-01  7.89033167e-01  1.10156394e+00  1.42265720e+00
  1.74803170e+00  2.07768744e+00  2.41162443e+00  2.74984266e+00
  3.09234214e+00  3.43698224e+00  3.77948171e+00  4.12198119e+00
  4.45377756e+00  4.77487081e+00  5.07669848e+00  5.35497930e+00
  5.60543204e+00  5.82163484e+00  6.00358768e+00  6.15129058e+00
  6.26688415e+00  6.35464964e+00  6.42100892e+00  6.47452446e+00
  6.52375876e+00  6.57085244e+00  6.62222736e+00  6.68216477e+00
  6.74424280e+00  6.80632083e+00  6.85983637e+00  6.89622694e+00
  6.90693005e+00  6.87910197e+00  6.80846145e+00  6.69072725e+00
  6.52589938e+00  6.31825908e+00  6.07850944e+00  5.81949421e+00
  5.55191650e+00  5.29290127e+00  5.05101102e+00  4.83908947e+00
  4.66141786e+00  4.51799621e+00  4.40668388e+00  4.32534025e+00
  4.26326222e+00  4.22044979e+00  4.19048108e+00  4.17335611e+00
  4.16907487e+00  4.18191860e+00  4.21616854e+00  4.28038720e+00
  4.37671517e+00  4.50729310e+00  4.67426159e+00  4.87548003e+00
  5.10238594e+00  5.34855744e+00  5.60757266e+00  5.87086914e+00
  6.12988436e+00  6.38247773e+00  6.62436798e+00  6.85127388e+00
  7.06533606e+00  7.26869512e+00  7.46135107e+00  7.64544454e+00
  7.82525677e+00  7.99864713e+00  8.16989686e+00  8.34114660e+00
  8.50811510e+00  8.67508359e+00  8.84205209e+00  9.00902058e+00
  9.17598907e+00  9.34295757e+00  9.51206668e+00  9.67903518e+00
  9.84814430e+00  1.00172534e+01  1.01885031e+01  1.03640341e+01
  1.05417057e+01  1.07236586e+01  1.09098927e+01  1.11004080e+01
  1.12909233e+01  1.14814387e+01  1.16633915e+01  1.18303600e+01
  1.19737817e+01  1.20786721e+01  1.21386095e+01  1.21364689e+01
  1.20658284e+01  1.19138443e+01  1.16740946e+01  1.13465795e+01
  1.09291583e+01  1.04261122e+01  9.84172243e+00  9.19097343e+00
  8.48028701e+00  7.72678817e+00  6.94546124e+00  6.14700934e+00
  5.34641681e+00  4.55438678e+00  3.78162233e+00  3.03668598e+00
  2.32599956e+00  1.65598496e+00  1.02878280e+00  4.50814935e-01
 -8.00592524e-02 -5.59558518e-01 -9.87682863e-01 -1.36657291e+00
 -1.69836927e+00 -1.98735321e+00 -2.23352470e+00 -2.44330563e+00
 -2.61883661e+00 -2.76439889e+00 -2.88213309e+00 -2.97203920e+00
 -3.03625785e+00 -3.07692966e+00 -3.08977339e+00 -3.07478904e+00
 -3.03197661e+00 -2.95919547e+00 -2.85216438e+00 -2.71302397e+00
 -2.53963361e+00 -2.32985268e+00 -2.08582181e+00 -1.81182223e+00
 -1.51213518e+00 -1.19318255e+00 -8.65667424e-01 -5.40292923e-01
 -2.29902773e-01  5.26592944e-02  2.96690171e-01  4.91486747e-01
  6.34908403e-01  7.24814515e-01  7.67626950e-01  7.71908193e-01
  7.52642598e-01  7.24814515e-01  7.14111407e-01  7.35517624e-01
  8.06158141e-01  9.45298553e-01  1.15507948e+00  1.43764155e+00
  1.78656289e+00  2.18685915e+00  2.61498350e+00  3.04524846e+00
  3.44768535e+00  3.79446606e+00  4.05562191e+00  4.21402792e+00
  4.25041849e+00  4.15837176e+00  3.94430959e+00  3.61251322e+00
  3.18438887e+00  2.67920215e+00  2.12264050e+00  1.53611015e+00
  9.47439174e-01  3.71611931e-01 -1.74246608e-01 -6.79433335e-01
 -1.13966700e+00 -1.55066638e+00 -1.91029082e+00 -2.22282160e+00
 -2.49039931e+00 -2.71516459e+00 -2.89711744e+00 -3.04267972e+00
 -3.15185142e+00 -3.22677318e+00 -3.26958562e+00 -3.28028873e+00
 -3.26530438e+00 -3.22677318e+00 -3.16897640e+00 -3.09405464e+00
 -3.00842977e+00 -2.91424241e+00 -2.81577381e+00 -2.71516459e+00
 -2.61455537e+00 -2.51394615e+00 -2.41119631e+00 -2.30844647e+00
 -2.20355600e+00 -2.09224367e+00 -1.97450948e+00 -1.85035342e+00
 -1.71763487e+00 -1.57635384e+00 -1.42651032e+00 -1.27024493e+00
 -1.10541706e+00 -9.32026698e-01 -7.54355095e-01 -5.72402249e-01
 -3.84027537e-01 -1.95652825e-01 -5.13749213e-03  1.83237219e-01
  3.69471309e-01  5.51424156e-01  7.24814515e-01  8.91783009e-01
  1.05018902e+00  1.20003254e+00  1.34131357e+00  1.47617274e+00
  1.60675066e+00  1.73090672e+00  1.85078154e+00  1.96851574e+00
  2.07982807e+00  2.18685915e+00  2.28532775e+00  2.37309324e+00
  2.45229624e+00  2.52079614e+00  2.58287417e+00  2.63853033e+00
  2.69632712e+00  2.76268639e+00  2.84403002e+00  2.94463924e+00]","[-3.3507418  -2.94389366 -2.54498401 -2.15202824 -1.76701097 -1.38794757
 -1.01483805 -0.6476824  -0.29044988  0.05685951  0.39226115  0.7117858
  1.01344881  1.29526558  1.55723609  1.79737573  2.02163837  2.22803938
  2.42253264  2.60313352  2.77381128  2.93655054  3.0913513   3.23821356
  3.37316807  3.49621482  3.6053692   3.69864658  3.77803159  3.83955497
  3.88520135  3.9129861   3.92687847  3.92489385  3.9050476   3.86535509
  3.80383172  3.71849284  3.60338458  3.4545377   3.27393681  3.05562805
  2.80358066  2.5217639   2.21216238  1.88072998  1.53937447  1.1940497
  0.8546788   0.53118491  0.23150652 -0.03641787 -0.26464976 -0.45517377
 -0.60402065 -0.71515966 -0.79652929 -0.85408342 -0.89774517 -0.93743767
 -0.98506867 -1.04460743 -1.12597706 -1.23116219 -1.36413207 -1.52290208
 -1.70747221 -1.9118886  -2.13416661 -2.36636775 -2.59856889 -2.82481615
 -3.03518641 -3.22571042 -3.38646506 -3.51745031 -3.61668157 -3.6901127
 -3.73972832 -3.77148233 -3.79728245 -3.81911333 -3.84888271 -3.89055983
 -3.94811396 -4.02352972 -4.1168071  -4.22596148 -4.34702361 -4.47602424
 -4.6070095  -4.7340255  -4.85310301 -4.96027277 -5.04759627 -5.11507353
 -5.1607199  -5.18056615 -5.1765969  -5.1448429  -5.09125802 -5.01187302
 -4.91065714 -4.79157963 -4.6546405  -4.50579362 -4.34503898 -4.17634585
 -4.00169884 -3.8250672  -3.64843557 -3.47180393 -3.29914155 -3.12846379
 -2.96373991 -2.80298527 -2.64619989 -2.49536838 -2.3465215  -2.20164386
 -2.05676623 -1.9118886  -1.76701097 -1.62014871 -1.4693172  -1.31451644
 -1.15376181 -0.99102255 -0.81836016 -0.6397439  -0.45120452 -0.24877276
 -0.03244862  0.20570639  0.46370766  0.7435398   1.04520281  1.36472746
  1.69020597  2.01369987]",9.280933054196256,2.6708092408114354,4.67154,
005,2,1,csm,4b.png,1,1,116,127,116,1,1,321,neu_feedback_onset,3,"[  1.23759765   0.98663572   0.7445574    0.5180254    0.31148151
   0.12492574  -0.03497921  -0.16823333  -0.27483662  -0.3547891
  -0.40809075  -0.43696247  -0.44140428  -0.42807886  -0.39476533
  -0.34590549  -0.28372023  -0.21043047  -0.12159439  -0.01943289
   0.10049582   0.24263355   0.4114221    0.61574508   0.86448611
   1.16430788   1.52187311   1.94384449   2.43466384   2.99211025
   3.60952101   4.27579161   4.97093394   5.67273898   6.3545559
   6.99195478   7.5582848    8.03133693   8.39556486   8.64208498
   8.7708973    8.78644361   8.70649114   8.5488071    8.34226321
   8.1112894    7.88475739   7.69153892   7.55162209   7.48721593
   7.50942495   7.62269096   7.82701394   8.1135103    8.46663372
   8.86417518   9.28392567   9.69701344  10.08122949  10.40992299
  10.66754762  10.84299888  10.93183496  10.93405587  10.8607661
  10.72529108  10.54761892  10.34329593  10.13453114   9.93464996
   9.75253599   9.60151466   9.48158595   9.39052896   9.3261228
   9.27948386   9.24172853   9.208415     9.17065966   9.12402072
   9.06627727   8.99742931   8.91969774   8.83974526   8.76423459
   8.69760753   8.64874769   8.62209686   8.61765506   8.63764318
   8.68428212   8.75090918   8.83752436   8.93746495   9.04628915
   9.15733425   9.26393755   9.36165724   9.44383061   9.49935316
   9.52378308   9.51267857   9.46159783   9.36831994   9.23284492
   9.06405637   8.86639609   8.65318949   8.43109929   8.21122999
   8.0002443    7.80258402   7.61602825   7.43613519   7.25624212
   7.06746545   6.86092156   6.62994775   6.37010222   6.07916405
   5.75935416   5.41289345   5.04644461   4.66667037   4.27579161
   3.88491286   3.4940341    3.11203895   2.73670651   2.37469948
   2.02601787   1.69288256   1.37751448   1.07991361   0.80674266
   0.55355983   0.32258602   0.11382123  -0.07717635  -0.2504067
  -0.41253255  -0.56799569  -0.71901703  -0.87670107  -1.03882692
  -1.21205728  -1.39861305  -1.59849423  -1.80947992  -2.03601193
  -2.26920664  -2.51128496  -2.75780508  -3.00654611  -3.25528713
  -3.50180726  -3.74610648  -3.983743    -4.21471681  -4.43902791
  -4.65889721  -4.867662    -5.06976408  -5.26298256  -5.44509653
  -5.62054779  -5.78267363  -5.93813677  -6.08249541  -6.21797043
  -6.34234094  -6.46004875  -6.56665205  -6.66659264  -6.75764962
  -6.83982299  -6.91755456  -6.98862343  -7.05747139  -7.12631935
  -7.19960912  -7.27956159  -7.36839767  -7.47055917  -7.59048788
  -7.7304047   -7.88586785  -8.0613191   -8.25453758  -8.45886057
  -8.67206716  -8.88971556  -9.10514305  -9.31612875  -9.51378903
  -9.69368209  -9.85358703  -9.98906206 -10.09788626 -10.18005963
 -10.22891948 -10.2511285  -10.24446579 -10.21337316 -10.15785061
 -10.08456084  -9.99350386  -9.89578417  -9.79140178  -9.68479848
  -9.58041609  -9.4804755   -9.38497671  -9.29391973  -9.20064184
  -9.10292215  -8.99631885  -8.87639015  -8.74313602  -8.59433559
  -8.42998884  -8.25675848  -8.08130722  -7.91251867  -7.75705553
  -7.62602231  -7.52163991  -7.44835015  -7.40837391  -7.3994903
  -7.41281572  -7.44835015  -7.49054729  -7.53718623  -7.57716246
  -7.60825509  -7.62602231  -7.62824321  -7.6149178   -7.58604607
  -7.54606984  -7.49720999  -7.43946654  -7.37728128  -7.30843332
  -7.23292265  -7.15297018  -7.066355    -6.97085621  -6.86425292
  -6.74654511  -6.61329099  -6.46671145  -6.30680651  -6.13135525
  -5.94702038  -5.75602281  -5.56502523  -5.37624856  -5.2007973 ]","[-2.03658793 -1.82225204 -1.60791614 -1.39159565 -1.17527516 -0.95697008
 -0.73668041 -0.51837533 -0.29808566 -0.07978058  0.1385245   0.35484498
  0.56918088  0.78153218  0.98792971  1.18837347  1.38286345  1.56941506
  1.74405912  1.90679564  2.0576246   2.19059224  2.30768315  2.40691273
  2.48629639  2.54583414  2.58552598  2.6033873   2.59941812  2.57361843
  2.52598823  2.45652752  2.36126712  2.24219162  2.09731644  1.92267237
  1.72024403  1.4900314   1.23004989  0.94228411  0.63268781  0.3032456
 -0.04207334 -0.39731524 -0.75454174 -1.10978364 -1.45708718 -1.79049857
 -2.10207946 -2.38786065 -2.63990379 -2.85423968 -3.02491456 -3.14795924
 -3.22337373 -3.2531426  -3.23925046 -3.18566649 -3.10429823 -3.00109946
 -2.88599315 -2.76691765 -2.65181134 -2.54662798 -2.45930595 -2.38984524
 -2.34419963 -2.32236913 -2.3283229  -2.36206096 -2.4235833  -2.51090533
 -2.62204246 -2.7550101  -2.90186988 -3.05865262 -3.21345077 -3.36031055
 -3.489309   -3.59449236 -3.66990684 -3.70959868 -3.71356786 -3.68578358
 -3.62426124 -3.5369392  -3.42580207 -3.29680362 -3.15192843 -2.99514569
 -2.8264554  -2.64188838 -2.44144462 -2.21917036 -1.97109641 -1.6872998
 -1.36579596 -1.0006311  -0.59180522 -0.14328752  0.33698366  0.83710075
  1.33920243  1.81947361  2.25806836  2.63117158  2.92092196  3.11739653
  3.21265693  3.20868775  3.11739653  2.95267543  2.73635494  2.4843118
  2.21639193  1.94847206  1.69047515  1.44438579  1.21218857  0.98991431
  0.76764004  0.54338119  0.31118397  0.06906379 -0.18099476 -0.4310533
 -0.67515807 -0.90338611 -1.10779905 -1.28045852 -1.41739534 -1.51860952
 -1.58608563 -1.62776206 -1.64760797 -1.65554634 -1.65356175 -1.64959256
 -1.6416542  -1.63173124]",9.24939064000844,0.4734739482656769,4.502675,0.5819549999999989
005,2,1,csm,35b.png,1,1,300,307,301,1,1,336,neu_feedback_onset,4,"[ 5.67581939e-01  3.76846664e-01  2.03450960e-01  4.93214448e-02
 -7.59087862e-02 -1.70313114e-01 -2.35818158e-01 -2.70497299e-01
 -2.80130394e-01 -2.68570680e-01 -2.37744777e-01 -1.93432541e-01
 -1.41413830e-01 -8.36152619e-02 -2.38900748e-02  3.58351122e-02
  9.74869183e-02  1.57212105e-01  2.16937292e-01  2.76662479e-01
  3.38314285e-01  4.03819329e-01  4.71250992e-01  5.44462512e-01
  6.19600650e-01  6.96665408e-01  7.77583403e-01  8.56574780e-01
  9.33639537e-01  1.00299782e+00  1.06079639e+00  1.10125538e+00
  1.11666834e+00  1.10125538e+00  1.04731005e+00  9.45199251e-01
  7.94922974e-01  5.86848128e-01  3.24827953e-01  8.86244711e-03
 -3.59121770e-01 -7.69491604e-01 -1.21646720e+00 -1.69234208e+00
 -2.18940976e+00 -2.69996378e+00 -3.21629765e+00 -3.73841139e+00
 -4.25859850e+00 -4.77685899e+00 -5.28933963e+00 -5.79604041e+00
 -6.29310810e+00 -6.77861607e+00 -7.25063771e+00 -7.70531978e+00
 -8.14266228e+00 -8.55495873e+00 -8.94413576e+00 -9.30634012e+00
 -9.63964519e+00 -9.94405099e+00 -1.02195575e+01 -1.04642381e+01
 -1.06800194e+01 -1.08669015e+01 -1.10229576e+01 -1.11520411e+01
 -1.12522252e+01 -1.13292900e+01 -1.13832353e+01 -1.14159879e+01
 -1.14314008e+01 -1.14314008e+01 -1.14236943e+01 -1.14063548e+01
 -1.13870886e+01 -1.13678224e+01 -1.13504828e+01 -1.13389231e+01
 -1.13350699e+01 -1.13408497e+01 -1.13562627e+01 -1.13832353e+01
 -1.14179145e+01 -1.14641533e+01 -1.15180987e+01 -1.15797505e+01
 -1.16510354e+01 -1.17281001e+01 -1.18128714e+01 -1.19053491e+01
 -1.20036066e+01 -1.21095707e+01 -1.22213146e+01 -1.23388383e+01
 -1.24602153e+01 -1.25835189e+01 -1.27106758e+01 -1.28397592e+01
 -1.29707693e+01 -1.31037060e+01 -1.32385694e+01 -1.33753593e+01
 -1.35140759e+01 -1.36527924e+01 -1.37953622e+01 -1.39360054e+01
 -1.40766486e+01 -1.42172918e+01 -1.43540817e+01 -1.44908717e+01
 -1.46238084e+01 -1.47528919e+01 -1.48781221e+01 -1.49975725e+01
 -1.51112430e+01 -1.52172070e+01 -1.53173912e+01 -1.54117955e+01
 -1.54965668e+01 -1.55736315e+01 -1.56429898e+01 -1.57065682e+01
 -1.57643668e+01 -1.58183121e+01 -1.58664776e+01 -1.59107898e+01
 -1.59531755e+01 -1.59936345e+01 -1.60340934e+01 -1.60726258e+01
 -1.61092316e+01 -1.61458373e+01 -1.61805165e+01 -1.62113424e+01
 -1.62402417e+01 -1.62633611e+01 -1.62807007e+01 -1.62922604e+01
 -1.62941870e+01 -1.62864805e+01 -1.62691410e+01 -1.62440949e+01
 -1.62074892e+01 -1.61651035e+01 -1.61130848e+01 -1.60572129e+01
 -1.59994143e+01 -1.59396891e+01 -1.58818906e+01 -1.58298718e+01
 -1.57874862e+01 -1.57585869e+01 -1.57470272e+01 -1.57585869e+01
 -1.57971193e+01 -1.58664776e+01 -1.59685884e+01 -1.61073050e+01
 -1.62807007e+01 -1.64868489e+01 -1.67218964e+01 -1.69800633e+01
 -1.72517166e+01 -1.75291497e+01 -1.78027296e+01 -1.80647498e+01
 -1.83094304e+01 -1.85271384e+01 -1.87178736e+01 -1.88797096e+01
 -1.90145729e+01 -1.91263168e+01 -1.92187946e+01 -1.92977859e+01
 -1.93652176e+01 -1.94287960e+01 -1.94865946e+01 -1.95424665e+01
 -1.95964119e+01 -1.96465040e+01 -1.96908162e+01 -1.97274220e+01
 -1.97563212e+01 -1.97736608e+01 -1.97832939e+01 -1.97794407e+01
 -1.97659543e+01 -1.97428349e+01 -1.97081558e+01 -1.96638435e+01
 -1.96098982e+01 -1.95424665e+01 -1.94654018e+01 -1.93767773e+01
 -1.92765931e+01 -1.91648492e+01 -1.90453988e+01 -1.89201686e+01
 -1.87891585e+01 -1.86600751e+01 -1.85290650e+01 -1.84038347e+01
 -1.82824577e+01 -1.81649340e+01 -1.80512635e+01 -1.79414462e+01
 -1.78335555e+01 -1.77256649e+01 -1.76158476e+01 -1.75079569e+01
 -1.74019929e+01 -1.72979555e+01 -1.71996979e+01 -1.71091468e+01
 -1.70263022e+01 -1.69569439e+01 -1.68972187e+01 -1.68509799e+01
 -1.68124475e+01 -1.67816216e+01 -1.67546489e+01 -1.67238230e+01
 -1.66872173e+01 -1.66390518e+01 -1.65774000e+01 -1.65003352e+01
 -1.64078575e+01 -1.63018935e+01 -1.61882230e+01 -1.60726258e+01
 -1.59628085e+01 -1.58645510e+01 -1.57874862e+01 -1.57335409e+01
 -1.57084948e+01 -1.57123481e+01 -1.57393208e+01 -1.57836330e+01
 -1.58395049e+01 -1.58953769e+01 -1.59416157e+01 -1.59743683e+01
 -1.59840014e+01 -1.59685884e+01 -1.59262028e+01 -1.58606977e+01
 -1.57701467e+01 -1.56622560e+01 -1.55408790e+01 -1.54098689e+01
 -1.52711523e+01 -1.51305092e+01 -1.49898660e+01 -1.48492228e+01
 -1.47085796e+01 -1.45679364e+01 -1.44253666e+01 -1.42789436e+01]","[ -1.27550685  -1.20465098  -1.11557503  -1.01232791  -0.89288516
  -0.76129569  -0.6175595   -0.46370104  -0.30376923  -0.13776405
   0.03026558   0.20031966   0.3723982    0.54245228   0.71048191
   0.87446263   1.0364189    1.19230181   1.34211136   1.4838231
   1.61338812   1.73283086   1.83405353   1.91908057   1.97981418
   2.01827879   2.03042551   2.01220543   1.965643     1.88871377
   1.78141774   1.64577937   1.48584755   1.3056712    1.10525032
   0.89268271   0.6720173    0.44122961   0.20841747  -0.02439466
  -0.25923125  -0.49406785  -0.72485553  -0.95564321  -1.18440645
  -1.40912077  -1.62978619  -1.84842715  -2.06099476  -2.267489
  -2.46790988  -2.66225741  -2.85053157  -3.03273237  -3.20885982
  -3.38093835  -3.55099244  -3.72509543  -3.90729623  -4.09759485
  -4.30611355  -4.53285232  -4.78186009  -5.05718575  -5.36085375
  -5.68679075  -6.03702118  -6.40547169  -6.79011783  -7.17881288
  -7.56953238  -7.95417852  -8.32262904  -8.67083502  -8.99069865
  -9.27614657  -9.52515434  -9.73367304  -9.90170267 -10.02721878
 -10.11629472 -10.16893051 -10.1911995  -10.18512614 -10.15880824
 -10.11224582 -10.05353667  -9.98470525  -9.90777603  -9.82679789
  -9.74177085  -9.6526949   -9.56361895  -9.4704941   -9.37534479
  -9.27817103  -9.17492391  -9.06762788  -8.95223403  -8.82671793
  -8.6890551   -8.54127     -8.38133818  -8.2112841   -8.0331322
  -7.85498031  -7.68087732  -7.52296995  -7.38935603  -7.29015782
  -7.23347312  -7.23144867  -7.28610891  -7.40555166  -7.59180137
  -7.83878468  -8.14650159  -8.50685429  -8.91376942  -9.3530758
  -9.81667562 -10.29242217 -10.77019316 -11.23784189 -11.68929499
 -12.1144302  -12.51122306 -12.87562467 -13.20358612 -13.4951074
 -13.74816407 -13.96680504 -14.14698139 -14.28869312 -14.39194025
 -14.4546983  -14.47494283 -14.44862494 -14.37776907 -14.25832632]",-0.5183568252402437,0.7435817236398401,5.19044,0.7544449999999996
005,2,1,csp,54a.png,1,1,268,283,267,1,0,359,neg_feedback_onset,5,"[-3.39005624 -3.15328391 -2.86870177 -2.54313981 -2.17887467 -1.78501299
 -1.3706614  -0.94037321 -0.50097839 -0.06386023  0.36642796  0.78305621
  1.17691788  1.54573633  1.88040493  2.17864701  2.43590926  2.64991502
  2.82294096  2.95498707  3.05060667  3.11435307  3.15305624  3.1712695
  3.17582281  3.17354616  3.17354616  3.18037613  3.20086604  3.23729255
  3.29420898  3.37616864  3.48317152  3.61294097  3.765477    3.93622628
  4.11835885  4.30276807  4.48262398  4.64881995  4.78997269  4.90380555
  4.98121189  5.01991506  5.01991506  4.97893523  4.90152889  4.79224935
  4.65337327  4.49173061  4.30959804  4.11608219  3.91345971  3.70856057
  3.51049141  3.32608218  3.15988621  3.02101013  2.9162839   2.84570753
  2.81383433  2.81611099  2.85253751  2.91856056  3.00962684  3.11890638
  3.24184587  3.37844529  3.52187469  3.66758074  3.82011677  3.97265279
  4.12746548  4.28227816  4.43709084  4.59418018  4.75354618  4.91518883
  5.07683149  5.24302745  5.40922342  5.5799727   5.74844533  5.91236464
  6.06945398  6.21288337  6.3335462   6.42233583  6.47014563  6.46786897
  6.40639923  6.27890643  6.08539058  5.82129835  5.49118308  5.0973214
  4.65109661  4.15933868  3.63343089  3.08475653  2.52697554  1.97147121
  1.42962682  0.90599569  0.40968444 -0.05247695 -0.48048848 -0.86979684
 -1.21812538 -1.52775074 -1.79867294 -2.03089196 -2.22213116 -2.37239052
 -2.48394672 -2.55452309 -2.58411963 -2.57501301 -2.52947986 -2.44524355
 -2.3314107  -2.19025796 -2.0286153  -1.84648274 -1.65069023 -1.44806774
 -1.23633863 -1.02005621 -0.79694382 -0.56927811 -0.33478243 -0.09345677
  0.15469885  0.40513113  0.65784007  0.90827235  1.149598    1.37726371
  1.5844395   1.76657207  1.92138475  2.04432424  2.13994383  2.20824355
  2.25377669  2.28109657  2.29475652  2.30158649  2.3061398   2.31069312
  2.3220764   2.34028966  2.36533289  2.39948274  2.44273923  2.49282568
  2.54974211  2.61121185  2.67723491  2.74781128  2.81838765  2.88896402
  2.95498707  3.01873347  3.07792656  3.12801301  3.16671618  3.19403607
  3.20769601  3.20541935  3.18492944  3.14622627  3.08703319  3.00735019
  2.90717728  2.78423779  2.63853174  2.47461243  2.29247986  2.09668735
