sub,run,cat_cond,trial_type,picture,old,response_old,target_pos,response_pos,dot_resp_loc,cat_corr,TN_corr,TN_rt,feedback_type,trial,SP_timeseries,FB_timeseries,SP_peak_response,FB_peak_response,preStim_bl,anticipation
025,1,1,csm,61b.png,1,1,44,41,50,1,0,299,neu_feedback_onset,1,"[-0.96730285 -1.0276386  -1.05177291 -1.04453262 -1.00109087 -0.92868796
 -0.82491046 -0.69458523 -0.54012569 -0.36635871 -0.17811115  0.02703042
  0.24423914  0.46868816  0.70279089  0.94172049  1.18789037  1.43406026
  1.68505701  1.93364032  2.17981021  2.42115323  2.65525597  2.87487812
  3.08001969  3.26344039  3.42031336  3.54822516  3.64234894  3.70027127
  3.71716528  3.69544441  3.63510865  3.53857144  3.41307307  3.26102696
  3.09691371  2.92556016  2.75903347  2.6021605   2.46942184  2.36081748
  2.28358771  2.23773253  2.22325195  2.23773253  2.27393399  2.33185631
  2.40667265  2.49355614  2.58767992  2.68663056  2.79040806  2.89901242
  3.00520336  3.11380772  3.22241208  3.33342987  3.44203423  3.54822516
  3.65682952  3.76060703  3.86438453  3.96092174  4.05263209  4.13710215
  4.20950505  4.26984081  4.31328255  4.33741686  4.34224372  4.32534971
  4.28673482  4.22639907  4.15158273  4.05987238  3.95609488  3.84749052
  3.73164586  3.61821464  3.50478342  3.39376563  3.28516127  3.18138376
  3.07760626  2.97382876  2.87005126  2.76386033  2.6576694   2.54906504
  2.44287411  2.3390966   2.24255939  2.15326248  2.07844614  2.02052381
  1.9794955   1.96260148  1.96742835  1.99638951  2.04948497  2.12430131
  2.21601166  2.32461602  2.44287411  2.57078591  2.69869771  2.82660952
  2.94969446  3.06312568  3.16448975  3.24895981  3.31653586  3.36239103
  3.3913522   3.39859249  3.38652534  3.3599776   3.31894929  3.26585382
  3.21034493  3.15000917  3.09450028  3.04381824  3.0003765   2.97141533
  2.95693475  2.95934818  2.97624219  3.00761679  3.05829882  3.12587487
  3.2079315   3.30929557  3.42996708  3.56511918  3.71957871  3.89093226
  4.07917982  4.2770811   4.48704953  4.6994314   4.90939983  5.11212797
  5.30037553  5.46448879  5.59964088  5.69135123  5.73961984  5.73237955
  5.66721693  5.54171856  5.353471    5.10488768  4.80079547  4.44602122
  4.05504552  3.63269522  3.19345092  2.74696632  2.30772201  1.88295829
  1.48474229  1.11548746  0.78243409  0.4879956   0.23217199  0.0173767
 -0.15880371 -0.29878267 -0.4049736  -0.4773765  -0.52323168 -0.54495255
 -0.54495255 -0.52805854 -0.49668395 -0.45565563 -0.40738703 -0.35670499
 -0.3011961  -0.24810063 -0.19259173 -0.13708284 -0.08157394 -0.02606505
  0.03185728  0.0970199   0.16700937  0.25147943  0.34801664  0.46627473
  0.60384025  0.76795351  0.95620107  1.17099636  1.41233939  1.67298985
  1.95536119  2.24738626  2.54906504  2.84833039  3.14276888  3.42514022
  3.68579069  3.92230685  4.12744842  4.29638854  4.42912721  4.51842413
  4.56669273  4.57151959  4.53773157  4.46774209  4.36879145  4.24329308
  4.10331412  3.95126802  3.79439505  3.64234894  3.49271627  3.35032388
  3.21758522  3.09450028  2.97865562  2.87246469  2.77110062  2.67456341
  2.58767992  2.50562329  2.42839352  2.36081748  2.30289515  2.25221312
  2.20877137  2.17739678  2.15567591  2.14360875  2.13878189  2.14602218
  2.16050277  2.18463707  2.21359823  2.25221312  2.29324143  2.3390966
  2.38977864  2.43804725  2.48872928  2.53458446  2.5780262   2.61664108
  2.64560225  2.66973655  2.68421713  2.68663056  2.6818037   2.66490969
  2.64077539  2.60457393]","[-3.27994475 -2.95518673 -2.61930686 -2.27897826 -1.93420091 -1.58497483
 -1.23574874 -0.88652265 -0.5350722  -0.18139737  0.17227745  0.52595228
  0.87962711  1.2355263   1.58920113  1.94065158  2.2876533   2.62798191
  2.95718866  3.27527357  3.57778789  3.86028287  4.12275853  4.36076612
  4.57430564  4.76115271  4.92130735  5.05476955  5.16376368  5.243841
  5.29945025  5.32836706  5.33059143  5.30834773  5.26386033  5.19712923
  5.10815443  5.00138467  4.87459558  4.73446027  4.58097875  4.41637537
  4.24065014  4.06047617  3.87807783  3.69123076  3.50660805  3.32643408
  3.15515759  2.99277858  2.84374579  2.71250797  2.60351384  2.51453904
  2.45003231  2.40999365  2.38997432  2.38774995  2.3988718   2.41666676
  2.43891046  2.45670542  2.47005164  2.47227601  2.46782727  2.45225668
  2.43223735  2.40776928  2.38107684  2.3543844   2.32991633  2.30767263
  2.28987767  2.27653145  2.2654096   2.25651212  2.24761464  2.24094153
  2.23426842  2.22537094  2.21202472  2.19645413  2.17421043  2.14751799
  2.11192807  2.06744067  2.01628016  1.95622217  1.89171545  1.81831124
  1.74490703  1.66927845  1.5914255   1.51802129  1.44461708  1.37121287
  1.30003303  1.22662882  1.15100024  1.07092292  0.9841725   0.89297333
  0.79510105  0.69278003  0.5837859   0.47034303  0.35467579  0.23455981
  0.11221947 -0.01012088 -0.13023686 -0.25257721 -0.37046882 -0.48613606
 -0.59513019 -0.69967558 -0.79309911 -0.87762517 -0.95102938 -1.008863
 -1.05557477 -1.08671595 -1.10451091 -1.10673528 -1.0978378  -1.08004284
 -1.0533504  -1.02443359 -0.99551678 -0.97327308 -0.95992686 -0.9643756
 -0.98439493 -1.02665796 -1.09338906 -1.18013949 -1.28913362 -1.41814708
 -1.56273113 -1.72066139]",3.6809034917508883,3.932130023322516,4.14348,0.020659999999999457
025,1,1,csp,58a.png,1,1,116,323,119,1,1,298,pos_feedback_onset,2,"[-0.55864391 -0.62030942 -0.65456804 -0.66598758 -0.65456804 -0.61802552
 -0.55864391 -0.47642322 -0.37821517 -0.25945195 -0.12698529  0.01690092
  0.16992276  0.32751241  0.48738598  0.64269172  0.79342965  0.93046414
  1.05151126  1.15200322  1.22508827  1.27305034  1.2890377   1.27305034
  1.22737218  1.15200322  1.05151126  0.93046414  0.79114575  0.63812391
  0.47596644  0.31152506  0.14479977 -0.0173577  -0.17494736 -0.32340138
 -0.46043586 -0.5837669  -0.69111057 -0.7847508  -0.86011977 -0.91950138
 -0.96517954 -0.99715425 -1.01770942 -1.02912896 -1.03598069 -1.0382646
 -1.0405485  -1.04283241 -1.05196804 -1.06567149 -1.09307839 -1.13418873
 -1.19128643 -1.27122322 -1.37399908 -1.49961402 -1.64806804 -1.81936115
 -2.01120942 -2.21676114 -2.42916459 -2.64613586 -2.86082321 -3.06637494
 -3.26279103 -3.44321976 -3.60994505 -3.76068298 -3.90228528 -4.03246804
 -4.15808298 -4.27913011 -4.40017723 -4.52122436 -4.63998758 -4.7610347
 -4.87979792 -4.99627723 -5.10590482 -5.21096459 -5.30688872 -5.39367723
 -5.4713301  -5.53984734 -5.60151286 -5.65404275 -5.69972091 -5.74083125
 -5.77508987 -5.80478068 -5.82990366 -5.84817493 -5.85959447 -5.86187838
 -5.85731056 -5.8390393  -5.80934849 -5.76823815 -5.71114045 -5.63805539
 -5.55126688 -5.44620711 -5.32287608 -5.18355769 -5.02825194 -4.85239102
 -4.66282666 -4.45499102 -4.23801976 -4.00962896 -3.77667034 -3.54142781
 -3.3107531  -3.08921402 -2.87909448 -2.68496229 -2.50910137 -2.35836344
 -2.23046459 -2.12540482 -2.04546804 -1.98837034 -1.95411172 -1.93812436
 -1.94040827 -1.95867954 -1.98608643 -2.02262896 -2.06602321 -2.11398528
 -2.16194735 -2.20990942 -2.25558758 -2.29669793 -2.33552436 -2.36749908
 -2.39490597 -2.41546114 -2.43373241 -2.44743586 -2.4588554  -2.47255884
 -2.4885462  -2.51138528 -2.54335999 -2.58675425 -2.64613586 -2.71922091
 -2.81057723 -2.915637   -3.03668413 -3.1691508  -3.3107531  -3.45920712
 -3.60766114 -3.75611516 -3.89543355 -4.0233324  -4.13752781 -4.23573585
 -4.31338873 -4.37048643 -4.40474505 -4.4184485  -4.40931286 -4.37962206
 -4.32937608 -4.26314275 -4.17863815 -4.08271401 -3.97308643 -3.8520393
 -3.72414045 -3.58938988 -3.45235539 -3.3107531  -3.1691508  -3.0275485
 -2.89051402 -2.75576344 -2.62558068 -2.49996574 -2.37663471 -2.25787149
 -2.14139218 -2.02262896 -1.90386574 -1.78510252 -1.65948758 -1.53158873
 -1.40140597 -1.26437149 -1.12733701 -0.98573471 -0.84413241 -0.6979623
 -0.55179218 -0.40105425 -0.24803241 -0.09044276  0.07171471  0.23844
  0.41201701  0.58559402  0.75917103  0.92361241  1.07663425  1.21138482
  1.3187285   1.39409747  1.4329239   1.43064     1.39181356  1.31416069
  1.19996528  1.05836299  0.8916377   0.70435724  0.50794115  0.30238942
  0.0968377  -0.10414621 -0.29827839 -0.47870713 -0.6431485  -0.78703471
 -0.91264965 -1.01314161 -1.09307839 -1.15017609 -1.18443471 -1.20042207
 -1.19813816 -1.17986689 -1.14560827 -1.09993011 -1.04283241 -0.98116689
 -0.91493356 -0.84641632 -0.78246689 -0.72536919 -0.67512322 -0.63858069
 -0.61802552 -0.6134577  -0.62716115 -0.65913586 -0.70709793 -0.77333126
 -0.85326804 -0.94462437 -1.04740023 -1.15931172 -1.27807494 -1.39912207
 -1.5224531  -1.64578413]","[-1.08409673e+00 -9.61938490e-01 -8.30560764e-01 -6.94573293e-01
 -5.49366333e-01 -4.01854500e-01 -2.52037795e-01 -1.06830835e-01
  3.14615081e-02  1.55924617e-01  2.61948747e-01  3.51838770e-01
  4.18680069e-01  4.67082389e-01  4.97045730e-01  5.15484709e-01
  5.27009071e-01  5.36228560e-01  5.50057795e-01  5.68496774e-01
  6.00764987e-01  6.44557562e-01  6.99874500e-01  7.64410926e-01
  8.35861970e-01  9.09617887e-01  9.76459186e-01  1.03638587e+00
  1.08017844e+00  1.11014178e+00  1.11936127e+00  1.11014178e+00
  1.08478819e+00  1.04099561e+00  9.81068931e-01  9.11922759e-01
  8.33557098e-01  7.48276820e-01  6.56081924e-01  5.61582157e-01
  4.64777516e-01  3.65668004e-01  2.66558491e-01  1.67448979e-01
  6.83394662e-02 -3.30749187e-02 -1.32184431e-01 -2.31293944e-01
 -3.32708329e-01 -4.31817841e-01 -5.28622481e-01 -6.25427122e-01
 -7.19926889e-01 -8.12121785e-01 -8.97402063e-01 -9.75767724e-01
 -1.04721877e+00 -1.10484058e+00 -1.15093803e+00 -1.17859649e+00
 -1.19242573e+00 -1.18551111e+00 -1.16476726e+00 -1.12788930e+00
 -1.08179185e+00 -1.03108466e+00 -9.80377469e-01 -9.36584894e-01
 -9.08926425e-01 -8.99706935e-01 -9.15841042e-01 -9.57328745e-01
 -1.02417004e+00 -1.11866981e+00 -1.23160856e+00 -1.36298628e+00
 -1.50358350e+00 -1.64648559e+00 -1.78708280e+00 -1.91846053e+00
 -2.03370415e+00 -2.12820392e+00 -2.19965496e+00 -2.24805728e+00
 -2.27341088e+00 -2.27341088e+00 -2.25036215e+00 -2.20887445e+00
 -2.15125264e+00 -2.07749672e+00 -1.98991157e+00 -1.89310693e+00
 -1.78477793e+00 -1.66492457e+00 -1.53815659e+00 -1.39986424e+00
 -1.25465728e+00 -1.10253571e+00 -9.48109256e-01 -7.91377933e-01
 -6.41561228e-01 -4.98659140e-01 -3.67281415e-01 -2.54342668e-01
 -1.62147772e-01 -8.83918560e-02 -3.53797911e-02 -3.11157772e-03
  1.53274014e-02  1.99371461e-02  1.99371461e-02  1.30225290e-02
  8.41278421e-03  3.80303944e-03  1.49816705e-03  1.49816705e-03
  1.49816705e-03 -3.11157772e-03 -1.69408120e-02 -4.45992806e-02
 -8.83918560e-02 -1.50623410e-01 -2.35903689e-01 -3.41927818e-01
 -4.66390927e-01 -6.04683270e-01 -7.56804848e-01 -9.11231297e-01
 -1.06796262e+00 -1.22238907e+00 -1.36529116e+00 -1.49436401e+00
 -1.61191250e+00 -1.71332689e+00 -1.80091204e+00 -1.87466795e+00
 -1.93689951e+00 -1.99221645e+00 -2.04292364e+00 -2.08902109e+00]",0.10574494228565348,0.5642903816522729,4.37846,-0.15129500000000018
025,1,1,csp,18a.png,1,1,176,41,176,1,1,424,pos_feedback_onset,3,"[ 1.46973285e+00  1.34804608e+00  1.21662436e+00  1.07546770e+00
  9.24576104e-01  7.71250770e-01  6.13057964e-01  4.54865159e-01
  2.96672353e-01  1.38479548e-01 -2.21469928e-02 -1.82773534e-01
 -3.48267545e-01 -5.21062764e-01 -7.03592924e-01 -8.93424290e-01
 -1.09299060e+00 -1.29985811e+00 -1.51402683e+00 -1.73062929e+00
 -1.94479801e+00 -2.15409926e+00 -2.35366557e+00 -2.53862947e+00
 -2.70899095e+00 -2.86231628e+00 -2.99860547e+00 -3.11299104e+00
 -3.20547298e+00 -3.27848505e+00 -3.32715976e+00 -3.34906338e+00
 -3.33932844e+00 -3.29795493e+00 -3.21764166e+00 -3.10082236e+00
 -2.94262955e+00 -2.74793072e+00 -2.51915958e+00 -2.26118362e+00
 -1.98373778e+00 -1.69655699e+00 -1.40937621e+00 -1.13193037e+00
 -8.78821877e-01 -6.50050743e-01 -4.55351906e-01 -2.97159101e-01
 -1.75472327e-01 -8.78578504e-02 -2.70144637e-02  9.49156832e-03
  2.65277166e-02  3.38289230e-02  3.38289230e-02  3.38289230e-02
  3.13951875e-02  3.38289230e-02  3.86963939e-02  4.11301294e-02
  4.35638649e-02  3.86963939e-02  2.40939811e-02 -5.11084448e-03
 -5.13518184e-02 -1.14628941e-01 -1.97375946e-01 -2.99592836e-01
 -4.13978403e-01 -5.38098912e-01 -6.71954363e-01 -8.05809813e-01
 -9.39665264e-01 -1.06865324e+00 -1.19277375e+00 -1.31202679e+00
 -1.42641236e+00 -1.53349672e+00 -1.63327987e+00 -1.73062929e+00
 -1.82311124e+00 -1.90829198e+00 -1.98860525e+00 -2.06161731e+00
 -2.12489444e+00 -2.18087035e+00 -2.22224386e+00 -2.25631615e+00
 -2.27578604e+00 -2.28795471e+00 -2.29038845e+00 -2.28795471e+00
 -2.28065351e+00 -2.27091856e+00 -2.26361736e+00 -2.25631615e+00
 -2.25388242e+00 -2.25144868e+00 -2.25144868e+00 -2.25144868e+00
 -2.24901495e+00 -2.24414747e+00 -2.23684627e+00 -2.22467759e+00
 -2.20764144e+00 -2.19060529e+00 -2.17356915e+00 -2.15896673e+00
 -2.14679806e+00 -2.14436432e+00 -2.14923179e+00 -2.16140047e+00
 -2.18330409e+00 -2.21250891e+00 -2.24658121e+00 -2.28552098e+00
 -2.32932822e+00 -2.37800293e+00 -2.42424390e+00 -2.47535234e+00
 -2.52402705e+00 -2.57513550e+00 -2.62381021e+00 -2.67005118e+00
 -2.71385842e+00 -2.75279819e+00 -2.78687048e+00 -2.80877410e+00
 -2.82337652e+00 -2.82094278e+00 -2.79903916e+00 -2.76009939e+00
 -2.69682227e+00 -2.60920779e+00 -2.49725596e+00 -2.36340051e+00
 -2.20764144e+00 -2.03241249e+00 -1.84258112e+00 -1.64058108e+00
 -1.43127983e+00 -1.21954484e+00 -1.01024359e+00 -8.05809813e-01
 -6.11110976e-01 -4.33448287e-01 -2.72821746e-01 -1.34098824e-01
 -1.97132573e-02  7.03349550e-02  1.38479548e-01  1.87154257e-01
  2.18792819e-01  2.40696438e-01  2.60166321e-01  2.82069941e-01
  3.08841031e-01  3.50214534e-01  4.06190450e-01  4.79202514e-01
  5.71684461e-01  6.78768822e-01  8.02889331e-01  9.39178517e-01
  1.08520264e+00  1.23852798e+00  1.39672078e+00  1.55978106e+00
  1.72040760e+00  1.88346788e+00  2.04409442e+00  2.20228722e+00
  2.35804629e+00  2.51380536e+00  2.66956443e+00  2.82532350e+00
  2.98351631e+00  3.14414285e+00  3.31207060e+00  3.48243208e+00
  3.66252851e+00  3.84992614e+00  4.04705871e+00  4.25635996e+00
  4.47782989e+00  4.71390223e+00  4.96944445e+00  5.24445656e+00
  5.53893855e+00  5.85532416e+00  6.19117966e+00  6.54650503e+00
  6.91399909e+00  7.29122809e+00  7.66845708e+00  8.03595114e+00
  8.38640905e+00  8.71009586e+00  8.99484291e+00  9.23821646e+00
  9.43048156e+00  9.57163822e+00  9.66168643e+00  9.70062620e+00
  9.69575873e+00  9.65195149e+00  9.57893943e+00  9.48159001e+00
  9.37207191e+00  9.25525261e+00  9.13599957e+00  9.01918027e+00
  8.90722844e+00  8.80257781e+00  8.70522839e+00  8.61518018e+00
  8.52999944e+00  8.44968617e+00  8.37424037e+00  8.30122831e+00
  8.23064998e+00  8.16250538e+00  8.09679453e+00  8.03595114e+00
  7.97510775e+00  7.91669810e+00  7.86315592e+00  7.80961374e+00
  7.75850530e+00  7.70496312e+00  7.64411973e+00  7.57840887e+00
  7.49566187e+00  7.40074618e+00  7.28392688e+00  7.14520396e+00
  6.98214368e+00  6.79961352e+00  6.59517974e+00  6.37614355e+00
  6.14493868e+00  5.90886634e+00  5.67036027e+00  5.43672166e+00
  5.21281800e+00  5.00351675e+00  4.80881791e+00  4.63602269e+00
  4.48269736e+00  4.34640817e+00  4.23202260e+00  4.13467319e+00
  4.05192618e+00  3.98134785e+00  3.92050446e+00  3.86939602e+00
  3.82558878e+00  3.78908275e+00  3.75501045e+00  3.72580563e+00]","[-2.61916642 -2.37909186 -2.12724893 -1.86363765 -1.58590433 -1.29875632
 -1.00454729 -0.70092358 -0.39259252 -0.08426146  0.21936225  0.51592495
  0.80307295  1.0784526   1.33735654  1.58213845  1.81279833  2.03168984
  2.238813    2.43652146  2.62716891  2.806048    2.97315872  3.12379374
  3.25089204  3.35445362  3.42506378  3.4580152   3.45566152  3.4156491
  3.34033159  3.23206266  3.09790335  2.94256098  2.77074291  2.59186383
  2.40592372  2.22469096  2.04581188  1.87870115  1.72335878  1.5868458
  1.47151586  1.38207632  1.32088084  1.2902831   1.28792943  1.31381982
  1.36560061  1.44091812  1.52800399  1.62685822  1.72571246  1.82221302
  1.90459154  1.97049437  2.01521414  2.03639719  2.03168984  2.0010921
  1.94931132  1.87634748  1.78926161  1.69276105  1.59390681  1.49740625
  1.41032038  1.33500287  1.27616107  1.23614864  1.21261192  1.2055509
  1.21496559  1.23614864  1.26439271  1.29969779  1.33735654  1.3750153
  1.41032038  1.44562546  1.4762232   1.50682094  1.53271134  1.55860173
  1.58213845  1.60567517  1.6292119   1.65039495  1.67393167  1.69511472
  1.71629777  1.73983449  1.76101754  1.78220059  1.80573731  1.82692036
  1.84810341  1.87164013  1.89517685  1.9163599   1.93989663  1.96578702
  1.99167742  2.02227515  2.05522656  2.09053165  2.13054407  2.17526385
  2.21998362  2.26470339  2.30236215  2.33060621  2.33766723  2.31883785
  2.26705706  2.17761752  2.0434582   1.86928646  1.65039495  1.39855202
  1.11846503  0.81954866  0.5112176   0.1981792  -0.10779819 -0.40671456
 -0.69621624 -0.97394956 -1.24226819 -1.50587947 -1.76713709 -2.03074837
 -2.299067   -2.57209298 -2.85453364 -3.14168165 -3.43589068 -3.72774603
 -4.01960138 -4.30439572]",7.9940908902847765,2.034043514691617,4.10891,-0.1452050000000007
025,1,1,csm,3b.png,1,1,68,329,68,1,1,352,neu_feedback_onset,4,"[ 7.08174162e-01  6.03045320e-01  5.03172920e-01  4.11185183e-01
  3.27082110e-01  2.50863699e-01  1.82529952e-01  1.22080868e-01
  6.95164468e-02  1.95802468e-02 -2.50995110e-02 -7.24074899e-02
 -1.22343690e-01 -1.80164553e-01 -2.45870079e-01 -3.19460269e-01
 -4.06191563e-01 -5.00807521e-01 -6.05936363e-01 -7.18949868e-01
 -8.34591594e-01 -9.52861541e-01 -1.06850327e+00 -1.17888855e+00
 -1.27876095e+00 -1.36549225e+00 -1.43645421e+00 -1.49164686e+00
 -1.52581373e+00 -1.54158306e+00 -1.53632661e+00 -1.50741618e+00
 -1.45485176e+00 -1.37863335e+00 -1.27876095e+00 -1.15260634e+00
 -1.00279774e+00 -8.31963373e-01 -6.42731458e-01 -4.35101995e-01
 -2.16959648e-01  6.43914157e-03  2.32466152e-01  4.50608499e-01
  6.60866183e-01  8.55354540e-01  1.02881713e+00  1.18388217e+00
  1.31792145e+00  1.43356317e+00  1.53343557e+00  1.62279509e+00
  1.70426994e+00  1.78837301e+00  1.88036075e+00  1.98286137e+00
  2.10375954e+00  2.24305525e+00  2.40337674e+00  2.58472399e+00
  2.78446879e+00  3.00523936e+00  3.23652281e+00  3.47569093e+00
  3.72011548e+00  3.96191182e+00  4.19582349e+00  4.41396584e+00
  4.61896708e+00  4.80031434e+00  4.95800760e+00  5.09204687e+00
  5.19717571e+00  5.27865057e+00  5.33647143e+00  5.37063830e+00
  5.38377941e+00  5.37326652e+00  5.34698431e+00  5.29967633e+00
  5.23397081e+00  5.15249596e+00  5.05262356e+00  4.93961005e+00
  4.81608366e+00  4.68467261e+00  4.55326156e+00  4.42447873e+00
  4.30620878e+00  4.20370816e+00  4.12486153e+00  4.06704066e+00
  4.03813023e+00  4.03287379e+00  4.05389956e+00  4.09595109e+00
  4.15640018e+00  4.22736215e+00  4.30883700e+00  4.39294007e+00
  4.47704315e+00  4.56114622e+00  4.63999285e+00  4.71358304e+00
  4.78454501e+00  4.85025054e+00  4.91069962e+00  4.96589226e+00
  5.01845668e+00  5.06313644e+00  5.09993153e+00  5.12884197e+00
  5.14723951e+00  5.15249596e+00  5.14461129e+00  5.12358552e+00
  5.08941865e+00  5.04473889e+00  4.99480269e+00  4.94223827e+00
  4.89230207e+00  4.84762231e+00  4.81345544e+00  4.78980145e+00
  4.77928857e+00  4.78191679e+00  4.79505789e+00  4.81871188e+00
  4.84762231e+00  4.88178919e+00  4.91858428e+00  4.95275116e+00
  4.98428981e+00  5.01320024e+00  5.03685423e+00  5.05525178e+00
  5.06576466e+00  5.07364932e+00  5.07364932e+00  5.07102110e+00
  5.06313644e+00  5.05525178e+00  5.04473889e+00  5.03422601e+00
  5.02634135e+00  5.02108490e+00  5.02108490e+00  5.02634135e+00
  5.04473889e+00  5.07364932e+00  5.11570086e+00  5.17352172e+00
  5.24711191e+00  5.33384321e+00  5.43371561e+00  5.53884445e+00
  5.64922973e+00  5.75698680e+00  5.85423098e+00  5.94096227e+00
  6.00666780e+00  6.04871933e+00  6.06974510e+00  6.06711688e+00
  6.04083467e+00  5.99878313e+00  5.94621871e+00  5.88839785e+00
  5.83320521e+00  5.78589723e+00  5.75173036e+00  5.73858925e+00
  5.74910213e+00  5.78326901e+00  5.84108987e+00  5.92256472e+00
  6.02243712e+00  6.14070707e+00  6.26686168e+00  6.40352918e+00
  6.54282489e+00  6.68212061e+00  6.82141632e+00  6.95545560e+00
  7.08423843e+00  7.20513660e+00  7.32340654e+00  7.43379183e+00
  7.53892067e+00  7.63879307e+00  7.73340903e+00  7.82276854e+00
  7.90949984e+00  7.99360291e+00  8.07244954e+00  8.14866795e+00
  8.22225814e+00  8.29059189e+00  8.35366919e+00  8.40886184e+00
  8.44828515e+00  8.47456736e+00  8.48245203e+00  8.47193914e+00
  8.43777227e+00  8.38257963e+00  8.30636121e+00  8.20911704e+00
  8.09610353e+00  7.96732070e+00  7.82539676e+00  7.67821638e+00
  7.52315134e+00  7.36282986e+00  7.19988015e+00  7.03955867e+00
  6.87660896e+00  6.71365926e+00  6.55333778e+00  6.39564451e+00
  6.23795125e+00  6.08288621e+00  5.93044939e+00  5.77801257e+00
  5.63083219e+00  5.48102359e+00  5.33384321e+00  5.18666283e+00
  5.03685423e+00  4.88441741e+00  4.72672415e+00  4.56114622e+00
  4.38768363e+00  4.20370816e+00  4.01184802e+00  3.80947500e+00
  3.59921732e+00  3.38370319e+00  3.16030440e+00  2.93690561e+00
  2.71087860e+00  2.48485159e+00  2.26670924e+00  2.05119512e+00
  1.84619388e+00  1.65433374e+00  1.47298649e+00  1.31003678e+00
  1.16022818e+00  1.03144535e+00  9.15803625e-01  8.18559446e-01
  7.34456372e-01  6.63494404e-01  6.03045320e-01  5.50480899e-01
  5.03172920e-01  4.61121383e-01  4.21698067e-01  3.90159415e-01]","[ 1.78245973  1.63242517  1.4700927   1.30038148  1.12329151  0.93390363
  0.73467741  0.52561287  0.30916957  0.08534753 -0.14339368 -0.36967531
 -0.58857819 -0.79764274 -0.9894902  -1.15920142 -1.30431681 -1.42483638
 -1.52321969 -1.59700718 -1.65357759 -1.70030966 -1.73720341 -1.77163757
 -1.80853131 -1.84788464 -1.89461671 -1.95118712 -2.01021711 -2.07662585
 -2.14795375 -2.22174124 -2.29798831 -2.37177579 -2.44556328 -2.51689119
 -2.58575951 -2.64970866 -2.71119824 -2.76530906 -2.8169603  -2.85877321
 -2.89566695 -2.92518195 -2.94731819 -2.96453527 -2.97437361 -2.97929277
 -2.98175235 -2.98175235 -2.97683319 -2.96699486 -2.95469694 -2.93502028
 -2.90550528 -2.86861154 -2.8169603  -2.75301114 -2.67430449 -2.58084034
 -2.47015911 -2.34963955 -2.21682207 -2.07908543 -1.93642962 -1.79869298
 -1.6658755  -1.54781552 -1.44451304 -1.3633468  -1.30185723 -1.26004432
 -1.23790808 -1.23298891 -1.23544849 -1.24036766 -1.24282724 -1.23544849
 -1.21085266 -1.16903975 -1.10755018 -1.02392436 -0.92308146 -0.8025619
 -0.67220401 -0.53446737 -0.39181156 -0.24915575 -0.11141911  0.01647921
  0.12962002  0.22062459  0.28949291  0.32638665  0.33130582  0.29933124
  0.22554375  0.10994336 -0.04746995 -0.24669617 -0.48527571 -0.75582983
 -1.05835852 -1.3781043  -1.71260758 -2.04711085 -2.37177579 -2.67676407
 -2.95223736 -3.19327648 -3.3925027  -3.54991601 -3.66305682 -3.73684431
 -3.77619763 -3.78357638 -3.7663593  -3.73192514 -3.68273348 -3.62862266
 -3.56959267 -3.5081031  -3.44907311 -3.39496228 -3.34331104 -3.29657897
 -3.25968522 -3.22525106 -3.20065523 -3.18343815 -3.1760594  -3.17851899
 -3.19327648 -3.22279148 -3.26460439 -3.32609396 -3.40234103 -3.49580518
 -3.60648641 -3.73438472]",7.643063927534692,-7.638334409421077e-15,3.804855,0.14532999999999952
025,1,1,csp,59a.png,1,1,148,303,145,1,0,407,neg_feedback_onset,5,"[-0.45099453 -0.47416702 -0.47996014 -0.47127046 -0.44520141 -0.401753
 -0.34671834 -0.28009744 -0.19899373 -0.11209691 -0.01940696  0.07617955
  0.17176606  0.26735257  0.35714596  0.43824967  0.51066369  0.57438803
  0.62362956  0.66128486  0.6873539   0.69894015  0.70183671  0.69314703
  0.67576766  0.65259517  0.62362956  0.59176739  0.55700866  0.52224993
  0.48459464  0.44404279  0.40349094  0.36293908  0.32238723  0.28473194
  0.24997321  0.22390416  0.20942135  0.20942135  0.23259384  0.28473194
  0.36583564  0.48169808  0.64100893  0.84376819  1.08997587  1.37963196
  1.71563303  2.08639283  2.49191135  2.92060237  3.37246587  3.83301906
  4.2964688   4.75702199  5.20598893  5.63757651  6.04599159  6.4312342
  6.78461463  7.10902945  7.40447866  7.66227258  7.88820433  8.07937736
  8.23868821  8.36324032  8.45013715  8.50517181  8.5283443   8.51675805
  8.4762062   8.40668874  8.30820567  8.18365355  8.0388255   7.87372153
  7.68834163  7.49137549  7.27992654  7.05978791  6.83385616  6.60502785
  6.37619954  6.14737123  5.92433604  5.70999053  5.50723126  5.32185137
  5.15385083  5.00612623  4.88736723  4.79178072  4.72515982  4.68750453
  4.67302172  4.68460796  4.7193667   4.77440135  4.84681538  4.93660876
  5.0379884   5.14805771  5.26681671  5.39136883  5.51592095  5.64047307
  5.76212862  5.8750945   5.98226725  6.07785376  6.16475059  6.24006118
  6.30957864  6.37040642  6.42833763  6.48626885  6.54420007  6.60502785
  6.66585563  6.72957997  6.79040775  6.84833897  6.90337362  6.94682204
  6.97868421  6.99606357  6.99896013  6.98737389  6.9642014   6.92944267
  6.88599426  6.83964928  6.79909743  6.7643387   6.74695934  6.74406277
  6.76723526  6.8164768   6.89178738  6.99316701  7.12351225  7.27702998
  7.4537202   7.65068634  7.86503185  8.09675672  8.3429644   8.60075832
  8.87013848  9.15400145  9.44655411  9.74489988 10.04324565 10.34159143
 10.62835096 10.89773112 11.13524912 11.33800838 11.49731923 11.60159543
 11.65083696 11.64214728 11.57842294 11.46835362 11.31773246 11.13814568
 10.94117954 10.74131683 10.55014381 10.3734536  10.22283243 10.10407343
 10.01428005  9.95634883  9.92738322  9.92448666  9.94476258  9.98241788
 10.03745253 10.10407343 10.18228058 10.27207397 10.36766048 10.47193667
 10.58490255 10.69497186 10.80793774 10.91221393 11.00780044 11.08600758
 11.14683536 11.18449065 11.1960769  11.18738722 11.14973192 11.09469727
 11.01649012 10.92669673 10.82242054 10.7065581  10.59069567 10.46904011
 10.34738455 10.23152211 10.1214528  10.02007317  9.93317634  9.85786576
  9.79703798  9.750693    9.72172739  9.70434803  9.69855491  9.70434803
  9.71303771  9.72462395  9.7362102   9.750693    9.76227925  9.77096893
  9.78255517  9.79124485  9.79993454  9.81152078  9.82310703  9.83469327
  9.84917607  9.86365888  9.87814168  9.89552105  9.91579697  9.9360729
  9.95924539  9.98531444 10.01138348 10.04034909 10.06641814 10.09248719
 10.11276312 10.1214528  10.11565968 10.08669407 10.03165941  9.94476258
  9.82021046  9.65800305  9.45814035  9.22641548  8.96572499  8.68475859
  8.39510249  8.10254984  7.82158343  7.55799639  7.31758184  7.10613289
  6.92364955  6.7643387 ]","[-1.80653804 -1.68366069 -1.53668973 -1.36803454 -1.18251383 -0.9801276
 -0.76810393 -0.54885218 -0.32237235 -0.09589252  0.12576859  0.34742969
  0.55945336  0.76424895  0.96181646  1.14974654  1.33285789  1.50874116
  1.68462443  1.85809834  2.03880033  2.22191168  2.41225111  2.60981862
  2.80979549  3.00977236  3.20493051  3.39045122  3.55669706  3.69643993
  3.80486112  3.87955128  3.91569168  3.91328232  3.87473256  3.80245176
  3.70125865  3.5783813   3.43622906  3.28443939  3.127831    2.97122261
  2.81702357  2.67246198  2.53753783  2.41706983  2.30623928  2.21227424
  2.13035601  2.06048457  2.00265993  1.95447274  1.91592298  1.88219194
  1.85327962  1.82918602  1.80750178  1.7882269   1.76895202  1.74967715
  1.73281163  1.71112739  1.68703379  1.65812147  1.61957171  1.56656579
  1.494285    1.3979106   1.27744261  1.12565294  0.94976967  0.7497928
  0.53535977  0.31369866  0.09926563 -0.10071124 -0.27177579 -0.40669995
 -0.50307434 -0.55848962 -0.5777645  -0.56089898 -0.51512114 -0.45006843
 -0.37055955 -0.28623195 -0.20431372 -0.1272142  -0.06216148 -0.01397429
  0.01493803  0.02216611  0.00530059 -0.03565853 -0.1031206  -0.19226692
 -0.30309747 -0.43320291 -0.58017386 -0.73919161 -0.91025616 -1.08613943
 -1.26443207 -1.44031534 -1.61619861 -1.7848538  -1.94869027 -2.1028893
 -2.2474509  -2.38478441 -2.51248048 -2.63053912 -2.73655095 -2.83051599
 -2.91002486 -2.97266822 -3.0160367  -3.0401303  -3.04253966 -3.02326478
 -2.98471502 -2.92448102 -2.84738151 -2.75582583 -2.65222336 -2.54380216
 -2.43297161 -2.31973169 -2.2113105  -2.10529866 -2.00892427 -1.92218731
 -1.84267844 -1.77521636 -1.71739172 -1.67161389 -1.63547349 -1.61619861
 -1.60897053 -1.61860797]",9.968224726781902,2.629274204429369,3.4523699999999997,0.4068349999999996
025,1,1,csm,36b.png,1,1,152,26,156,1,1,268,neu_feedback_onset,6,"[  1.23992307   1.19032118   1.11839845   1.02663497   0.91007055
   0.77366537   0.61989953   0.45373322   0.27764654   0.09659967
  -0.08196711  -0.2580538   -0.4267002   -0.58542622  -0.73423187
  -0.87559724  -1.00704223  -1.13104693  -1.24761136  -1.3592156
  -1.46585964  -1.5700236   -1.66674727  -1.76099085  -1.84779414
  -1.92715715  -1.99907989  -2.06356233  -2.11564431  -2.1627661
  -2.2024476   -2.23964902  -2.27189024  -2.30909165  -2.34629307
  -2.39093476  -2.44301674  -2.502539    -2.56454135  -2.63150389
  -2.69350625  -2.7530285   -2.80263039  -2.83487161  -2.84975218
  -2.84479199  -2.81503086  -2.76294888  -2.68606596  -2.5868622
  -2.47029777  -2.33637269  -2.19252723  -2.04124149  -1.88995574
  -1.74363019  -1.60474492  -1.48074021  -1.37409616  -1.28481277
  -1.21537014  -1.16328816  -1.12360665  -1.09384552  -1.06656449
  -1.03432326  -0.99712185  -0.94503987  -0.87807733  -0.79375413
  -0.69207027  -0.58046603  -0.45398123  -0.32253624  -0.18613107
  -0.04724579   0.08915938   0.22308447   0.35204936   0.47605407
   0.5901384    0.69182226   0.77862556   0.8455881    0.8877497
   0.90759045   0.89767008   0.86046866   0.79598622   0.70918292
   0.60253887   0.47853417   0.34212899   0.19828353   0.04451769
  -0.11668843  -0.28533483  -0.46390161  -0.65486886  -0.86071667
  -1.08392515  -1.32449428  -1.58242407  -1.85771452  -2.14788553
  -2.44797693  -2.7555086   -3.06552037  -3.37553214  -3.68058371
  -3.98067511  -4.27332622  -4.55605695  -4.82638721  -5.08679709
  -5.33232642  -5.56793536  -5.78866374  -5.99947174  -6.19787927
  -6.38636643  -6.5674133   -6.74101989  -6.90966629  -7.07831269
  -7.24695909  -7.41808559  -7.59169218  -7.77273905  -7.95874611
  -8.15219346  -8.34812089  -8.54900852  -8.75237624  -8.95822405
  -9.16407187  -9.36743959  -9.56584712  -9.75681437  -9.94034134
 -10.11394793 -10.27515404 -10.42395969 -10.56036487 -10.68188948
 -10.79101363 -10.89269749 -10.98694106 -11.07870455 -11.16798794
 -11.25727133 -11.3515149  -11.44327839 -11.53504187 -11.61936507
 -11.6912878  -11.74584987 -11.77313091 -11.76817072 -11.72600912
 -11.63672573 -11.50032055 -11.31431349 -11.08118464 -10.8034141
 -10.48596205 -10.13626877  -9.76177456  -9.36495949  -8.95822405
  -8.54404833  -8.12739252  -7.71321679  -7.29904107  -6.88982554
  -6.48557019  -6.08379494  -5.68201969  -5.28024444  -4.87846919
  -4.47421384  -4.06499831  -3.65082259  -3.22920658  -2.80263039
  -2.36861391  -1.92963725  -1.48074021  -1.02688298  -0.56558547
  -0.10180786   0.36692993   0.83566772   1.29944533   1.75826274
   2.20715978   2.63869616   3.05535198   3.44720686   3.81426079
   4.15899388   4.47644593   4.76909703   5.0394273    5.2923969
   5.52800584   5.74873422   5.95954222   6.16539004   6.36379757
   6.5622051    6.76061263   6.96150026   7.16486798   7.37815607
   7.59640436   7.82457302   8.06018196   8.30323119   8.55620079
   8.81909077   9.08694094   9.36471148   9.64744222   9.93761323
  10.23274443  10.53035573  10.82052675  11.10077739  11.35622708
  11.57695546  11.74808196  11.85472601  11.88448714  11.82744497
  11.67863932  11.43807019  11.10821767  10.69652204  10.22034396
   9.69456401   9.13902292   8.57356145   8.01802036   7.48232003
   6.98382111   6.52500369   6.11082797   5.73881385   5.40896132
   5.11383012   4.84597995   4.60045063   4.37476207   4.15899388
   3.95562616   3.76217881   3.57617175   3.40008507   3.23639885]","[-1.74969156 -1.52979383 -1.30758138 -1.08768364 -0.87473005 -0.6710353
 -0.47891412 -0.29836651 -0.13170717  0.02106389  0.16689081  0.30577359
  0.44234166  0.58122444  0.72242193  0.86824885  1.02101991  1.17610568
  1.33350617  1.49090665  1.64367771  1.78718992  1.92144327  2.04412306
  2.15291457  2.2478178   2.32651805  2.39364472  2.44688312  2.48854796
  2.51632451  2.53715693  2.5487305   2.55104521  2.54641578  2.53715693
  2.52326865  2.50706566  2.48623324  2.46308611  2.43762427  2.40984772
  2.38207116  2.35197989  2.31957391  2.28948264  2.25707666  2.22698539
  2.19457941  2.16448814  2.13439687  2.10199088  2.0695849   2.03486421
  1.99551409  1.95616397  1.91449913  1.86820487  1.82422532  1.77793106
  1.7316368   1.68765726  1.64367771  1.59969816  1.55803333  1.51868321
  1.48627722  1.45850067  1.43998296  1.43303882  1.44229768  1.46544481
  1.50479493  1.55803333  1.62284529  1.69460139  1.7663575   1.83579889
  1.89598143  1.93996097  1.97236696  1.98625523  1.98394052  1.97005224
  1.94227569  1.90755499  1.86589016  1.8195959   1.77561635  1.73395152
  1.69460139  1.66451013  1.64599242  1.63673357  1.641363    1.6598807
  1.68997197  1.72932209  1.77793106  1.82654004  1.8728343   1.9098697
  1.93764626  1.94921983  1.94690511  1.9260727   1.88672257  1.83116946
  1.75709865  1.66682484  1.55803333  1.42609469  1.27100891  1.08814659
  0.8775077   0.63909226  0.37058555  0.08124643 -0.22892512 -0.5460408
 -0.86778591 -1.18258688 -1.48118486 -1.7566357  -2.00893942 -2.23346658
 -2.42790248 -2.59919124 -2.74964758 -2.87927151 -2.99732188 -3.10611339
 -3.20796076 -3.30749342 -3.40471137 -3.50192931 -3.59683255 -3.69405049
 -3.79126844 -3.88617167]",8.951217788227229,2.0800589788875192,4.0321050000000005,0.251710000000001
025,1,1,csm,11b.png,1,1,224,39,228,1,1,447,neu_feedback_onset,7,"[ 0.80787168  0.61043937  0.43168308  0.27160283  0.13553461  0.02614644
 -0.0618977  -0.12059379 -0.15794585 -0.17662188 -0.17662188 -0.16594986
 -0.15260984 -0.13660182 -0.1285978  -0.13126581 -0.14994184 -0.18195789
 -0.23531797 -0.30735409 -0.39539823 -0.49945039 -0.61417457 -0.74223878
 -0.87563899 -1.01437521 -1.15044342 -1.28384363 -1.40923983 -1.52129601
 -1.61467616 -1.68671227 -1.73473635 -1.75608038 -1.74540836 -1.70805631
 -1.6386882  -1.54797605 -1.43325187 -1.30518767 -1.16645145 -1.02504722
 -0.87830699 -0.73423476 -0.59016253 -0.44609031 -0.29935007 -0.14193782
  0.02614644  0.21023873  0.41033905  0.6317834   0.86923578  1.12536418
  1.39216461  1.66963704  1.95244549  2.23525394  2.51806239  2.79286682
  3.06500325  3.32913567  3.58526408  3.83605648  4.08684887  4.33764127
  4.59110167  4.85256609  5.11936651  5.39417094  5.67164338  5.94911582
  6.21324824  6.46137263  6.68548499  6.87224529  7.01898552  7.12303768
  7.17906577  7.18973779  7.16038974  7.09368964  6.99764148  6.87758129
  6.73884507  6.58943684  6.42935658  6.26127232  6.09318805  5.91976778
  5.7463475   5.57292723  5.40217496  5.23142269  5.06867443  4.91393018
  4.76985796  4.63645774  4.52173356  4.4203494   4.33230526  4.26026915
  4.20157306  4.15354898  4.11352892  4.08151287  4.05483282  4.0388248
  4.03082078  4.03348879  4.04416081  4.06817284  4.1028569   4.14554497
  4.19356904  4.24159312  4.28161318  4.30562522  4.30562522  4.27094117
  4.19890505  4.08418087  3.92410062  3.71866429  3.4705399   3.18773145
  2.87824296  2.55274644  2.22458192  1.90175341  1.60026893  1.33080051
  1.10402015  0.92526387  0.79986767  0.73583557  0.72783155  0.77585563
  0.87723979  1.02398002  1.20807231  1.42418066  1.66696904  1.93110146
  2.2112419   2.50739037  2.81954687  3.14771139  3.49188393  3.85473251
  4.23358911  4.62845373  5.03132237  5.44486302  5.85573568  6.26127232
  6.65346894  7.02698953  7.37649808  7.69665859  7.98747105  8.24626746
  8.47037982  8.66514413  8.82255637  8.95062058  9.04666873  9.11603684
  9.1560569   9.17206493  9.17206493  9.1533889   9.12670886  9.09736081
  9.06801276  9.04133272  9.02265669  9.01198467  9.00931667  9.00931667
  9.00931667  9.00664867  8.99597665  8.9666286   8.92127253  8.85190442
  8.75585627  8.62779207  8.47304782  8.28895553  8.07551519  7.83806282
  7.58193441  7.30446197  7.01631751  6.71483304  6.41068055  6.10386007
  5.79703958  5.4928871   5.19940664  4.91126218  4.63912575  4.37766133
  4.13220495  3.90542459  3.69465225  3.50255595  3.32379966  3.16105141
  3.00630716  2.85689893  2.71015869  2.55808245  2.39533419  2.22191392
  2.03248562  1.82438129  1.59760093  1.35481255  1.09868414  0.83188372
  0.55974729  0.28494285  0.01547442 -0.24332199 -0.48611037 -0.71022272
 -0.90765504 -1.07840731 -1.22247954 -1.33720372 -1.42524786 -1.48927996
 -1.53196803 -1.55598006 -1.56131607 -1.55064406 -1.52663202 -1.48661195
 -1.43058387 -1.35587975 -1.25716359 -1.13176739 -0.98235916 -0.80360287
 -0.60083455 -0.3793902  -0.14460583  0.09284655  0.32496291  0.53840325
  0.72516355  0.87723979  0.98929597  1.05866408  1.08801212  1.07734011
  1.03198403  0.95994792]","[-4.10162914 -3.68314995 -3.23001962 -2.75023456 -2.25445667 -1.75068236
 -1.24690805 -0.75113016 -0.27667605  0.17645428  0.60026441  0.99208888
  1.3492622   1.67444985  1.96765183  2.22886813  2.46609519  2.67666752
  2.86858154  3.04450273  3.20976203  3.36435943  3.51096042  3.65223047
  3.78816957  3.91877772  4.03872398  4.15067383  4.24929632  4.33459144
  4.40389372  4.4545377   4.48652337  4.50251621  4.49985073  4.4838579
  4.4545377   4.41722108  4.37190805  4.32392955  4.2706201   4.21997612
  4.17466308  4.13201552  4.10002985  4.08137155  4.0760406   4.09203344
  4.12935005  4.19065592  4.27861651  4.3958973   4.54249829  4.72108495
  4.92899181  5.16355339  5.4247697   5.70730979  6.00584272  6.31503753
  6.62689782  6.9387581   7.2399565   7.52516206  7.78904384  8.02360542
  8.22884681  8.39677158  8.52737973  8.62067127  8.67131525  8.67931167
  8.64466053  8.5593654   8.42609178  8.23684323  7.98895428  7.68242494
  7.31192426  6.88278318  6.39766718  5.85924173  5.28083419  4.67310645
  4.0467204   3.41233794  2.79128284  2.19155152  1.62647134  1.10936967
  0.64824292  0.25375299 -0.07143466 -0.31932361 -0.49257932 -0.59120181
 -0.61785653 -0.58320539 -0.48991385 -0.34864381 -0.17272262  0.03518424
  0.2617494   0.49897646  0.74153446  0.98142699  1.2133231   1.42922637
  1.62913681  1.805058    1.95432446  2.07960167  2.17555868  2.2421955
  2.28484306  2.30350136  2.30350136  2.28484306  2.25019191  2.20487888
  2.1542349   2.09292903  2.02895769  1.95965541  1.88768765  1.81305442
  1.73309024  1.65312607  1.57049642  1.4852013   1.39990618  1.31194558
  1.22665046  1.14135534  1.05606022  0.97343057  0.89346639  0.81083675
  0.73353804  0.65357387]",8.050435951890545,6.106064483111554,3.74812,-0.02796500000000046
025,1,1,csp,17a.png,1,1,332,231,328,1,1,281,pos_feedback_onset,8,"[ 0.83075867  0.73463783  0.63577068  0.53415723  0.43529008  0.34191555
  0.24854102  0.1579128   0.07277721 -0.0151047  -0.1002403  -0.18262959
 -0.26501888 -0.34466186 -0.41606591 -0.47923103 -0.5259183  -0.5561277
 -0.56162032 -0.54514246 -0.50669413 -0.4407827  -0.3556471  -0.25677995
 -0.14143495 -0.02334363  0.09474768  0.21009269  0.31994507  0.41606591
  0.50394782  0.5835908   0.65499485  0.7263989   0.80054926  0.88293855
  0.97631308  1.08616547  1.21249571  1.35530381  1.51733608  1.6930999
  1.87984895  2.07758325  2.27531754  2.47579815  2.67627875  2.87401304
  3.06625472  3.2584964   3.44799176  3.63474082  3.82148987  4.
  4.17301751  4.33779609  4.48609681  4.61791967  4.72502575  4.81016135
  4.87058016  4.90353587  4.91452111  4.90353587  4.87058016  4.82389289
  4.76072777  4.6838311   4.59320288  4.48884312  4.36800549  4.23343632
  4.07689667  3.90662547  3.71713011  3.51390319  3.29419842  3.06625472
  2.83007209  2.58839684  2.34397528  2.09955372  1.85513217  1.61345692
  1.37178167  1.13834535  0.90765534  0.68795057  0.47648472  0.27600412
  0.09200137 -0.07277721 -0.21558531 -0.33642293 -0.43529008 -0.50669413
 -0.5561277  -0.5835908  -0.59457604 -0.59182973 -0.58084449 -0.56436663
 -0.55063508 -0.54239616 -0.54239616 -0.55063508 -0.56985925 -0.59732235
 -0.63302437 -0.67421902 -0.72090628 -0.76484724 -0.80604188 -0.84174391
 -0.87195331 -0.89117748 -0.90216272 -0.90216272 -0.89392379 -0.87744593
 -0.85272915 -0.82526605 -0.79231033 -0.75660831 -0.71541366 -0.6687264
 -0.61929283 -0.56162032 -0.49570889 -0.42430484 -0.34466186 -0.25403364
 -0.16065911 -0.06453828  0.03432887  0.13044971  0.22107793  0.30895984
  0.38860281  0.46549949  0.53415723  0.60006866  0.66598009  0.72914521
  0.79780295  0.869207    0.94884998  1.03123927  1.12186749  1.22348095
  1.33058702  1.44593203  1.57226227  1.71232406  1.8633711   2.03089598
  2.21215242  2.40988671  2.62409887  2.84654995  3.08273258  3.32166152
  3.56608308  3.80501202  4.03844834  4.26089942  4.46687264  4.6536217
  4.82114658  4.966701    5.09303124  5.20288363  5.29351184  5.37315482
  5.44181256  5.507724    5.57363543  5.64229317  5.71918984  5.81531068
  5.92790937  6.06522485  6.23274974  6.43597666  6.6749056   6.95228287
  7.27085479  7.62512873  8.01785101  8.4407827   8.88843117  9.3525575
  9.82766907 10.30003433 10.76690697 11.22004806 11.65396498 12.06865774
 12.46138002 12.83487813 13.18365946 13.51321662 13.8208033  14.10367319
 14.35358737 14.57054583 14.74630965 14.87263989 14.94679025 14.96601442
 14.92756608 14.83693786 14.69687607 14.51561964 14.29591486 14.048747
 13.77960865 13.49399245 13.20013732 12.90353587 12.60968074 12.32681085
 12.05492619 11.80775832 11.59354617 11.42052866 11.29694473 11.23927223
 11.25025747 11.34088568 11.50841057 11.75557844 12.06865774 12.43666323
 12.84037075 13.2523172  13.64778579 14.00755235 14.30415379 14.52385857
 14.65293512 14.68863714 14.62821833 14.4771713  14.2492276  13.95262616
 13.60109852 13.20837624 12.78544456 12.34328871 11.89289392 11.43975283
 10.99485067 10.56368005 10.15173361  9.76175764  9.39924476  9.06419499
  8.753862    8.4709921 ]","[-1.4755734  -1.25495008 -1.0244111  -0.78643538 -0.54598075 -0.31048395
 -0.08986062  0.1134103   0.28941318  0.43319018  0.54226238  0.61167197
  0.64389784  0.63894002  0.60175631  0.53482564  0.44310583  0.33651254
  0.21504577  0.08366334 -0.05515583 -0.20141174 -0.35262548 -0.51127596
 -0.67736318 -0.85336605 -1.03432676 -1.22024529 -1.40616382 -1.58960344
 -1.7631274  -1.92425679 -2.06555487 -2.18206382 -2.27626254 -2.3407143
 -2.38037692 -2.39277149 -2.38533475 -2.36054561 -2.32088299 -2.2688258
 -2.21181078 -2.14735903 -2.08042836 -2.01101877 -1.93913027 -1.86972069
 -1.79783219 -1.72842261 -1.65901302 -1.58712452 -1.51771494 -1.44582644
 -1.37641685 -1.30452836 -1.23511877 -1.16323027 -1.08886286 -1.01449545
 -0.94012804 -0.86328171 -0.78395647 -0.70215232 -0.61786925 -0.52862836
 -0.43938746 -0.34518874 -0.2485111  -0.14935455 -0.04771909  0.0588742
  0.16546749  0.2745397   0.38609082  0.49516302  0.60423522  0.71330743
  0.81494289  0.91162053  1.00086142  1.08018666  1.15207516  1.21652692
  1.27106302  1.31816238  1.36030391  1.39500871  1.42475567  1.45450264
  1.47929177  1.50655983  1.53382788  1.56605376  1.60323746  1.64785791
  1.70239401  1.76684577  1.84864992  1.94532756  2.05687868  2.18578219
  2.32955919  2.48573075  2.64933906  2.81790519  2.98647133  3.14512181
  3.29385663  3.42276015  3.53183235  3.61859433  3.68056718  3.71775088
  3.73510328  3.72766654  3.7028774   3.65825695  3.59628411  3.51695887
  3.42028123  3.3062512   3.17734769  3.03357069  2.8724413   2.70139625
  2.51795663  2.32460136  2.12380935  1.91805951  1.70983075  1.501602
  1.29089433  1.08514449  0.88435248  0.68851829  0.50259976  0.3290758
  0.17042532  0.02664832]",12.679780295228278,2.683919906297022,3.6412500000000003,0.13140500000000044
025,1,1,csp,3a.png,1,1,104,261,108,1,1,337,pos_feedback_onset,9,"[ 2.09605417  1.90496664  1.69879326  1.48507694  1.25878908  1.0274726
  0.7911275   0.54975379  0.30586576  0.05946342 -0.1819103  -0.42076971
 -0.65208619 -0.87334543 -1.07951881 -1.27312065 -1.45163663 -1.61003813
 -1.75335377 -1.88158356 -1.99221318 -2.09027126 -2.17324347 -2.24112983
 -2.29393033 -2.32913066 -2.35175945 -2.35678807 -2.34924514 -2.32913066
 -2.30650188 -2.28135878 -2.26124431 -2.25621569 -2.26878724 -2.30398757
 -2.36935962 -2.46490338 -2.59061886 -2.74650605 -2.92502203 -3.12365249
 -3.3373688  -3.55611373 -3.77485866 -3.98857498 -4.19223405 -4.38080727
 -4.55429463 -4.71269613 -4.85349747 -4.97921295 -5.09487119 -5.19544357
 -5.28847302 -5.37395955 -5.45190314 -5.52481812 -5.59521879 -5.66059084
 -5.72596289 -5.78630632 -5.84413544 -5.89945025 -5.95225075 -6.00253694
 -6.05030882 -6.09053777 -6.12573811 -6.15339551 -6.17350999 -6.18608154
 -6.19111016 -6.19111016 -6.18356723 -6.17350999 -6.16093844 -6.1508812
 -6.14585258 -6.14333827 -6.1508812  -6.16345275 -6.18859585 -6.22128187
 -6.26653944 -6.32436856 -6.39728354 -6.48025576 -6.58082814 -6.69397207
 -6.82471617 -6.97054612 -7.12894762 -7.29992067 -7.48346527 -7.67706711
 -7.87821187 -8.08438526 -8.29307295 -8.50427495 -8.70793403 -8.90656449
 -9.09262339 -9.26359644 -9.41194071 -9.53765619 -9.63571426 -9.70108631
 -9.73377233 -9.73628664 -9.70862924 -9.65331443 -9.58039945 -9.4898843
 -9.38931192 -9.28622523 -9.18565285 -9.09010908 -9.00462256 -8.92667896
 -8.8587926  -8.79844917 -8.74313436 -8.69033386 -8.63753336 -8.58724717
 -8.53193236 -8.47661755 -8.42130274 -8.36598793 -8.31821605 -8.27798709
 -8.25032969 -8.23775814 -8.24278676 -8.26792986 -8.31318743 -8.37855948
 -8.45901738 -8.55204684 -8.65261922 -8.7531916  -8.84622106 -8.92667896
 -8.98450808 -9.0146798  -9.01216549 -8.97696515 -8.90405018 -8.79593486
 -8.65513353 -8.48667479 -8.29810157 -8.09695681 -7.88826911 -7.67706711
 -7.47340803 -7.27729189 -7.09123298 -6.91774562 -6.7543155  -6.59842831
 -6.44756973 -6.29419685 -6.13328104 -5.96482229 -5.77876339 -5.57510431
 -5.34881645 -5.0998998  -4.82584006 -4.52663722 -4.20731991 -3.87040243
 -3.51839909 -3.16136713 -2.79930655 -2.43976029 -2.08775695 -1.74581085
 -1.41643629 -1.09711898 -0.7878589  -0.48865606 -0.18945323  0.11226392
  0.41900969  0.73581269  1.06518725  1.40713335  1.76416531  2.1312545
  2.50588663  2.88303306  3.25766519  3.62224007  3.96921479  4.29607504
  4.59276357  4.85425176  5.075511    5.25402698  5.38477108  5.46522898
  5.49288639  5.46774329  5.3897997   5.26408422  5.09059686  4.87688055
  4.63047821  4.35390416  4.05470132  3.74041262  3.41355238  3.08166352
  2.74726035  2.41788579  2.09605417  1.78679409  1.49764849  1.23113168
  0.99478658  0.79364181  0.62769738  0.50449621  0.42403831  0.37878074
  0.37123781  0.39135228  0.42906693  0.47935312  0.53215362  0.57238257
  0.59752567  0.59501136  0.56232533  0.49695329  0.3963809   0.26563681
  0.10472099 -0.0763093  -0.27242544 -0.47859883 -0.68728652 -0.89094559
 -1.08706174 -1.27312065 -1.44660801 -1.61003813 -1.7608967  -1.90421235
 -2.03998507 -2.16821485 -2.29393033 -2.41461719 -2.53278974 -2.65096229
 -2.76913484 -2.88479308]","[-4.50816119 -4.18691455 -3.83252342 -3.43988863 -3.00646063 -2.5322394
 -2.02487367 -1.48181387 -0.91325831 -0.32685571  0.26719562  0.86124695
  1.44255039  2.00345723  2.53376914  3.02583741  3.47711245  3.87994554
  4.2317871   4.53008755  4.77739647  4.96861471  5.10629184  5.19552702
  5.23886982  5.23886982  5.20062618  5.13433719  5.04765159  4.94566852
  4.83858631  4.73405367  4.63716977  4.55303374  4.48419518  4.43320364
  4.39750957  4.37711296  4.36946423  4.36946423  4.37456339  4.38221211
  4.38731127  4.39241042  4.39750957  4.40260873  4.41280703  4.42555492
  4.44340195  4.47144729  4.50714136  4.55303374  4.60402527  4.66011595
  4.72130579  4.78249563  4.84623504  4.90742488  4.96606514  5.01960624
  5.0680482   5.11394057  5.1547338   5.19297745  5.23122109  5.27201432
  5.3179067   5.3714478   5.43008806  5.49637705  5.57031477  5.64935164
  5.72583894  5.79722708  5.86096649  5.90940845  5.93745379  5.94255294
  5.92470591  5.88136311  5.81252454  5.72073979  5.60855842  5.47853002
  5.33575373  5.18277914  5.02215582  4.85898292  4.69581003  4.53518671
  4.37456339  4.22413837  4.07881251  3.94623453  3.82640443  3.72442137
  3.64028535  3.57909551  3.54085186  3.52810398  3.54085186  3.57909551
  3.63773577  3.7218718   3.82385486  3.94623453  4.08391166  4.23688625
  4.40260873  4.58107908  4.76209902  4.9482181   5.12668846  5.29496051
  5.44538552  5.56776519  5.66209953  5.71819021  5.7411364   5.72583894
  5.67994656  5.60345927  5.50402578  5.38419569  5.25416728  5.11394057
  4.96861471  4.82073928  4.67286384  4.52753798  4.38476169  4.24453498
  4.111957    3.98702775  3.86464808  3.75246672  3.64793408  3.54850059
  3.45416626  3.36493108]",3.1756986951990234,5.145172886783499,3.977235000000001,0.00245499999999943
025,1,1,csm,66b.png,1,0,356,NaN,NaN,0,1,699,neu_feedback_onset,10,"[ 0.04418843  0.07041302  0.0913927   0.11237237  0.13072958  0.14908679
  0.16744401  0.17793384  0.18580122  0.18317876  0.17268893  0.14646434
  0.10188253  0.04418843 -0.03186288 -0.12364894 -0.2285473  -0.3439355
 -0.46456861 -0.58520173 -0.70058992 -0.80811074 -0.90514172 -0.98906041
 -1.05462189 -1.10707107 -1.14640795 -1.17263254 -1.19098976 -1.20410205
 -1.21721435 -1.22770418 -1.24343894 -1.25655123 -1.27228598 -1.28802074
 -1.29588812 -1.29851057 -1.2906432  -1.27228598 -1.24081648 -1.19885713
 -1.14640795 -1.09133631 -1.03888713 -0.99168287 -0.95496845 -0.93136631
 -0.9261214  -0.93661123 -0.96283582 -1.00479517 -1.05462189 -1.11231599
 -1.17001008 -1.23032664 -1.28802074 -1.34309238 -1.3929191  -1.44012336
 -1.4820827  -1.52141959 -1.55813402 -1.59484844 -1.62631795 -1.66040992
 -1.69187942 -1.72334893 -1.75219598 -1.78104303 -1.80464516 -1.82824729
 -1.84398205 -1.85447188 -1.85447188 -1.84398205 -1.81775746 -1.77317565
 -1.71023664 -1.62369549 -1.51879713 -1.39029664 -1.24606139 -1.0860914
 -0.91563156 -0.73992681 -0.56684451 -0.40425206 -0.25739435 -0.13413878
 -0.03710779  0.02845368  0.05992319  0.05730073  0.01534139 -0.06070993
 -0.1708532  -0.31246599 -0.48030337 -0.67174287 -0.88153959 -1.09920369
 -1.32211271 -1.54239926 -1.75481844 -1.94625795 -2.11409532 -2.25308565
 -2.35798401 -2.42354549 -2.44977008 -2.43928024 -2.39207598 -2.31340221
 -2.20850385 -2.08262582 -1.93576811 -1.77055319 -1.59222598 -1.40078648
 -1.19098976 -0.96545828 -0.71894714 -0.4462114  -0.14987353  0.17531138
  0.52672089  0.90697745  1.31083613  1.73042957  2.16051285  2.59321858
  3.01805694  3.42716055  3.81003956  4.15882661  4.46040939  4.71478792
  4.9140948   5.05308513  5.13438136  5.15798349  5.12651398  5.04521775
  4.91933972  4.75936972  4.57317513  4.36862333  4.15358169  3.94116251
  3.73661071  3.54779366  3.37995628  3.24096596  3.13344514  3.06001629
  3.02592432  3.03116924  3.0783735   3.1675371   3.29866005  3.47174235
  3.67891661  3.9228053   4.19554103  4.4918789   4.8118189   5.14749365
  5.49365824  5.84506774  6.20172217  6.55575413  6.90716364  7.25332823
  7.59162544  7.92467773  8.25248511  8.56980265  8.88449773  9.18870297
  9.4876633   9.77875625 10.06198182 10.3320951  10.594341   10.8434746
 11.07949591 11.30502739 11.51744656 11.71675345 11.90819296 12.08914263
 12.26222492 12.42481738 12.58216492 12.72640016 12.86276803 12.9860236
 13.1014118  13.2036877  13.29809623 13.38201491 13.46331114 13.53673999
 13.61016885 13.68097524 13.75440409 13.82783294 13.9012618  13.97469065
 14.04549704 14.11368098 14.17137507 14.21595688 14.24480393 14.25004884
 14.23169163 14.18186491 14.09794622 13.98255803 13.83570032 13.65737311
 13.46068868 13.25089196 13.03585033 12.83129852 12.64248148 12.47988902
 12.35138853 12.25698    12.19666345 12.17043886 12.17306131 12.20190836
 12.24386771 12.30156181 12.36450082 12.43268476 12.50086869 12.56905262
 12.6346141  12.69755311 12.75786967 12.81294131 12.86539049 12.91521721
 12.96504393 13.01749311 13.07256475 13.13812623 13.21417754 13.3059636
 13.41872934 13.54722983 13.69933245 13.86716983 14.0481195  14.23955901
 14.43362097 14.62506048]","[-1.15860271 -0.96666053 -0.78133704 -0.60704472 -0.44378356 -0.29375978
 -0.1569734  -0.03342441  0.07247472  0.16513646  0.24456081  0.30854154
  0.3614911   0.40340951  0.43429676  0.45856531  0.4784214   0.49386502
  0.50489618  0.51592734  0.52475227  0.53137096  0.5335772   0.53578343
  0.53137096  0.52475227  0.51592734  0.50268995  0.48945256  0.4784214
  0.46739024  0.46297777  0.46297777  0.4718027   0.48945256  0.51813357
  0.55563951  0.60197039  0.65491995  0.71669445  0.78508764  0.85789329
  0.93290518  1.0101233   1.08954765  1.168972    1.25060258  1.33223316
  1.41386374  1.49549432  1.5771249   1.65875549  1.74038607  1.82201665
  1.90364723  1.98527781  2.0669084   2.14853898  2.23237579  2.31400637
  2.39563696  2.47726754  2.55669189  2.63832247  2.71774682  2.79717117
  2.87218306  2.94278248  3.0067632   3.05971277  3.10163118  3.12148727
  3.11928103  3.08398132  3.01117567  2.89203914  2.72436552  2.49932986
  2.2191384   1.88158491  1.48887563  1.04983547  0.56667067  0.0504124
 -0.48790819 -1.03946618 -1.59984909 -2.15581954 -2.70737753 -3.24569812
 -3.77519379 -4.2870396  -4.78344179 -5.26219412 -5.71888413 -6.14909936
 -6.54842734 -6.90583692 -7.22132809 -7.48607592 -7.70008042 -7.86113535
 -7.97144695 -8.03322144 -8.05528376 -8.03984014 -7.99792173 -7.93173477
 -7.85010419 -7.75302998 -7.64492462 -7.52799433 -7.4022391  -7.26545272
 -7.12204765 -6.96540518 -6.80214402 -6.62785169 -6.44694067 -6.25941096
 -6.07188124 -5.88876399 -5.71226544 -5.54459181 -5.3923618  -5.25778166
 -5.14085136 -5.04157093 -4.96214658 -4.90037208 -4.85404121 -4.82536019
 -4.80991657 -4.80771034 -4.81432904 -4.83418512 -4.86065991 -4.89375339
 -4.93346556 -4.9775902 ]",13.325944242900132,1.528367178769896,3.8132150000000005,
025,1,1,csp,9a.png,1,1,112,334,110,1,1,382,pos_feedback_onset,11,"[-1.04726346e-01 -8.87897277e-02 -6.60231309e-02 -3.87032146e-02
 -9.10663874e-03  2.04899372e-02  5.00865131e-02  7.74064293e-02
  1.00173026e-01  1.16109644e-01  1.22939623e-01  1.20662963e-01
  1.07003005e-01  8.19597487e-02  4.55331937e-02  2.27665968e-03
 -5.00865131e-02 -1.07003005e-01 -1.63919497e-01 -2.16282670e-01
 -2.61815864e-01 -2.95965759e-01 -3.16455696e-01 -3.18732356e-01
 -3.05072398e-01 -2.75475822e-01 -2.29942628e-01 -1.70749476e-01
 -1.00173026e-01 -2.04899372e-02  7.05764502e-02  1.66196157e-01
  2.70922503e-01  3.82478827e-01  5.00865131e-01  6.26081413e-01
  7.55851015e-01  8.92450596e-01  1.03132684e+00  1.16792642e+00
  1.29997268e+00  1.42291230e+00  1.53219197e+00  1.62325836e+00
  1.69838812e+00  1.75075130e+00  1.78262453e+00  1.79628449e+00
  1.79173117e+00  1.77124123e+00  1.73936800e+00  1.69611147e+00
  1.64602495e+00  1.59138512e+00  1.53446863e+00  1.47299882e+00
  1.41152900e+00  1.35005919e+00  1.29086604e+00  1.23622621e+00
  1.18841636e+00  1.15426646e+00  1.13605318e+00  1.14060650e+00
  1.17247974e+00  1.24305619e+00  1.35005919e+00  1.50259539e+00
  1.69611147e+00  1.92833075e+00  2.19469994e+00  2.48155906e+00
  2.77980148e+00  3.07349057e+00  3.35351972e+00  3.60167562e+00
  3.80885165e+00  3.96594117e+00  4.07294418e+00  4.12303069e+00
  4.12075403e+00  4.07294418e+00  3.98415445e+00  3.86576814e+00
  3.72689190e+00  3.57435571e+00  3.41726619e+00  3.26472999e+00
  3.12130043e+00  2.98697751e+00  2.86859120e+00  2.76158820e+00
  2.67052181e+00  2.58856206e+00  2.51798561e+00  2.45651580e+00
  2.39959931e+00  2.34723614e+00  2.29942628e+00  2.25389309e+00
  2.20835989e+00  2.16282670e+00  2.11957017e+00  2.07631363e+00
  2.03305710e+00  1.98980056e+00  1.94882069e+00  1.90784082e+00
  1.86686094e+00  1.83043439e+00  1.79628449e+00  1.76668792e+00
  1.74619798e+00  1.73481468e+00  1.73253802e+00  1.74619798e+00
  1.77351789e+00  1.81222111e+00  1.86458428e+00  1.91922411e+00
  1.97614061e+00  2.02167380e+00  2.04671706e+00  2.04216374e+00
  1.99663054e+00  1.90328750e+00  1.75985794e+00  1.55951188e+00
  1.31135598e+00  1.01311356e+00  6.76167926e-01  3.07349057e-01
 -8.42364083e-02 -4.94035152e-01 -9.08387214e-01 -1.32729260e+00
 -1.74392132e+00 -2.15144340e+00 -2.54985885e+00 -2.93233767e+00
 -3.29660322e+00 -3.63582552e+00 -3.94317457e+00 -4.21182042e+00
 -4.43720973e+00 -4.61478918e+00 -4.73545214e+00 -4.80375194e+00
 -4.81285857e+00 -4.77187870e+00 -4.68308897e+00 -4.55331937e+00
 -4.39167653e+00 -4.20726710e+00 -4.01147436e+00 -3.81340497e+00
 -3.62216556e+00 -3.44458610e+00 -3.28749659e+00 -3.15089700e+00
 -3.04161734e+00 -2.95282761e+00 -2.88452782e+00 -2.83216465e+00
 -2.78663145e+00 -2.74565158e+00 -2.69784173e+00 -2.63864857e+00
 -2.56124215e+00 -2.45651580e+00 -2.32219288e+00 -2.15144340e+00
 -1.94654403e+00 -1.70294144e+00 -1.42518896e+00 -1.11783991e+00
 -7.83170932e-01 -4.32565340e-01 -7.51297696e-02  2.77752482e-01
  6.16974775e-01  9.28877151e-01  1.20207631e+00  1.42746562e+00
  1.59821510e+00  1.71204808e+00  1.76668792e+00  1.76441126e+00
  1.70977142e+00  1.61415172e+00  1.48210545e+00  1.32956926e+00
  1.16337310e+00  9.94900282e-01  8.33257445e-01  6.85274565e-01
  5.55504963e-01  4.43948639e-01  3.55158911e-01  2.86859120e-01
  2.34495948e-01  2.00346052e-01  1.75302796e-01  1.61642838e-01
  1.54812859e-01  1.52536199e-01  1.52536199e-01  1.52536199e-01
  1.50259539e-01  1.43429560e-01  1.32046262e-01  1.09279665e-01
  7.51297696e-02  2.73199162e-02 -3.87032146e-02 -1.25216283e-01
 -2.34495948e-01 -3.64265550e-01 -5.12248429e-01 -6.80721246e-01
 -8.65130680e-01 -1.06092341e+00 -1.26354613e+00 -1.47072216e+00
 -1.67562153e+00 -1.87369092e+00 -2.06493033e+00 -2.24478645e+00
 -2.41098261e+00 -2.56351881e+00 -2.70239505e+00 -2.82761133e+00
 -2.93916765e+00 -3.03478736e+00 -3.11902377e+00 -3.18960022e+00
 -3.25107003e+00 -3.30115654e+00 -3.34213642e+00 -3.37628631e+00
 -3.40815955e+00 -3.43775612e+00 -3.46962936e+00 -3.51060923e+00
 -3.56069575e+00 -3.62216556e+00 -3.69957199e+00 -3.79063838e+00
 -3.89764138e+00 -4.01602768e+00 -4.14807395e+00 -4.29150351e+00
 -4.43948639e+00 -4.59429924e+00 -4.75366542e+00 -4.91303160e+00
 -5.07239778e+00 -5.23176396e+00 -5.39113013e+00 -5.55049631e+00]","[ -1.15142815  -1.09251419  -1.0313343   -0.96788849  -0.89991084
  -0.82513542  -0.73676447  -0.63479799  -0.51470413  -0.37421698
  -0.21107061  -0.02299911   0.1854657    0.41658972   0.66357519
   0.92189028   1.18700313   1.44758413   1.70136737   1.93928916
   2.15228581   2.34035731   2.49670592   2.62133161   2.71650033
   2.77994614   2.81846681   2.83206234   2.82979642   2.81393497
   2.78900983   2.75728692   2.72329809   2.68704335   2.65305452
   2.61906569   2.58734279   2.55561988   2.5261629    2.49897184
   2.46951485   2.44005787   2.41060089   2.37661206   2.34035731
   2.30183664   2.25878413   2.21119977   2.15681765   2.1001696
   2.03898972   1.97554391   1.90983217   1.8395886    1.77161095
   1.70136737   1.63338972   1.56314614   1.49516849   1.42719083
   1.3614791    1.29576737   1.23005564   1.16660983   1.1008981
   1.03065452   0.95814503   0.87883776   0.78820089   0.68396849
   0.56160871   0.41885564   0.25117743   0.05630816  -0.16348626
  -0.41047173  -0.68238234  -0.97468625  -1.28511754  -1.61141028
  -1.94903262  -2.29798458  -2.65146837  -3.00948402  -3.36976558
  -3.73231306  -4.09712647  -4.45967396  -4.82448736  -5.18703485
  -5.54731641  -5.90533205  -6.25654993  -6.60323596  -6.93632646
  -7.25808736  -7.55718903  -7.83589741  -8.08514881  -8.30494322
  -8.49074881  -8.64256557  -8.76265942  -8.85329629  -8.92127395
  -8.97339015  -9.01644266  -9.05949518  -9.11161138  -9.17732311
  -9.26342814  -9.37219238  -9.50361584  -9.66449629  -9.84577003
 -10.04970299 -10.27402925 -10.50968512 -10.75667059 -11.00818791
 -11.25970523 -11.50895662 -11.75367617 -11.98706612 -12.21139237
 -12.42438902 -12.62605606 -12.81865941 -13.00219908 -13.1812069
 -13.35341695 -13.52109517 -13.6910393  -13.85871751 -14.02866164
 -14.19860578 -14.36854991 -14.53622812 -14.70390634 -14.86478678]",2.681222110918875,1.902524576754154,4.392399999999999,0.10598999999999936
025,1,1,csp,29a.png,1,1,32,328,29,1,1,273,pos_feedback_onset,12,"[ 1.86313785e-01  9.34981266e-02  1.16019573e-02 -5.66448504e-02
 -1.11242297e-01 -1.49460509e-01 -1.76759232e-01 -1.87678721e-01
 -1.87678721e-01 -1.74029360e-01 -1.49460509e-01 -1.16702041e-01
 -7.57539566e-02 -2.66162550e-02  2.79811912e-02  8.80383820e-02
  1.50825445e-01  2.16342381e-01  2.84589188e-01  3.52835996e-01
  4.21082804e-01  4.86599739e-01  5.54846547e-01  6.20363482e-01
  6.88610290e-01  7.54127226e-01  8.19644161e-01  8.87890969e-01
  9.58867649e-01  1.03530407e+00  1.11720024e+00  1.21001590e+00
  1.31375105e+00  1.43386543e+00  1.57035905e+00  1.72869164e+00
  1.91432296e+00  2.12179325e+00  2.35929214e+00  2.62135989e+00
  2.91072635e+00  3.21920192e+00  3.54405673e+00  3.88256089e+00
  4.22925468e+00  4.57321859e+00  4.90899288e+00  5.23384769e+00
  5.53686351e+00  5.81531049e+00  6.06099900e+00  6.27392904e+00
  6.44864086e+00  6.58240461e+00  6.67522027e+00  6.72435797e+00
  6.73254759e+00  6.69978912e+00  6.62881244e+00  6.52507729e+00
  6.39131355e+00  6.23298095e+00  6.05826912e+00  5.87263781e+00
  5.68154675e+00  5.49318556e+00  5.31028411e+00  5.14103203e+00
  4.99088905e+00  4.85985518e+00  4.75339016e+00  4.66876412e+00
  4.61143680e+00  4.57048872e+00  4.55137961e+00  4.54318999e+00
  4.54318999e+00  4.54864974e+00  4.55410948e+00  4.55683935e+00
  4.55683935e+00  4.55137961e+00  4.54318999e+00  4.52954063e+00
  4.51316140e+00  4.49678216e+00  4.47767306e+00  4.45583408e+00
  4.43399510e+00  4.40669638e+00  4.37666778e+00  4.33844957e+00
  4.29477161e+00  4.24290404e+00  4.18557672e+00  4.12005978e+00
  4.04908310e+00  3.97537655e+00  3.89621025e+00  3.81431409e+00
  3.73241792e+00  3.64779187e+00  3.56589571e+00  3.48672941e+00
  3.40756311e+00  3.33112669e+00  3.25742013e+00  3.18917333e+00
  3.12365639e+00  3.06359920e+00  3.01173163e+00  2.96532380e+00
  2.92437571e+00  2.89434712e+00  2.87523801e+00  2.86158865e+00
  2.85885878e+00  2.86704839e+00  2.88342763e+00  2.90799648e+00
  2.94075495e+00  2.97897316e+00  3.02811086e+00  3.08270831e+00
  3.14549537e+00  3.21374218e+00  3.29017860e+00  3.37480464e+00
  3.46216056e+00  3.55497622e+00  3.64779187e+00  3.73787766e+00
  3.82523357e+00  3.89894013e+00  3.96172719e+00  4.01086489e+00
  4.04362336e+00  4.06000259e+00  4.06546234e+00  4.06546234e+00
  4.06000259e+00  4.06273247e+00  4.07911170e+00  4.11732991e+00
  4.18011698e+00  4.27293263e+00  4.39577689e+00  4.54591986e+00
  4.71517195e+00  4.89807339e+00  5.08097484e+00  5.25568667e+00
  5.41128939e+00  5.54505313e+00  5.64605841e+00  5.71703509e+00
  5.76071304e+00  5.78528189e+00  5.79893125e+00  5.80985074e+00
  5.83441960e+00  5.87809755e+00  5.95453398e+00  6.06372887e+00
  6.21387185e+00  6.39950316e+00  6.62335269e+00  6.87996069e+00
  7.15840767e+00  7.45869362e+00  7.77262894e+00  8.09748374e+00
  8.42506842e+00  8.75538297e+00  9.08842739e+00  9.42420168e+00
  9.75997598e+00  1.01012100e+01  1.04424441e+01  1.07891378e+01
  1.11385615e+01  1.14907150e+01  1.18428685e+01  1.21922922e+01
  1.25389860e+01  1.28802200e+01  1.32187242e+01  1.35490387e+01
  1.38738935e+01  1.41987484e+01  1.45236032e+01  1.48511878e+01
  1.51896920e+01  1.55363858e+01  1.58967289e+01  1.62679916e+01
  1.66556334e+01  1.70541948e+01  1.74609458e+01  1.78731565e+01
  1.82853672e+01  1.86921182e+01  1.90934094e+01  1.94837811e+01
  1.98605035e+01  2.02235765e+01  2.05730002e+01  2.09060446e+01
  2.12227098e+01  2.15148061e+01  2.17823336e+01  2.20171027e+01
  2.22081937e+01  2.23419575e+01  2.24129341e+01  2.24074744e+01
  2.23173886e+01  2.21344872e+01  2.18614999e+01  2.14984269e+01
  2.10507279e+01  2.05347820e+01  1.99615088e+01  1.93554771e+01
  1.87276065e+01  1.81051956e+01  1.75046237e+01  1.69395402e+01
  1.64235943e+01  1.59622459e+01  1.55582248e+01  1.52169907e+01
  1.49276243e+01  1.46901254e+01  1.44935746e+01  1.43270524e+01
  1.41878289e+01  1.40677145e+01  1.39585196e+01  1.38547844e+01
  1.37592389e+01  1.36664233e+01  1.35790673e+01  1.34971712e+01
  1.34207347e+01  1.33497581e+01  1.32869710e+01  1.32323736e+01
  1.31832359e+01  1.31395579e+01  1.31040696e+01  1.30713111e+01
  1.30412825e+01  1.30167136e+01  1.29921448e+01  1.29730357e+01
  1.29566565e+01  1.29430071e+01  1.29320876e+01  1.29238980e+01]","[ -1.30643085  -1.13721867  -0.96800649  -0.80105047  -0.63860677
  -0.4806754   -0.32725636  -0.1806058   -0.04297989   0.09013369
   0.21196646   0.32477458   0.42855805   0.51880455   0.59777023
   0.66545511   0.71734684   0.7557016    0.78051939   0.7918002
   0.78954404   0.77149474   0.73539614   0.68124824   0.60679488
   0.50526758   0.37892248   0.22099111   0.03598579  -0.17834964
  -0.41524669  -0.67244921  -0.94093254  -1.21167203  -1.47564303
  -1.71930858  -1.93364401  -2.10736851  -2.23371361  -2.30591081
  -2.32170394  -2.28109302  -2.19535885  -2.06901375  -1.91785087
  -1.75315101  -1.58845116  -1.43728827  -1.30643085  -1.20715971
  -1.13721867  -1.09886391  -1.09435158  -1.11691321  -1.16203646
  -1.22520901  -1.30417469  -1.3876527   -1.47338687  -1.55912104
  -1.63808673  -1.70802776  -1.77120031  -1.82760437  -1.87498378
  -1.92010703  -1.96297412  -2.0058412   -2.05096445  -2.09834386
  -2.14797944  -2.2043835   -2.26078756  -2.31944778  -2.38036417
  -2.44353672  -2.5044531   -2.56762565  -2.62854203  -2.68720226
  -2.74586248  -2.8045227   -2.86092676  -2.91958699  -2.98050337
  -3.04367592  -3.10910463  -3.18130183  -3.25575519  -3.33697704
  -3.42045505  -3.50393306  -3.5851549   -3.66186442  -3.7295493
  -3.78820952  -3.83333277  -3.86266288  -3.88071218  -3.88522451
  -3.88071218  -3.86717521  -3.84686974  -3.82882044  -3.81077115
  -3.8017465   -3.79949033  -3.80851498  -3.83333277  -3.87619986
  -3.93711624  -4.02285041  -4.12889005  -4.26425979  -4.42444732
  -4.61170881  -4.8283004   -5.06970978  -5.34044927  -5.63375038
  -5.94735696  -6.27901284  -6.62194953  -6.97391087  -7.32812837
  -7.68234587  -8.02979488  -8.36821924  -8.69310663  -8.99994472
  -9.28873351  -9.55721684  -9.79862622 -10.01521782 -10.20473546
 -10.36717915 -10.5025489  -10.6108447  -10.69432271 -10.75523909]",19.17510083465845,-0.2092995602016405,3.6631750000000003,-0.08938000000000024
025,1,1,csm,14b.png,1,1,0,351,7,1,0,436,neu_feedback_onset,13,"[-1.34269247 -1.21637386 -1.08262475 -0.93649146 -0.77549716 -0.60459552
 -0.41883287 -0.2256397  -0.02749287  0.16817712  0.35393978  0.52236459
  0.66106737  0.76261762  0.8245385   0.83692268  0.79977015  0.71308091
  0.5793318   0.40843016  0.20532965 -0.01758553 -0.25288489 -0.48818426
 -0.71357628 -0.92163045 -1.11234678 -1.27581791 -1.4145207  -1.53093196
 -1.6250517  -1.7018336  -1.76375449 -1.81081436 -1.85044373 -1.88264259
 -1.9049341  -1.91979512 -1.92474879 -1.92227195 -1.91484145 -1.8975036
 -1.87768891 -1.8553974  -1.83062904 -1.81081436 -1.79347651 -1.786046
 -1.786046   -1.79347651 -1.81329119 -1.84053638 -1.87768891 -1.92227195
 -1.97428549 -2.03125271 -2.09317359 -2.16004815 -2.22444587 -2.29132043
 -2.35324131 -2.41268536 -2.46222207 -2.50432827 -2.53405029 -2.55138814
 -2.55634181 -2.54643447 -2.52661979 -2.49689776 -2.46717574 -2.43745371
 -2.41763903 -2.41763903 -2.43993055 -2.49194409 -2.58111017 -2.70742877
 -2.87585358 -3.07895408 -3.31425344 -3.57432116 -3.85172673 -4.13408596
 -4.41396836 -4.68394342 -4.93658063 -5.16692632 -5.37250366 -5.55083581
 -5.7043996  -5.82824137 -5.92236112 -5.99171251 -6.02886504 -6.04124922
 -6.02391137 -5.97932833 -5.91245378 -5.8232877  -5.71430694 -5.59294201
 -5.46166973 -5.32544379 -5.186741   -5.05051506 -4.91924278 -4.79292418
 -4.67403608 -4.56257848 -4.45607456 -4.35700115 -4.2628814  -4.17371533
 -4.08950292 -4.01024419 -3.93593913 -3.87154141 -3.81952787 -3.7798985
 -3.75760698 -3.75513015 -3.77246799 -3.80962052 -3.8641109  -3.93593913
 -4.02262837 -4.11674811 -4.21582153 -4.30994127 -4.39910735 -4.47341241
 -4.52790279 -4.56257848 -4.57000899 -4.55019431 -4.50313444 -4.43130621
 -4.33470963 -4.21829836 -4.08702609 -3.94584647 -3.79475951 -3.64119572
 -3.48763192 -3.33406813 -3.18298117 -3.03437104 -2.88328409 -2.72972029
 -2.56872599 -2.39534751 -2.20463119 -1.99410018 -1.76375449 -1.51111728
 -1.23866538 -0.95382931 -0.66651641 -0.38168033 -0.11170528  0.13350143
  0.34403244  0.51493408  0.63877585  0.72051142  0.76014078  0.76509445
  0.74527977  0.71060408  0.66849787  0.62886851  0.60410015  0.59419281
  0.60657699  0.63877585  0.69078939  0.76014078  0.83692268  0.91865825
  1.00039382  1.07222204  1.13166609  1.17624913  1.19854065  1.20349432
  1.18863331  1.15395761  1.1044209   1.03754635  0.96076445  0.87407521
  0.77995547  0.68335889  0.58428547  0.48521205  0.39109231  0.2994494
  0.215237    0.14093193  0.07653421  0.02452067 -0.01263186 -0.03987705
 -0.05226123 -0.05473806 -0.05226123 -0.04730756 -0.04235389 -0.04730756
 -0.06216857 -0.09189059 -0.13895047 -0.20830186 -0.3024216  -0.41883287
 -0.55753565 -0.71852995 -0.90181577 -1.10243944 -1.31792411 -1.54826981
 -1.78356917 -2.0238222  -2.26407524 -2.49689776 -2.72228978 -2.93282079
 -3.12849079 -3.30186927 -3.4579099  -3.58918217 -3.70063977 -3.79228268
 -3.86163407 -3.91364761 -3.95080014 -3.9755685  -3.98795267 -3.99786001
 -4.00033685 -4.00529052 -4.01024419 -4.02262837 -4.03996622 -4.06721141
 -4.10436394 -4.15142381 -4.21086786 -4.27774241 -4.35452431 -4.43873671
 -4.52542595 -4.61459203 -4.7037581  -4.78797051 -4.86970607 -4.9415343
 -5.00345519 -5.05546873]","[-3.39882623 -3.12324573 -2.81959684 -2.4929829  -2.14850727 -1.78872161
 -1.41362592 -1.03087522 -0.64046951 -0.24240878  0.15820362  0.5613677
  0.96453177  1.36769584  1.7632049   2.14850727  2.52360296  2.87828528
  3.21255422  3.52130646  3.79688696  4.03929574  4.24598112  4.4169431
  4.54963001  4.64659352  4.71548865  4.76141873  4.78948711  4.80734881
  4.82521051  4.84562388  4.87369227  4.91707068  4.97065578  5.03955091
  5.12120439  5.21306456  5.31257974  5.41974994  5.53202348  5.64429701
  5.7616739   5.87905078  5.99897933  6.11890788  6.23628477  6.35621332
  6.47614187  6.59607043  6.71599898  6.83592753  6.95330441  7.07323297
  7.19316152  7.3105384   7.42536361  7.54018882  7.64991069  7.75708089
  7.85914774  7.95355958  8.04031641  8.11686655  8.18576167  8.24445011
  8.29548354  8.33886195  8.37458535  8.40520541  8.43582547  8.46389385
  8.49196224  8.52003062  8.55065068  8.5838224   8.61699413  8.65271753
  8.6909926   8.726716    8.76499107  8.80581781  8.84409288  8.88236795
  8.92064302  8.96146976  8.99974483  9.0380199   9.07884664  9.11712171
  9.15539678  9.19367186  9.22939525  9.26256698  9.29573871  9.32125542
  9.33911712  9.34932381  9.34422046  9.32380709  9.28042868  9.20898188
  9.10691503  8.96912478  8.79305945  8.57361572  8.31079357  8.00459301
  7.65501403  7.26715999  6.84358255  6.38938505  5.90967083  5.41719826
  4.91451901  4.41183976  3.91681551  3.4371013   2.98035213  2.55167134
  2.15871396  1.80403164  1.49272774  1.22735392  1.01046185  0.8369482
  0.70936463  0.62005614  0.56902271  0.543506    0.543506    0.55626435
  0.5792294   0.60474611  0.63026282  0.64812452  0.65833121  0.65833121
  0.65322786  0.64302118]",0.6831731233637534,8.281768308241885,4.0374099999999995,-0.12169499999999989
025,1,1,csm,12b.png,1,1,24,67,22,1,1,275,neu_feedback_onset,14,"[ 0.70241923  0.6473932   0.58040499  0.50623947  0.42968152  0.35073113
  0.27178074  0.19522278  0.11866483  0.04449931 -0.02966621 -0.10383173
 -0.18038968 -0.25934007 -0.33829046 -0.41963329 -0.50336855 -0.58710381
 -0.67083908 -0.75457434 -0.8383096  -0.92682974 -1.01774231 -1.11583218
 -1.22349181 -1.34311361 -1.47709003 -1.62302863 -1.78571429 -1.96275456
 -2.15175701 -2.3503292  -2.5560787  -2.76422064 -2.97236258 -3.18050452
 -3.37907671 -3.57286403 -3.75468917 -3.92694457 -4.08723779 -4.23556883
 -4.37433012 -4.50112923 -4.62075103 -4.73319553 -4.83607028 -4.9365526
 -5.0298576  -5.12316261 -5.21168274 -5.29781044 -5.38154571 -5.46288853
 -5.53944649 -5.61121957 -5.67820778 -5.73801868 -5.79065227 -5.83132369
 -5.86242536 -5.88395728 -5.89591946 -5.8983119  -5.89591946 -5.88634972
 -5.87917241 -5.87677997 -5.88156484 -5.89591946 -5.92702113 -5.97726229
 -6.04664293 -6.13516307 -6.24282269 -6.3696218  -6.51077553 -6.66389144
 -6.81939979 -6.979693   -7.13280891 -7.27635508 -7.40554662 -7.51559868
 -7.60651125 -7.67349946 -7.71895575 -7.74288011 -7.74766498 -7.73809524
 -7.71656331 -7.68785408 -7.65435998 -7.61847343 -7.58258689 -7.55148522
 -7.52516843 -7.50602894 -7.49406676 -7.48688945 -7.48928189 -7.49885163
 -7.51320625 -7.53473817 -7.5634474  -7.59454907 -7.63043561 -7.66632216
 -7.70699357 -7.74527255 -7.78355152 -7.8218305  -7.85293217 -7.8816414
 -7.90317333 -7.91513551 -7.91752794 -7.9079582  -7.88642627 -7.85293217
 -7.80986832 -7.7620196  -7.70938601 -7.66153728 -7.62086587 -7.59454907
 -7.5897642  -7.60651125 -7.6495751  -7.72134819 -7.81465319 -7.92949012
 -8.06107411 -8.20222784 -8.345774   -8.48214286 -8.6041571  -8.70224698
 -8.77162762 -8.80512173 -8.80272929 -8.75727301 -8.67353774 -8.55391594
 -8.39840759 -8.21419002 -8.00844051 -7.78594396 -7.54909279 -7.30984918
 -7.06821314 -6.8337544  -6.60647298 -6.39115373 -6.19258153 -6.01075639
 -5.8456783  -5.69734727 -5.56337085 -5.43896417 -5.31934237 -5.19732813
 -5.06813658 -4.92698285 -4.76668963 -4.58725693 -4.38868473 -4.17097305
 -3.93651432 -3.69487827 -3.44845736 -3.20203644 -2.96279283 -2.73072653
 -2.51062242 -2.29530317 -2.08476879 -1.87423442 -1.65891517 -1.42924131
 -1.18521283 -0.92204486 -0.63973741 -0.33829046 -0.0224889   0.30527484
  0.63782346  0.96797964  1.28856607  1.59479789  1.88189022  2.14266575
  2.37473205  2.57569668  2.74555964  2.88432093  2.98958812  3.06614607
  3.11638723  3.14509646  3.15466621  3.14988134  3.13791915  3.1211721
  3.10442505  3.09485531  3.09724774  3.11399479  3.15466621  3.21926198
  3.31495942  3.4393661   3.59248201  3.76952228  3.96570204  4.16666667
  4.36284642  4.53749426  4.67625555  4.76716812  4.80066223  4.77195299
  4.68104042  4.53510182  4.3413145   4.11403307  3.86761216  3.61879881
  3.38194763  3.16662839  2.98001837  2.83168734  2.71685041  2.63550758
  2.58287399  2.55177232  2.53981014  2.5374177   2.53981014  2.54220257
  2.54220257  2.53263283  2.51349334  2.48239167  2.43454295  2.36994718
  2.28381948  2.17615985  2.04218343  1.88189022  1.6952802   1.48235339
  1.25028709  1.00147374  0.74787552  0.49427729  0.25264125  0.03492957
 -0.15646532 -0.30958123]","[-2.18709211 -2.00152217 -1.81344454 -1.6203515  -1.42224306 -1.21410382
 -0.99593376 -0.7652252  -0.52197813 -0.26619254  0.00714695  0.29051725
  0.58141066  0.87731947  1.17322828  1.46412168  1.73996888  2.00076986
  2.23398613  2.43961768  2.6126491   2.74555729  2.84335766  2.9035425
  2.92861952  2.92360412  2.8935117   2.84586536  2.78818822  2.72298798
  2.66029543  2.60261829  2.55497196  2.51986413  2.49478711  2.48224861
  2.4797409   2.48726401  2.50231022  2.52487954  2.54995655  2.57754127
  2.60763369  2.64023382  2.67283394  2.70543406  2.74054189  2.77314201
  2.80574214  2.84084996  2.87345008  2.90855791  2.94115803  2.97626586
  3.00886598  3.0414661   3.07657393  3.10917405  3.14177417  3.1718666
  3.20195902  3.22954374  3.24960535  3.26465156  3.27217467  3.26214386
  3.23706684  3.18942051  3.11168175  3.00385058  2.85589617  2.67032624
  2.44212538  2.17380129  1.87036937  1.53433733  1.17824368  0.80961152
  0.44097936  0.08488571 -0.24863863 -0.55207055 -0.81287153 -1.03104159
 -1.20658071 -1.3369812  -1.42976617 -1.49496642 -1.54010505 -1.57772057
 -1.6203515  -1.67050554 -1.74072119 -1.83350616 -1.94886044 -2.08678404
 -2.24727695 -2.41780067 -2.6008629  -2.78392513 -2.96197196 -3.13249568
 -3.28546549 -3.41586598 -3.52369715 -3.60143591 -3.64406684 -3.65158995
 -3.62149752 -3.55128187 -3.4434507  -3.3030194  -3.13500338 -2.94692575
 -2.74881731 -2.55321657 -2.37015434 -2.21216912 -2.08678404 -2.00402988
 -1.96892205 -1.98146056 -2.04415311 -2.14696888 -2.28740018 -2.4579239
 -2.65101694 -2.85915618 -3.07231083 -3.28797319 -3.49862014 -3.70675938
 -3.90486783 -4.10046856 -4.2910539  -4.48163923 -4.66971687 -4.8603022
 -5.05088754 -5.24648828]",3.491939882866317,2.3056437082389243,4.17984,-0.18534499999999898
025,2,1,csp,62a.png,1,1,228,236,225,1,1,344,pos_feedback_onset,1,"[-2.29023752 -2.09745272 -1.88860252 -1.66598197 -1.42959109 -1.18401998
 -0.93156369 -0.67222223 -0.40829066 -0.14206404  0.12186753  0.38809416
  0.64973068  0.90677707  1.16152842  1.41168964  1.65955581  1.90053681
  2.13922276  2.37102353  2.59823418  2.81396955  3.01593458  3.20183421
  3.36248821  3.49789658  3.59887909  3.66543575  3.69527149  3.69068138
  3.65396047  3.58969887  3.50248669  3.40150418  3.2936365   3.18347375
  3.07790112  2.98380378  2.90118172  2.83692013  2.79101898  2.76577335
  2.7634783   2.78872393  2.84151024  2.92183724  3.03199998  3.17199847
  3.33953764  3.53461749  3.75035287  3.98215364  4.22313463  4.46641069
  4.70509663  4.93230729  5.13656737  5.31328677  5.4509902   5.5473826
  5.5955788   5.59098869  5.53590732  5.42803963  5.2742708   5.07919095
  4.8565704   4.61558941  4.36772323  4.13133235  3.91559698  3.72969735
  3.58510875  3.48412624  3.42904487  3.41297947  3.43363498  3.48183118
  3.55297795  3.63560001  3.72281218  3.81002435  3.89035135  3.96149812
  4.02346466  4.07395592  4.11526695  4.15198786  4.18411866  4.21395441
  4.24608521  4.27821601  4.30575669  4.32641221  4.33559243  4.32870726
  4.30116658  4.24838026  4.17264338  4.07395592  3.95690801  3.82838481
  3.69527149  3.56674829  3.44740532  3.34412775  3.2615057   3.20183421
  3.1651133   3.15134295  3.15593307  3.17888364  3.21101444  3.25232547
  3.29822661  3.34642281  3.39232395  3.43593004  3.47724107  3.51625704
  3.55068289  3.58281369  3.61494449  3.64248518  3.66773081  3.69068138
  3.70674678  3.71363195  3.71133689  3.69527149  3.66314069  3.61723955
  3.55297795  3.47265095  3.37855361  3.27298098  3.16052318  3.04347527
  2.93101747  2.8277399   2.73593761  2.66249578  2.61200453  2.58446384
  2.57987373  2.59823418  2.6349551   2.69003647  2.75659313  2.83003495
  2.90118172  2.96773838  3.02511481  3.06642584  3.08937641  3.09396652
  3.08019618  3.04806538  2.99757412  2.93560758  2.86216575  2.78413381
  2.70380681  2.62347981  2.54544787  2.47659615  2.41233456  2.35954824
  2.31823721  2.28840147  2.27463113  2.27463113  2.29528664  2.33659767
  2.40544938  2.49954673  2.62347981  2.7795437   2.96544332  3.17658858
  3.41297947  3.66543575  3.92707226  4.19100384  4.44805023  4.69132629
  4.91394683  5.1136168   5.28804115  5.4349248   5.56115294  5.66672557
  5.7562328   5.83885486  5.91459174  5.99032863  6.07065563  6.16016286
  6.25885031  6.37130811  6.50212637  6.65130508  6.82113931  7.01162905
  7.21588914  7.43391957  7.65654011  7.87916065  8.09030591  8.28309071
  8.45062988  8.58603825  8.69161088  8.76046259  8.79718351  8.80636373
  8.79259339  8.75816753  8.70997133  8.65029985  8.58603825  8.51718654
  8.44603976  8.37718805  8.30833634  8.23948462  8.17522302  8.11555154
  8.06276522  8.01686408  7.98243822  7.96407777  7.96407777  7.98243822
  8.02374925  8.08571579  8.16374774  8.25555002  8.35423748  8.44833482
  8.52866182  8.59062836  8.62505422  8.62505422  8.59292342  8.52636676
  8.42997436  8.30833634  8.16833785  8.01686408  7.86080019  7.7001462
  7.54178725  7.38801842  7.24113477  7.09654617  6.95884274  6.82572943
  6.69491117  6.56638797]","[-1.68734216 -1.4907631  -1.29187134 -1.09066689 -0.88714974 -0.6836326
 -0.48011545 -0.28353639 -0.09158272  0.09112018  0.26457229  0.42183554
  0.56753531  0.69473353  0.80343019  0.89825068  0.9768823   1.03932506
  1.09251704  1.13645825  1.17577406  1.21277718  1.24978029  1.28909611
  1.33303731  1.38391659  1.44173397  1.50648942  1.57587027  1.6521892
  1.73082082  1.81407784  1.89964755  1.98752995  2.07772505  2.17254554
  2.26967872  2.37143729  2.47782126  2.5911433   2.71140344  2.84091435
  2.97505065  3.11612503  3.26182481  3.40983728  3.55553705  3.70123683
  3.83768583  3.96025865  4.06664261  4.15221232  4.207717    4.22853125
  4.2100297   4.14989963  4.04120297  3.88625242  3.68504797  3.4445277
  3.17162971  2.87560477  2.56801636  2.26042794  1.964403    1.68687962
  1.43710858  1.21971526  1.03701237  0.8866872   0.76642707  0.67160658
  0.59760035  0.53978298  0.49352908  0.45190057  0.41258476  0.37095625
  0.32470236  0.27382307  0.21138031  0.13737407  0.04949167 -0.0545796
 -0.17483973 -0.31360142 -0.47086467 -0.64662948 -0.83627046 -1.03516221
 -1.24099205 -1.44682189 -1.64340096 -1.82841654 -1.99493057 -2.13831765
 -2.25857779 -2.35571097 -2.4297172  -2.48522188 -2.52453769 -2.55460273
 -2.57772967 -2.59854393 -2.62398357 -2.6540486  -2.69567711 -2.74886909
 -2.81362455 -2.89225617 -2.97551319 -3.06570829 -3.15590338 -3.2368477
 -3.30622855 -3.35248245 -3.3756094  -3.36635862 -3.32473011 -3.25072387
 -3.14665261 -3.014829   -2.86450383 -2.7026152  -2.53841386 -2.38115061
 -2.23545084 -2.11056532 -2.00880674 -1.93248781 -1.88392122 -1.85616888
 -1.85154349 -1.86541966 -1.893172   -1.93248781 -1.9833671  -2.04349716
 -2.10825262 -2.18225886]",7.854029776071272,2.763323434999408,4.35719,-0.006305000000000227
025,2,1,csm,63b.png,1,1,120,50,123,1,1,401,neu_feedback_onset,2,"[-2.76428918e-02 -4.89979155e-02 -6.79801588e-02 -8.22168413e-02
 -9.17079629e-02 -9.17079629e-02 -8.69624021e-02 -7.50985000e-02
 -6.08618176e-02 -4.42523547e-02 -2.52701114e-02 -6.28786809e-03
  1.26943752e-02  3.16766185e-02  5.30316422e-02  7.43866659e-02
  9.57416896e-02  1.21842274e-01  1.47942859e-01  1.71670663e-01
  1.93025687e-01  2.07262369e-01  2.07262369e-01  1.95398467e-01
  1.62179541e-01  1.07605592e-01  2.45582773e-02 -8.45896217e-02
 -2.22210886e-01 -3.90678295e-01 -5.87619069e-01 -8.10660428e-01
 -1.06217515e+00 -1.33741768e+00 -1.63164245e+00 -1.94484946e+00
 -2.26992038e+00 -2.59973686e+00 -2.92480778e+00 -3.23801479e+00
 -3.53223956e+00 -3.79324541e+00 -4.01628676e+00 -4.19187252e+00
 -4.31762988e+00 -4.39355885e+00 -4.42203222e+00 -4.40304997e+00
 -4.34610324e+00 -4.25593759e+00 -4.14204413e+00 -4.00916842e+00
 -3.85968326e+00 -3.70307975e+00 -3.53935790e+00 -3.37089049e+00
 -3.20005030e+00 -3.02921011e+00 -2.85599714e+00 -2.68515695e+00
 -2.51194398e+00 -2.34110379e+00 -2.17026360e+00 -2.00416898e+00
 -1.83807435e+00 -1.67909806e+00 -1.52486733e+00 -1.37775495e+00
 -1.24013368e+00 -1.11437632e+00 -1.00048286e+00 -9.03198864e-01
 -8.17778769e-01 -7.48968137e-01 -6.96766968e-01 -6.56429701e-01
 -6.32701897e-01 -6.23210775e-01 -6.25583556e-01 -6.42193019e-01
 -6.70666384e-01 -7.11003651e-01 -7.67950380e-01 -8.34388232e-01
 -9.17435546e-01 -1.00997398e+00 -1.11674910e+00 -1.23301534e+00
 -1.36114548e+00 -1.49639397e+00 -1.64113357e+00 -1.79061874e+00
 -1.94484946e+00 -2.10382575e+00 -2.26280204e+00 -2.42177833e+00
 -2.57838183e+00 -2.73261256e+00 -2.88209773e+00 -3.01971899e+00
 -3.14784913e+00 -3.25936981e+00 -3.35428103e+00 -3.42309166e+00
 -3.46342893e+00 -3.47529283e+00 -3.45156503e+00 -3.39461830e+00
 -3.29970708e+00 -3.17157694e+00 -3.00785509e+00 -2.81565988e+00
 -2.60210964e+00 -2.36720438e+00 -2.12518078e+00 -1.88078439e+00
 -1.64587913e+00 -1.42758334e+00 -1.23776090e+00 -1.08115739e+00
 -9.62518374e-01 -8.84216621e-01 -8.50997695e-01 -8.53370475e-01
 -8.91334962e-01 -9.57772813e-01 -1.04556569e+00 -1.14284969e+00
 -1.24250646e+00 -1.33979046e+00 -1.42758334e+00 -1.50113953e+00
 -1.55808626e+00 -1.59367796e+00 -1.61266021e+00 -1.61266021e+00
 -1.59367796e+00 -1.55571348e+00 -1.50588509e+00 -1.43707446e+00
 -1.35877270e+00 -1.26623427e+00 -1.16895027e+00 -1.06692071e+00
 -9.67263935e-01 -8.74725499e-01 -7.98796526e-01 -7.46595357e-01
 -7.20494772e-01 -7.29985894e-01 -7.72695941e-01 -8.50997695e-01
 -9.57772813e-01 -1.09064852e+00 -1.24013368e+00 -1.39436441e+00
 -1.54384958e+00 -1.67909806e+00 -1.79299152e+00 -1.87603883e+00
 -1.92586722e+00 -1.94010390e+00 -1.92349444e+00 -1.87366605e+00
 -1.79773708e+00 -1.70045308e+00 -1.58655962e+00 -1.46554782e+00
 -1.33979046e+00 -1.21640588e+00 -1.10251242e+00 -9.98110080e-01
 -9.07944425e-01 -8.32015452e-01 -7.75068722e-01 -7.32358674e-01
 -7.01512529e-01 -6.84903066e-01 -6.73039164e-01 -6.68293603e-01
 -6.63548042e-01 -6.58802481e-01 -6.51684140e-01 -6.42193019e-01
 -6.30329117e-01 -6.18465214e-01 -6.08974093e-01 -6.01855752e-01
 -6.01855752e-01 -6.11346873e-01 -6.30329117e-01 -6.61175262e-01
 -7.01512529e-01 -7.53713698e-01 -8.15405989e-01 -8.84216621e-01
 -9.57772813e-01 -1.03607457e+00 -1.11912188e+00 -1.20216920e+00
 -1.28758929e+00 -1.37538217e+00 -1.45842948e+00 -1.54147679e+00
 -1.61503299e+00 -1.68384362e+00 -1.73841757e+00 -1.78112762e+00
 -1.80722820e+00 -1.81671932e+00 -1.81197376e+00 -1.79299152e+00
 -1.76214537e+00 -1.72180811e+00 -1.67435250e+00 -1.62215133e+00
 -1.56757738e+00 -1.51537621e+00 -1.46554782e+00 -1.42521055e+00
 -1.39436441e+00 -1.38012773e+00 -1.38724607e+00 -1.42046499e+00
 -1.48215728e+00 -1.57706850e+00 -1.70994420e+00 -1.88078439e+00
 -2.08958907e+00 -2.33398545e+00 -2.60685520e+00 -2.90582553e+00
 -3.21903255e+00 -3.54410346e+00 -3.86680160e+00 -4.18475417e+00
 -4.49084285e+00 -4.78032206e+00 -5.05319180e+00 -5.30470653e+00
 -5.53961179e+00 -5.75790759e+00 -5.96196670e+00 -6.15890748e+00
 -6.34872991e+00 -6.53617956e+00 -6.72125643e+00 -6.91107887e+00
 -7.10564686e+00 -7.30733320e+00 -7.51851065e+00 -7.73917923e+00
 -7.96696615e+00 -8.20424419e+00 -8.44626779e+00 -8.69066418e+00
 -8.93506056e+00 -9.17471138e+00 -9.40724386e+00 -9.62553966e+00]","[-2.68602038 -2.42694065 -2.15422516 -1.86787389 -1.57015947 -1.25880928
 -0.93609594 -0.60429209 -0.2702156   0.06158825  0.38430159  0.68883389
  0.9706399   1.22290174  1.43652888  1.61152132  1.74560644  1.83878423
  1.89559996  1.91832625  1.91150837  1.88196419  1.83196635  1.77060536
  1.70015386  1.62061184  1.53425193  1.44561939  1.35016897  1.25017329
  1.14563235  1.03654615  0.92291469  0.80473798  0.682016    0.5570214
  0.42975417  0.30021431  0.17067445  0.03886196 -0.09295053 -0.22476302
 -0.35884814 -0.49066063 -0.62247312 -0.75655824 -0.88837073 -1.02245585
 -1.15426834 -1.28835346 -1.42016595 -1.55197844 -1.68606356 -1.81787605
 -1.95196117 -2.08377366 -2.21558615 -2.34967126 -2.48148375 -2.61556887
 -2.74738136 -2.88146648 -3.01327897 -3.14736409 -3.27917658 -3.41098907
 -3.54280156 -3.67234142 -3.79960865 -3.92460326 -4.0450526  -4.16095669
 -4.27231551 -4.37912908 -4.47912477 -4.57684782 -4.66775298 -4.75638552
 -4.84501806 -4.93365059 -5.02228313 -5.11091567 -5.1995482  -5.29045337
 -5.37681327 -5.45862792 -5.53589731 -5.60634882 -5.6677098  -5.71998027
 -5.76543286 -5.80406755 -5.83815699 -5.8699738  -5.89951798 -5.93133478
 -5.96315159 -5.99951366 -6.04042098 -6.08360094 -6.13132615 -6.17905136
 -6.2290492  -6.27677441 -6.32449962 -6.36767958 -6.40404164 -6.43358582
 -6.45403948 -6.46085737 -6.45403948 -6.43131319 -6.38813324 -6.32677225
 -6.2449576  -6.14268929 -6.01996732 -5.87679168 -5.71998027 -5.54953309
 -5.37454064 -5.1995482  -5.03137365 -4.88138012 -4.75411289 -4.65638984
 -4.59730148 -4.57684782 -4.60184674 -4.67002561 -4.78138444 -4.93137796
 -5.11318829 -5.31772492 -5.53816994 -5.76543286 -5.99042314 -6.20632291
 -6.40404164 -6.57903409]",-0.5377906804303886,0.5729880778458161,4.214465000000001,0.37896499999999955
025,2,1,csm,60b.png,1,1,64,72,58,1,1,275,neu_feedback_onset,3,"[ 1.50865185e+00  1.36274994e+00  1.21684802e+00  1.07615689e+00
  9.38071151e-01  8.02590801e-01  6.67110452e-01  5.26419319e-01
  3.77912013e-01  2.21588533e-01  5.48434876e-02 -1.22323123e-01
 -3.15122082e-01 -5.15737215e-01 -7.29379305e-01 -9.50837568e-01
 -1.17750661e+00 -1.41199183e+00 -1.64647705e+00 -1.88356767e+00
 -2.12065828e+00 -2.35774889e+00 -2.58962872e+00 -2.82150855e+00
 -3.04557220e+00 -3.26442507e+00 -3.47546177e+00 -3.67868230e+00
 -3.87148126e+00 -4.05125326e+00 -4.22060370e+00 -4.37432178e+00
 -4.51240752e+00 -4.62965014e+00 -4.72344422e+00 -4.79378979e+00
 -4.83547605e+00 -4.84589762e+00 -4.82765988e+00 -4.77555205e+00
 -4.69478492e+00 -4.58796387e+00 -4.46029970e+00 -4.31700317e+00
 -4.16589048e+00 -4.01217239e+00 -3.86366508e+00 -3.72557934e+00
 -3.60312595e+00 -3.50151569e+00 -3.41814316e+00 -3.35561377e+00
 -3.31392751e+00 -3.28526821e+00 -3.27224125e+00 -3.26703047e+00
 -3.26703047e+00 -3.27224125e+00 -3.27745203e+00 -3.28005742e+00
 -3.28005742e+00 -3.27745203e+00 -3.26703047e+00 -3.25139812e+00
 -3.22794960e+00 -3.19929029e+00 -3.16281481e+00 -3.11852316e+00
 -3.07162612e+00 -3.02212368e+00 -2.97522664e+00 -2.93093498e+00
 -2.89445951e+00 -2.86840559e+00 -2.85798403e+00 -2.86058942e+00
 -2.87622177e+00 -2.90748646e+00 -2.95177811e+00 -3.00128055e+00
 -3.05859916e+00 -3.11852316e+00 -3.17584177e+00 -3.23055499e+00
 -3.28266281e+00 -3.32955986e+00 -3.37385151e+00 -3.41293238e+00
 -3.44680247e+00 -3.48067256e+00 -3.51193725e+00 -3.54320195e+00
 -3.57186125e+00 -3.60312595e+00 -3.63178525e+00 -3.66044456e+00
 -3.68389308e+00 -3.70734160e+00 -3.72297395e+00 -3.73339552e+00
 -3.73600091e+00 -3.73339552e+00 -3.72036856e+00 -3.69952543e+00
 -3.67347151e+00 -3.64220682e+00 -3.60312595e+00 -3.55883430e+00
 -3.50933186e+00 -3.45461864e+00 -3.38948386e+00 -3.31653290e+00
 -3.23576577e+00 -3.14718246e+00 -3.04817759e+00 -2.94396194e+00
 -2.83714090e+00 -2.73292524e+00 -2.63392037e+00 -2.54533707e+00
 -2.47238611e+00 -2.41767289e+00 -2.38380280e+00 -2.37338124e+00
 -2.38380280e+00 -2.40985672e+00 -2.45154298e+00 -2.50104541e+00
 -2.55315324e+00 -2.60526107e+00 -2.64955272e+00 -2.68602820e+00
 -2.70947672e+00 -2.72250368e+00 -2.72250368e+00 -2.70947672e+00
 -2.68602820e+00 -2.64955272e+00 -2.60005028e+00 -2.53752089e+00
 -2.45675376e+00 -2.36035428e+00 -2.24832245e+00 -2.11544750e+00
 -1.96433480e+00 -1.79498436e+00 -1.61260697e+00 -1.41980801e+00
 -1.21919288e+00 -1.01076157e+00 -8.02330262e-01 -5.96504346e-01
 -3.93283822e-01 -1.92668689e-01  1.30269567e-04  1.87718446e-01
  3.64885057e-01  5.34235494e-01  6.95769756e-01  8.44277063e-01
  9.79757412e-01  1.09960541e+00  1.20642646e+00  1.29500976e+00
  1.37317150e+00  1.43830629e+00  1.49823029e+00  1.55554890e+00
  1.61807829e+00  1.69363464e+00  1.78742873e+00  1.90727673e+00
  2.05838943e+00  2.24076682e+00  2.45440891e+00  2.70192109e+00
  2.97288178e+00  3.26468561e+00  3.56951640e+00  3.87434719e+00
  4.17136180e+00  4.45534945e+00  4.71849398e+00  4.95558459e+00
  5.16662129e+00  5.34639329e+00  5.50271677e+00  5.63038095e+00
  5.73980738e+00  5.83099608e+00  5.90915782e+00  5.97429260e+00
  6.03161121e+00  6.08371904e+00  6.13061608e+00  6.17230235e+00
  6.20877782e+00  6.24525330e+00  6.27912339e+00  6.31038809e+00
  6.33904739e+00  6.36510130e+00  6.39115522e+00  6.40939296e+00
  6.42502530e+00  6.43023609e+00  6.42763070e+00  6.41460374e+00
  6.38594443e+00  6.34425817e+00  6.28433417e+00  6.20877782e+00
  6.11498374e+00  6.00295191e+00  5.87528773e+00  5.73199121e+00
  5.57827312e+00  5.41413347e+00  5.23957225e+00  5.05980024e+00
  4.87481746e+00  4.68722928e+00  4.49964111e+00  4.31465832e+00
  4.13488632e+00  3.96293049e+00  3.80400162e+00  3.66070510e+00
  3.53304092e+00  3.42882527e+00  3.34284735e+00  3.27771257e+00
  3.23342092e+00  3.20736700e+00  3.19955083e+00  3.20476161e+00
  3.22299935e+00  3.25165866e+00  3.28813414e+00  3.33242579e+00
  3.38453362e+00  3.44185222e+00  3.50698701e+00  3.57733257e+00
  3.65549431e+00  3.73626145e+00  3.82484475e+00  3.91342806e+00
  4.00201136e+00  4.08798928e+00  4.16615102e+00  4.23649658e+00
  4.29381519e+00  4.33550145e+00  4.36155537e+00  4.36937154e+00
  4.35894998e+00  4.33289606e+00  4.29381519e+00  4.24170737e+00]","[-1.94636755 -1.7699063  -1.5863866  -1.39816127 -1.20287749 -1.00759372
 -0.80995712 -0.60761489 -0.40291985 -0.19116635  0.0276456   0.25351599
  0.48644484  0.72643213  0.97112506  1.2181708   1.46286373  1.70285103
  1.93107424  2.14282773  2.33811151  2.51221994  2.6628002   2.7898523
  2.89337623  2.97101918  3.02513396  3.06042621  3.07454311  3.07454311
  3.0580734   3.0298396   2.99219453  2.94749102  2.90043468  2.84867272
  2.79691075  2.7475016   2.70044527  2.65809457  2.61809669  2.58280444
  2.54986501  2.51927839  2.49104459  2.46281079  2.43928263  2.41575446
  2.39457911  2.37340376  2.35222841  2.3357587   2.31693616  2.30046645
  2.28399673  2.2651742   2.24635166  2.22752913  2.20164815  2.17341435
  2.1381221   2.0957714   2.04165662  1.98048339  1.90754607  1.82755031
  1.73343764  1.63461934  1.52638978  1.41110177  1.29346093  1.17111447
  1.04641519  0.92171591  0.79466381  0.66761171  0.54055962  0.41586034
  0.28880824  0.16410896  0.03705686 -0.08764242 -0.21469452 -0.3393938
 -0.46644589 -0.59114517 -0.71584446 -0.84054374 -0.96759583 -1.0899423
 -1.21464158 -1.33698804 -1.45698169 -1.5722697  -1.6852049  -1.79108165
 -1.89225276 -1.98401261 -2.06636119 -2.13929851 -2.20282456 -2.25693934
 -2.30399567 -2.34869919 -2.39104989 -2.4357534  -2.48045692 -2.52986607
 -2.58162803 -2.63339    -2.68515196 -2.72985548 -2.76750054 -2.79102871
 -2.80279279 -2.79808716 -2.78397026 -2.76279491 -2.73691393 -2.71338576
 -2.69926886 -2.69691605 -2.71338576 -2.74632519 -2.79573434 -2.86631884
 -2.95102024 -3.0451329  -3.15100965 -3.26394485 -3.37923286 -3.49687369
 -3.61451453 -3.73215536 -3.84979619 -3.9650842  -4.08037222 -4.1909546
 -4.30153698 -4.40976654]",5.833731741091834,2.1872371462687403,3.8381950000000002,-0.04794500000000035
025,2,1,csp,45a.png,1,1,216,222,219,1,1,444,pos_feedback_onset,4,"[ 1.00746167e+00  1.04690231e+00  1.06908766e+00  1.06662262e+00
  1.03704215e+00  9.75416160e-01  8.84209696e-01  7.56027638e-01
  5.98265105e-01  4.10922097e-01  1.98928694e-01 -3.03199868e-02
 -2.74358905e-01 -5.23327902e-01 -7.74761939e-01 -1.02126590e+00
 -1.26530481e+00 -1.49948357e+00 -1.72380218e+00 -1.93826062e+00
 -2.14285890e+00 -2.34006207e+00 -2.52494004e+00 -2.69995785e+00
 -2.86511550e+00 -3.02041299e+00 -3.16831537e+00 -3.30389254e+00
 -3.42960956e+00 -3.54053634e+00 -3.64160297e+00 -3.72787935e+00
 -3.79936550e+00 -3.85606141e+00 -3.89303700e+00 -3.91522236e+00
 -3.91522236e+00 -3.90043212e+00 -3.86345653e+00 -3.81169070e+00
 -3.73773951e+00 -3.64899808e+00 -3.53807130e+00 -3.41235429e+00
 -3.26691695e+00 -3.10915442e+00 -2.93660165e+00 -2.75911880e+00
 -2.57670587e+00 -2.39922302e+00 -2.23406537e+00 -2.08616299e+00
 -1.96784109e+00 -1.88156471e+00 -1.83472896e+00 -1.82733384e+00
 -1.86184439e+00 -1.94072566e+00 -2.05658252e+00 -2.20941497e+00
 -2.39182790e+00 -2.60135626e+00 -2.83060495e+00 -3.07710890e+00
 -3.33347302e+00 -3.59969729e+00 -3.86838661e+00 -4.13214584e+00
 -4.39097500e+00 -4.63747895e+00 -4.86426260e+00 -5.06639584e+00
 -5.24141365e+00 -5.38192091e+00 -5.48791761e+00 -5.56186880e+00
 -5.60130943e+00 -5.61363463e+00 -5.59884439e+00 -5.56679887e+00
 -5.52242816e+00 -5.47066233e+00 -5.41396642e+00 -5.35973555e+00
 -5.31043476e+00 -5.26606405e+00 -5.23155349e+00 -5.20443806e+00
 -5.17978766e+00 -5.16006734e+00 -5.13788199e+00 -5.11076655e+00
 -5.07132592e+00 -5.01956009e+00 -4.94807394e+00 -4.85933252e+00
 -4.75580085e+00 -4.63501392e+00 -4.50436682e+00 -4.36632460e+00
 -4.23074742e+00 -4.09763529e+00 -3.97684835e+00 -3.87085165e+00
 -3.78211022e+00 -3.71062407e+00 -3.65392816e+00 -3.61202249e+00
 -3.57997698e+00 -3.54793146e+00 -3.51588595e+00 -3.47151524e+00
 -3.41728436e+00 -3.34333318e+00 -3.25459175e+00 -3.14613001e+00
 -3.02287803e+00 -2.89223093e+00 -2.75418872e+00 -2.61614650e+00
 -2.48549940e+00 -2.36964254e+00 -2.26611088e+00 -2.18476458e+00
 -2.12067355e+00 -2.07876787e+00 -2.05165244e+00 -2.03686220e+00
 -2.02700204e+00 -2.01467685e+00 -1.99495653e+00 -1.95551590e+00
 -1.89142487e+00 -1.79528832e+00 -1.66217619e+00 -1.48715838e+00
 -1.27269993e+00 -1.01880086e+00 -7.32856266e-01 -4.22261279e-01
 -9.44110158e-02  2.38369327e-01  5.71149670e-01  8.91604815e-01
  1.19480468e+00  1.47581919e+00  1.72971827e+00  1.95896695e+00
  2.15863516e+00  2.33365297e+00  2.48402038e+00  2.60973740e+00
  2.71573410e+00  2.80201049e+00  2.86856655e+00  2.91540231e+00
  2.94005270e+00  2.94498278e+00  2.92526247e+00  2.88582183e+00
  2.82173080e+00  2.73545442e+00  2.62945772e+00  2.50620574e+00
  2.36569848e+00  2.21533107e+00  2.05756853e+00  1.89734096e+00
  1.73711339e+00  1.58181590e+00  1.43637856e+00  1.30080138e+00
  1.17754941e+00  1.06415759e+00  9.63090962e-01  8.69419459e-01
  7.85608113e-01  7.09191886e-01  6.37705738e-01  5.68684630e-01
  5.02128562e-01  4.40502572e-01  3.78876583e-01  3.19715633e-01
  2.63019723e-01  2.08788852e-01  1.57023021e-01  1.07722229e-01
  6.33515171e-02  2.39108839e-02 -8.13463060e-03 -3.27850264e-02
 -4.51102242e-02 -4.51102242e-02 -2.78549472e-02  6.65560686e-03
  5.59563984e-02  1.17582388e-01  1.89068535e-01  2.63019723e-01
  3.32040831e-01  3.83806662e-01  4.10922097e-01  4.05992018e-01
  3.64086345e-01  2.77809960e-01  1.47162863e-01 -2.29248681e-02
 -2.29988192e-01 -4.69097031e-01 -7.32856266e-01 -1.01880086e+00
 -1.31460561e+00 -1.62273555e+00 -1.93579558e+00 -2.24885561e+00
 -2.56438067e+00 -2.87744070e+00 -3.18803568e+00 -3.49370059e+00
 -3.78950534e+00 -4.07791497e+00 -4.35399940e+00 -4.61529360e+00
 -4.85686748e+00 -5.07872104e+00 -5.27838924e+00 -5.45340705e+00
 -5.60377447e+00 -5.73195653e+00 -5.83548819e+00 -5.92422961e+00
 -5.99571576e+00 -6.05734175e+00 -6.11157262e+00 -6.16580349e+00
 -6.22496444e+00 -6.28905547e+00 -6.36547170e+00 -6.45667816e+00
 -6.56267486e+00 -6.68592684e+00 -6.82889914e+00 -6.98666167e+00
 -7.16167948e+00 -7.34902249e+00 -7.54869069e+00 -7.76068410e+00
 -7.97760758e+00 -8.20192618e+00 -8.43117486e+00 -8.66042354e+00
 -8.88967222e+00 -9.11892090e+00 -9.34570455e+00 -9.56755811e+00
 -9.78201655e+00 -9.98661484e+00 -1.01788879e+01 -1.03588358e+01]","[-3.32775609 -3.05013323 -2.76259528 -2.45770589 -2.13794386 -1.79835161
 -1.43892917 -1.0621553  -0.66555122 -0.25407449  0.16979612  0.5961455
  1.02001611  1.43149284  1.82561814  2.19247692  2.52711161  2.82208589
  3.07739976  3.29305323  3.47152507  3.61529404  3.72931772  3.82598996
  3.90778955  3.98463159  4.06147363  4.14327322  4.23498792  4.33413894
  4.44320506  4.56218628  4.69108261  4.82741526  4.96870546  5.11247444
  5.26120097  5.41240627  5.56361158  5.71481688  5.86850096  6.01970627
  6.17339035  6.32707443  6.48075851  6.63196381  6.78564789  6.93685319
  7.0880585   7.2392638   7.38551156  7.52928054  7.66561319  7.79450951
  7.91101196  8.01264175  8.09444135  8.15393196  8.18615604  8.18863481
  8.15888951  8.0993989   8.01264175  7.89613931  7.75732788  7.60116502
  7.42765074  7.24422135  7.05087687  6.84761728  6.63196381  6.40887402
  6.17091157  5.92055525  5.65532627  5.38018219  5.09512301  4.80510628
  4.51508955  4.23250914  3.95984384  3.70452996  3.47152507  3.26082915
  3.07739976  2.91627936  2.78242548  2.67335936  2.58412344  2.51471773
  2.46266344  2.42548181  2.40565161  2.40069406  2.40813038  2.42548181
  2.45522712  2.49488753  2.54198426  2.59155977  2.64609283  2.70310467
  2.76259528  2.82208589  2.88405528  2.95346099  3.03030303  3.12201772
  3.23356262  3.36493772  3.52357935  3.70700874  3.91770465  4.15318832
  4.40354465  4.6613373   4.92160873  5.17444382  5.40744872  5.61814464
  5.79909525  5.95030055  6.066803    6.15603892  6.2180083   6.25518994
  6.27502014  6.28245647  6.27997769  6.27502014  6.27254136  6.27749892
  6.29237157  6.32211687  6.37417116  6.44357687  6.54024912  6.65923034
  6.79804177  6.95420462]",1.7130176274980102,6.921670694676827,4.05673,0.33142000000000005
025,2,1,csm,9b.png,1,0,156,NaN,158,1,0,462,neu_feedback_onset,5,"[ 0.23903982  0.25732202  0.26646312  0.26646312  0.25732202  0.23903982
  0.21390179  0.17733738  0.13620242  0.08821163  0.0356503  -0.01919631
 -0.07175765 -0.12660426 -0.1791656  -0.23172694 -0.28657355 -0.34827599
 -0.41683425 -0.4968189  -0.59051519 -0.69563787 -0.81218692 -0.93787707
 -1.07270833 -1.20982486 -1.34694139 -1.48177264 -1.61431862 -1.74000878
 -1.86341365 -1.98681853 -2.10793813 -2.23591356 -2.36845954 -2.50786135
 -2.65640426 -2.81637354 -2.98091338 -3.15230904 -3.32370471 -3.49510037
 -3.66421076 -3.82189477 -3.97272295 -4.10983948 -4.23552964 -4.34979341
 -4.45263081 -4.55089766 -4.6400234  -4.72686387 -4.81370434 -4.90054481
 -4.98738528 -5.0787963  -5.1724926  -5.27075944 -5.36902629 -5.46729314
 -5.56555998 -5.66382683 -5.75752313 -5.8443636  -5.92663351 -5.99976233
 -6.06375005 -6.11402611 -6.15287579 -6.1802991  -6.19629603 -6.1985813
 -6.19401075 -6.1802991  -6.16201689 -6.13916414 -6.11174083 -6.08203225
 -6.04775312 -6.00890343 -5.96319792 -5.91063659 -5.84893415 -5.78037588
 -5.70496179 -5.6295477  -5.55641888 -5.49014589 -5.43529928 -5.39416432
