sub,run,cat_cond,trial_type,picture,old,response_old,target_pos,response_pos,dot_resp_loc,cat_corr,TN_corr,TN_rt,feedback_type,trial,SP_timeseries,FB_timeseries,SP_peak_response,FB_peak_response,preStim_bl,anticipation
037,1,2,csm,41a.png,1,0,352,NaN,352,1,1,356,neu_feedback_onset,1,"[-1.42239686 -1.30523308 -1.17378103 -1.03089837 -0.87944276 -0.71655653
 -0.54795499 -0.37363815 -0.19646365 -0.01643151  0.16360064  0.33791749
  0.50366137  0.65797464  0.79514199  0.91230577  1.00660832  1.06947669
  1.10662618  1.10948384  1.08662261  1.03518485  0.96374353  0.87801393
  0.78371138  0.68940882  0.60367923  0.5322379   0.48651545  0.46936953
  0.48651545  0.53795321  0.6236828   0.74370423  0.8923022   1.05804608
  1.23522058  1.41525272  1.58671191  1.74674049  1.88390784  1.99249866
  2.0696553   2.11252009  2.12109305  2.09537417  2.04679407  1.97821039
  1.90391141  1.83532774  1.78388998  1.7581711   1.76674406  1.81818182
  1.90676907  2.0325058   2.19253438  2.37828184  2.58403286  2.79835685
  3.01839614  3.23843543  3.45275942  3.65851045  3.85568852  4.04429362
  4.22146812  4.387212    4.53866762  4.67869262  4.80442936  4.91302018
  5.00446508  5.07304876  5.12448652  5.15306305  5.15877835  5.15020539
  5.12448652  5.09019468  5.04732988  5.00446508  4.96160029  4.92159314
  4.89015896  4.86729773  4.85300947  4.84729416  4.85015181  4.85872477
  4.87587069  4.89873192  4.92730845  4.96160029  5.00446508  5.05304519
  5.1130559   5.18163958  5.26165387  5.35024111  5.44740132  5.55027684
  5.65315235  5.75317021  5.84175746  5.91605644  5.9674942   5.99035542
  5.97606715  5.9246294   5.83032684  5.6988748   5.53027326  5.33023754
  5.1073406   4.87015538  4.63011252  4.39864261  4.18146098  3.99285587
  3.8385426   3.72137882  3.64707984  3.61564565  3.62993392  3.68137167
  3.76995892  3.88998035  4.03286301  4.19860689  4.37578139  4.56152884
  4.75013395  4.93873906  5.12162886  5.2959457   5.46168959  5.61600286
  5.75888552  5.88747991  6.00178603  6.10466155  6.19324879  6.27040543
  6.33613145  6.38756921  6.43329166  6.46472584  6.49044472  6.50759064
  6.5161636   6.51902125  6.5161636   6.50473299  6.48758707  6.46186819
  6.43329166  6.39614217  6.35327737  6.30755492  6.25611716  6.20182175
  6.14181104  6.07608502  6.00464369  5.9246294   5.83604215  5.73888194
  5.63029112  5.51026969  5.38453295  5.25308091  5.12162886  4.99589212
  4.87872834  4.77585283  4.69298089  4.63011252  4.59010538  4.57295946
  4.57867476  4.60439364  4.64725844  4.7044115   4.77871048  4.86444008
  4.96445794  5.07590641  5.2045008   5.34738346  5.50455438  5.67601357
  5.85890338  6.04750848  6.23611359  6.41614574  6.58474728  6.73048759
  6.84765137  6.93338096  6.98196106  6.99339168  6.9676728   6.90766208
  6.81907483  6.70762636  6.57617432  6.43329166  6.28183604  6.13038043
  5.98464011  5.84747276  5.73030898  5.63600643  5.57313806  5.54456153
  5.55884979  5.61886051  5.72173602  5.87319164  6.06751206  6.30183961
  6.57331666  6.8762279   7.20485801  7.55634935  7.9249866   8.31076978
  8.71084122  9.12520093  9.55099125  9.98535453 10.43114842 10.88265762
 11.33130916 11.7742454  12.20003572 12.60010716 12.96588677 13.28594392
 13.55456331 13.75745669 13.89462404 13.96035006 13.95463476 13.88033577
 13.74031077 13.54027505 13.29165922 13.00303626 12.68583676 12.34577603
 11.99142704 11.6342204  11.2741561  10.9140918  10.56260046 10.21396678
  9.87676371  9.5481336 ]","[-2.15290366 -1.9208509  -1.6860681  -1.44855527 -1.2083124  -0.96260947
 -0.71690655 -0.46574355 -0.21731059  0.02839234  0.2686352   0.49795794
  0.71090047  0.90746282  1.08491493  1.23779675  1.36883832  1.47530959
  1.56267063  1.63638151  1.69644222  1.74831284  1.80018346  1.85478411
  1.91484482  1.98036561  2.05407648  2.13597746  2.21787844  2.29977941
  2.37622032  2.44174111  2.49088169  2.52364208  2.53183218  2.51818202
  2.48269159  2.42536091  2.34892     2.25609889  2.14689759  2.02950619
  1.90665473  1.77561317  1.6445716   1.51353004  1.38521851  1.25963701
  1.14224562  1.03304431  0.93476314  0.84467207  0.77096119  0.70544041
  0.65356979  0.60988927  0.57166881  0.53617839  0.50068797  0.46519755
  0.42151702  0.37237644  0.31504576  0.24952497  0.17854413  0.10210322
  0.02566231 -0.05077861 -0.12448948 -0.19547033 -0.25826108 -0.31559176
 -0.36746238 -0.41660297 -0.46574355 -0.51488414 -0.56675476 -0.62408544
 -0.68414616 -0.74966694 -0.81791775 -0.88343853 -0.94622928 -1.00355996
 -1.04997052 -1.08819097 -1.1154913  -1.12914146 -1.13733156 -1.14006159
 -1.13733156 -1.13460152 -1.13733156 -1.14552165 -1.16463188 -1.19193221
 -1.23561273 -1.29021338 -1.35846419 -1.4430952  -1.53864634 -1.64511761
 -1.76523904 -1.89355057 -2.03551226 -2.18566405 -2.34946601 -2.52418809
 -2.71529037 -2.91731277 -3.13025531 -3.35138795 -3.57525062 -3.80184332
 -4.02024592 -4.22772839 -4.41883067 -4.59082272 -4.73824448 -4.85836591
 -4.95391705 -5.0248979  -5.07130845 -5.09587874 -5.10679887 -5.10406884
 -5.09314871 -5.07676852 -5.06311835 -5.05219822 -5.04400812 -5.04400812
 -5.05219822 -5.06584838 -5.08768865 -5.10952891 -5.1340992  -5.15866949
 -5.17777972 -5.18596982]",11.306517090407079,1.788922073951109,3.4993749999999997,-0.1302500000000002
037,1,2,csm,37a.png,1,1,56,22,55,1,1,681,neu_feedback_onset,2,"[-8.57459729e-01 -7.46838064e-01 -6.39052852e-01 -5.34104092e-01
 -4.34828239e-01 -3.44061744e-01 -2.58968155e-01 -1.79547472e-01
 -1.02963242e-01 -2.92154655e-02  4.45323115e-02  1.18280088e-01
  1.94864318e-01  2.74285001e-01  3.56542137e-01  4.44472179e-01
  5.35238673e-01  6.26005168e-01  7.19608116e-01  8.13211063e-01
  9.06814011e-01  9.94744053e-01  1.07700119e+00  1.15358542e+00
  1.21882384e+00  1.27555290e+00  1.31809969e+00  1.34646422e+00
  1.35781003e+00  1.35781003e+00  1.34362777e+00  1.31809969e+00
  1.28689871e+00  1.25569772e+00  1.22733320e+00  1.20747802e+00
  1.19896867e+00  1.20464157e+00  1.22733320e+00  1.26704354e+00
  1.31809969e+00  1.38050166e+00  1.44574007e+00  1.50814204e+00
  1.56487110e+00  1.60458144e+00  1.62443661e+00  1.61876370e+00
  1.59039917e+00  1.53367011e+00  1.45141298e+00  1.35213713e+00
  1.23300610e+00  1.09969281e+00  9.63543070e-01  8.24556875e-01
  6.91243586e-01  5.60766750e-01  4.44472179e-01  3.33850513e-01
  2.37411113e-01  1.49481071e-01  7.00603881e-02 -8.50935888e-04
 -6.89258069e-02 -1.31327772e-01 -1.93729737e-01 -2.53295249e-01
 -3.12860761e-01 -3.72426273e-01 -4.37664692e-01 -5.02903110e-01
 -5.70977981e-01 -6.44725758e-01 -7.18473534e-01 -7.97894217e-01
 -8.80151353e-01 -9.65244942e-01 -1.05317498e+00 -1.14394148e+00
 -1.23187152e+00 -1.32263801e+00 -1.41056806e+00 -1.49849810e+00
 -1.58075523e+00 -1.65450301e+00 -1.72257788e+00 -1.77930694e+00
 -1.82469019e+00 -1.85305472e+00 -1.86440053e+00 -1.86156408e+00
 -1.83887245e+00 -1.80199856e+00 -1.75661532e+00 -1.69988626e+00
 -1.64599365e+00 -1.59493750e+00 -1.55806361e+00 -1.53537199e+00
 -1.53820844e+00 -1.56373652e+00 -1.61479267e+00 -1.69704981e+00
 -1.80199856e+00 -1.92963895e+00 -2.07429805e+00 -2.23597587e+00
 -2.40616304e+00 -2.57918668e+00 -2.74937385e+00 -2.91388812e+00
 -3.06705658e+00 -3.20604278e+00 -3.32233735e+00 -3.41594030e+00
 -3.48401517e+00 -3.52939842e+00 -3.54925359e+00 -3.54641713e+00
 -3.52656196e+00 -3.48685162e+00 -3.43863192e+00 -3.37906641e+00
 -3.31099154e+00 -3.24008021e+00 -3.16065953e+00 -3.08123885e+00
 -2.99614526e+00 -2.90821522e+00 -2.82028518e+00 -2.72951868e+00
 -2.63591573e+00 -2.54514924e+00 -2.45154629e+00 -2.36077980e+00
 -2.27001330e+00 -2.17924681e+00 -2.09131677e+00 -2.00622318e+00
 -1.92680249e+00 -1.85021827e+00 -1.78214339e+00 -1.71974143e+00
 -1.66584882e+00 -1.62330203e+00 -1.58926459e+00 -1.56940942e+00
 -1.55806361e+00 -1.55806361e+00 -1.56657297e+00 -1.58642814e+00
 -1.61479267e+00 -1.65166656e+00 -1.69988626e+00 -1.75661532e+00
 -1.82469019e+00 -1.90411087e+00 -1.99487737e+00 -2.09415322e+00
 -2.20477488e+00 -2.32390591e+00 -2.45154629e+00 -2.58202313e+00
 -2.71817287e+00 -2.85432261e+00 -2.98763590e+00 -3.11811274e+00
 -3.24575312e+00 -3.36488415e+00 -3.47550581e+00 -3.57761812e+00
 -3.67122106e+00 -3.74780529e+00 -3.81304371e+00 -3.86126341e+00
 -3.89246440e+00 -3.90381021e+00 -3.89813730e+00 -3.86693632e+00
 -3.81871662e+00 -3.74780529e+00 -3.65987525e+00 -3.55492649e+00
 -3.43295902e+00 -3.29680927e+00 -3.15215017e+00 -2.99898171e+00
 -2.84297680e+00 -2.68697189e+00 -2.53096698e+00 -2.38063497e+00
 -2.23313941e+00 -2.09698967e+00 -1.96651284e+00 -1.84738181e+00
 -1.73392369e+00 -1.62897493e+00 -1.52969908e+00 -1.43609613e+00
 -1.34532964e+00 -1.26023605e+00 -1.17514246e+00 -1.09004887e+00
 -1.01062819e+00 -9.31207506e-01 -8.54623277e-01 -7.78039047e-01
 -7.01454817e-01 -6.22034134e-01 -5.36940545e-01 -4.46174050e-01
 -3.44061744e-01 -2.33440079e-01 -1.08636148e-01  3.03500467e-02
  1.77845601e-01  3.39523419e-01  5.09710597e-01  6.88407133e-01
  8.75613028e-01  1.06565538e+00  1.25853418e+00  1.45708588e+00
  1.65563759e+00  1.85418930e+00  2.04990455e+00  2.24561981e+00
  2.43566216e+00  2.62286805e+00  2.80156459e+00  2.96891531e+00
  3.12775668e+00  3.27241578e+00  3.40572907e+00  3.51918719e+00
  3.61562659e+00  3.69221082e+00  3.74610342e+00  3.77730441e+00
  3.78297731e+00  3.76312214e+00  3.72057535e+00  3.64966402e+00
  3.55889753e+00  3.44827586e+00  3.32063548e+00  3.17597638e+00
  3.01997147e+00  2.85829365e+00  2.68527002e+00  2.51224639e+00
  2.33354985e+00  2.15201686e+00  1.96764742e+00  1.78327798e+00
  1.59607208e+00  1.40886618e+00  1.21882384e+00  1.02878149e+00]","[-2.75057619 -2.64778125 -2.49629397 -2.29881948 -2.05806291 -1.77672939
 -1.46563944 -1.12479306 -0.76230564 -0.38088231  0.01136155  0.41172079
  0.81478516  1.21784953  1.61820877  2.01045262  2.39187595  2.7570685
  3.10332515  3.42523562  3.72009479  3.9824924   4.20972332  4.39908242
  4.54786457  4.65606977  4.72910828  4.76427497  4.77239036  4.75886471
  4.72640315  4.68312107  4.63713386  4.58844152  4.54515944  4.50728762
  4.47482606  4.45047989  4.42883885  4.41260807  4.40178755  4.39367216
  4.38555677  4.38014651  4.37473625  4.36932599  4.36662086  4.3612106
  4.35850547  4.35309521  4.35039008  4.34497982  4.34227469  4.33686443
  4.3341593   4.32874904  4.32333878  4.31792852  4.30981313  4.30169774
  4.28546696  4.26653105  4.23406949  4.19078741  4.12856942  4.03930013
  3.91756928  3.75255635  3.54155621  3.27104321  2.93831222  2.53524784
  2.06455522  1.52623435  0.92840062  0.27646429 -0.416049   -1.13290845
 -1.85788329 -2.57744787 -3.27266628 -3.93271801 -4.54407739 -5.09862904
 -5.59366783 -6.02648863 -6.39979657 -6.71359166 -6.9786944  -7.19780993
 -7.37905364 -7.53054092 -7.65768203 -7.7631821  -7.85515652 -7.93360529
 -7.99852841 -8.05804127 -8.10673361 -8.14731056 -8.18247725 -8.20682342
 -8.22846446 -8.24199011 -8.24740037 -8.2501055  -8.24199011 -8.23116959
 -8.20952855 -8.17977212 -8.14460543 -8.09861822 -8.04992588 -7.99852841
 -7.94983607 -7.90655399 -7.8713873  -7.84974626 -7.844336   -7.85515652
 -7.88220782 -7.92007964 -7.97147711 -8.02557971 -8.07968231 -8.12837465
 -8.1689516  -8.19870803 -8.21223368 -8.20952855 -8.19059264 -8.15813108
 -8.10673361 -8.04181049 -7.96606685 -7.87679756 -7.77941288 -7.67391281
 -7.56029735 -7.44127163]",2.610813125969691,3.5411504376900167,3.5255300000000007,-0.06448500000000035
037,1,2,csp,1b.png,1,1,176,180,176,1,0,548,neg_feedback_onset,3,"[-1.32669386 -1.18845159 -1.04732926 -0.90044684 -0.75068437 -0.59804186
 -0.44251929 -0.28699673 -0.13147417  0.0240484   0.17381086  0.31493319
  0.44741537  0.56837737  0.67781917  0.76998069  0.84774197  0.90822297
  0.95430373  0.98598425  1.00326453  1.00614458  0.99750444  0.98022415
  0.94854363  0.90822297  0.85926216  0.79590112  0.72101988  0.63173841
  0.5280567   0.40421466  0.26021229  0.09604958 -0.08539341 -0.28699673
 -0.49724019 -0.70748366 -0.90908698 -1.09052997 -1.23741239 -1.34397415
 -1.39869505 -1.4015751  -1.35261429 -1.25757272 -1.1164504  -0.94364755
 -0.74492428 -0.53468081 -0.31867725 -0.10843379  0.08452939  0.25445219
  0.38981442  0.48485599  0.5338168   0.53093675  0.47621585  0.37253414
  0.22277167  0.03268854 -0.18619507 -0.42811906 -0.68444328 -0.94364755
 -1.19997178 -1.44765586 -1.6809397  -1.89982331 -2.10142663 -2.28574967
 -2.45855252 -2.61407508 -2.7609575  -2.89343968 -3.02016177 -3.13824372
 -3.24480547 -3.33984704 -3.42624846 -3.4953696  -3.55009051 -3.58753112
 -3.60481141 -3.60481141 -3.58465108 -3.55009051 -3.50400975 -3.4464088
 -3.38304775 -3.31680666 -3.25344562 -3.19584467 -3.14400381 -3.1008031
 -3.06336248 -3.02880191 -2.99712139 -2.96256082 -2.91936011 -2.8703993
 -2.80991831 -2.73503707 -2.64863565 -2.55071404 -2.44127223 -2.32607033
 -2.20222829 -2.0755062  -1.94878412 -1.81918198 -1.68957984 -1.56285776
 -1.43613567 -1.30941358 -1.18557154 -1.05884945 -0.93500741 -0.80828532
 -0.68156323 -0.5519611  -0.42523901 -0.29275682 -0.16027464 -0.02779246
  0.10756977  0.242932    0.37829423  0.51077642  0.64037855  0.76422059
  0.88230254  0.9888643   1.08678591  1.16742724  1.23366833  1.28262914
  1.31430966  1.3229498   1.31430966  1.28838923  1.24518852  1.19046762
  1.12998662  1.06662558  1.00902463  0.95718377  0.9226232   0.90534292
  0.91110301  0.93990349  0.99462439  1.07238567  1.17030729  1.28838923
  1.41799137  1.5533536   1.69447592  1.8327182   1.96520039  2.09192247
  2.20712437  2.31368613  2.41448779  2.50664931  2.59881083  2.69097235
  2.78313387  2.88393553  2.99049728  3.10569918  3.23242127  3.3677835
  3.50890583  3.65578825  3.80267067  3.94667304  4.07915522  4.19147708
  4.28363859  4.34411959  4.37292007  4.36139988  4.30667897  4.21451746
  4.08203527  3.91499252  3.71626924  3.49738564  3.26122174  3.01929776
  2.77737377  2.54696997  2.32808637  2.12648304  1.9479201   1.79527759
  1.6627954   1.55623365  1.46983222  1.40071108  1.35175028  1.31430966
  1.28838923  1.273989    1.2682289   1.27110895  1.27974909  1.29990942
  1.3287099   1.37191061  1.42951156  1.50727284  1.60519445  1.72615645
  1.87303887  2.04872176  2.25608518  2.48936902  2.75433339  3.04809823
  3.3677835   3.7133892   4.07627518  4.45644144  4.8481279   5.24845449
  5.65166114  6.04910769  6.44079414  6.81808036  7.17808629  7.50929175
  7.81457678  8.0824212   8.312825    8.50290813  8.64979055  8.75347226
  8.8168333   8.83699363  8.8225934   8.77075254  8.69011121  8.58066941
  8.44818723  8.29554471  8.12562191  7.94417892  7.75409579  7.56401265
  7.37680957  7.19824663  7.03696397  6.89584164  6.78063974  6.69135827
  6.63087728  6.59919675]","[-1.62045968 -1.61494791 -1.59565673 -1.55983024 -1.49920079 -1.40825663
 -1.28148597 -1.11613294 -0.90944166 -0.66141211 -0.3748002  -0.05236179
  0.29763545  0.67519153  1.0720388   1.48266549  1.90431571  2.32872182
  2.75588381  3.17753404  3.59642837  4.00981095  4.41216998  4.80350548
  5.18106157  5.54208235  5.88381194  6.20349446  6.49837403  6.75742711
  6.98340958  7.16805379  7.30860387  7.39679215  7.43537452  7.42435099
  7.36372155  7.25624208  7.11293612  6.94207132  6.75191534  6.55624759
  6.36333572  6.18144739  6.01885025  5.87554429  5.7542854   5.65782947
  5.57790884  5.51727939  5.47042937  5.43460288  5.40704404  5.39050874
  5.3794852   5.3794852   5.39050874  5.40979992  5.44562641  5.49247644
  5.55586176  5.63027063  5.71570303  5.81215896  5.91412666  6.01885025
  6.12081795  6.21176211  6.29168274  6.35506807  6.39365044  6.41018575
  6.39916221  6.35782395  6.28892686  6.19247093  6.06845615  5.91688254
  5.74326186  5.55035     5.34090283  5.11492035  4.88067023  4.63815246
  4.39012291  4.13933749  3.88855206  3.63776663  3.38973709  3.14170755
  2.893678    2.64564846  2.39486303  2.14132172  1.88226864  1.6177038
  1.35038307  1.08030645  0.80747396  0.53739734  0.2728325   0.0165353
 -0.22598247 -0.45747671 -0.67243565 -0.8681034  -1.04999173 -1.21258888
 -1.36416249 -1.49920079 -1.62321557 -1.73896269 -1.84644215 -1.94565397
 -2.03935402 -2.1275423  -2.21021882 -2.29013945 -2.36179243 -2.43344541
 -2.49683073 -2.55746018 -2.61533374 -2.66218376 -2.7062779  -2.73934851
 -2.76415146 -2.77793088 -2.78344265 -2.77793088 -2.76139558 -2.73659263
 -2.7062779  -2.66769553 -2.62360139 -2.5712396  -2.51061015 -2.44171306
 -2.36179243 -2.27360414]",7.035413174378361,5.498952764151463,3.4721649999999995,
037,1,2,csp,26b.png,1,1,104,90,106,1,1,868,neg_feedback_onset,4,"[-0.40073231 -0.44891088 -0.47158315 -0.46591508 -0.43757475 -0.38372811
 -0.31287728 -0.22502225 -0.12583108 -0.02380588  0.08105335  0.17741049
  0.26526552  0.33611635  0.38712895  0.41830332  0.43247349  0.42397139
  0.40413315  0.37012475  0.32761425  0.28510375  0.23975922  0.19441469
  0.15757225  0.12356385  0.09805755  0.07821932  0.06404915  0.05271302
  0.04987899  0.04987899  0.05554705  0.06971722  0.08672142  0.10655965
  0.13206595  0.15473822  0.17457645  0.18874662  0.19158065  0.18307855
  0.15473822  0.10939369  0.04704495 -0.02947395 -0.12016301 -0.22218821
 -0.32988148 -0.44324281 -0.55660415 -0.67279951 -0.78616085 -0.89668815
 -1.00438142 -1.10924065 -1.21126585 -1.30762298 -1.40114608 -1.49183515
 -1.57402212 -1.64770698 -1.71288975 -1.76957042 -1.82058302 -1.86025948
 -1.89710192 -1.93111032 -1.96511872 -2.00479518 -2.05297375 -2.11248845
 -2.18900735 -2.28536449 -2.40155985 -2.53759345 -2.69063125 -2.86067325
 -3.04488542 -3.23759969 -3.43031395 -3.62302822 -3.80440636 -3.97161432
 -4.12181809 -4.24934959 -4.35420882 -4.43639579 -4.49874452 -4.54125502
 -4.56959536 -4.58376552 -4.58943359 -4.58376552 -4.56959536 -4.54408906
 -4.51008066 -4.46190209 -4.39671932 -4.31169832 -4.20683909 -4.07647356
 -3.92060172 -3.73922359 -3.53800722 -3.32262069 -3.09589802 -2.86917535
 -2.65378882 -2.45257245 -2.27686239 -2.13232668 -2.01896535 -1.94528048
 -1.90276998 -1.89993595 -1.92827628 -1.98779098 -2.07564602 -2.19184138
 -2.33637709 -2.50358505 -2.69629932 -2.91168585 -3.14691062 -3.40197362
 -3.67687485 -3.96311222 -4.26068572 -4.56676132 -4.87567096 -5.18458059
 -5.49065619 -5.78539566 -6.06596496 -6.32669603 -6.56192079 -6.76880523
 -6.93884723 -7.06921276 -7.1570678  -7.1995783  -7.19674426 -7.1485657
 -7.05787663 -6.93317916 -6.78014136 -6.60443129 -6.41455106 -6.21616873
 -6.02062043 -5.82790616 -5.64936206 -5.48215409 -5.33195033 -5.19875076
 -5.07972136 -4.98053019 -4.89267516 -4.81899029 -4.75947559 -4.70846299
 -4.66595249 -4.62911006 -4.59510166 -4.55825922 -4.52141679 -4.47607226
 -4.41939159 -4.35420882 -4.27485589 -4.18133279 -4.07647356 -3.96311222
 -3.84408282 -3.71938535 -3.59468789 -3.47565849 -3.36229715 -3.25743792
 -3.16108079 -3.08172785 -3.01654509 -2.96836652 -2.93719215 -2.92302199
 -2.92585602 -2.95136232 -2.99103879 -3.04771945 -3.11573625 -3.19508919
 -3.28011019 -3.36796522 -3.45298622 -3.52950512 -3.59185385 -3.63719839
 -3.66270469 -3.66553872 -3.64286645 -3.59468789 -3.52383705 -3.42747992
 -3.30845052 -3.16958289 -3.00804299 -2.83233292 -2.63961865 -2.43273422
 -2.21734768 -1.99062502 -1.75823428 -1.52300952 -1.28495072 -1.05255998
 -0.82016925 -0.59628061 -0.38089408 -0.17400965  0.02153865  0.20575082
  0.37862685  0.54016675  0.69320455  0.83490622  0.97093982  1.09847132
  1.22033476  1.33936416  1.46122759  1.58309102  1.70778849  1.83815402
  1.97418762  2.11305526  2.25759096  2.40496069  2.55516446  2.70820226
  2.86124006  3.01427786  3.16448163  3.30901733  3.44788496  3.57825049
  3.69727989  3.7993051   3.88716013  3.9523429   3.99768743  4.0203597
  4.01752566  3.99201936  3.9438408   3.87015593  3.77946686  3.67460763
  3.55841226  3.43654883]","[nan nan nan nan nan nan nan nan nan nan nan nan nan nan nan nan nan nan
 nan nan nan nan nan nan nan nan nan nan nan nan nan nan nan nan nan nan
 nan nan nan nan nan nan nan nan nan nan nan nan nan nan nan nan nan nan
 nan nan nan nan nan nan nan nan nan nan nan nan nan nan nan nan nan nan
 nan nan nan nan nan nan nan nan nan nan nan nan nan nan nan nan nan nan
 nan nan nan nan nan nan nan nan nan nan nan nan nan nan nan nan nan nan
 nan nan nan nan nan nan nan nan nan nan nan nan nan nan nan nan nan nan
 nan nan nan nan nan nan nan nan nan nan nan nan nan nan]",3.17738136492126,,3.5285400000000005,
037,1,2,csm,16a.png,1,1,324,332,325,1,1,297,neu_feedback_onset,5,"[-0.27418448 -0.40307462 -0.50267154 -0.56418729 -0.5934805  -0.58762186
 -0.55247    -0.49095426 -0.40600394 -0.30347769 -0.18923416 -0.06327334
  0.07147544  0.21208286  0.36147825  0.51380296  0.67784496  0.84774559
  1.02936352  1.21684008  1.41017529  1.6035105   1.79977503  1.98725159
  2.16301087  2.32412355  2.46180165  2.57311586  2.65513686  2.70493532
  2.71958193  2.702006    2.65220754  2.57604518  2.47937758  2.36806337
  2.25381984  2.1395763   2.03705006  1.95209974  1.88765467  1.84957349
  1.83492688  1.84664417  1.87593738  1.92573585  1.99018091  2.06634327
  2.15129359  2.23917323  2.33291151  2.42664979  2.5233174   2.62291432
  2.71958193  2.81917885  2.91877578  3.01544338  3.11504031  3.21463723
  3.31716348  3.41968973  3.52221597  3.62767154  3.73898575  3.85029996
  3.96747282  4.09050431  4.21353581  4.3365673   4.4595988   4.57091301
  4.66758061  4.74374297  4.78768279  4.79061211  4.74667229  4.64707537
  4.48596269  4.26626359  3.98797807  3.65696475  3.28201162  2.86897732
  2.43836708  1.99311024  1.55078271  1.12017248  0.71006749  0.3263264
 -0.03105081 -0.35620547 -0.65206693 -0.92449381 -1.17055681 -1.40197319
 -1.61581365 -1.8150075  -2.00541339 -2.18703131 -2.35693195 -2.51804462
 -2.66158136 -2.79340082 -2.90178571 -2.98673603 -3.04239314 -3.06582771
 -3.05996907 -3.01895857 -2.94572553 -2.84319929 -2.71723847 -2.57370172
 -2.41844769 -2.2544057  -2.09329303 -1.94096832 -1.80036089 -1.6773294
 -1.57187383 -1.49278215 -1.43712505 -1.40197319 -1.38732658 -1.39318523
 -1.4166198  -1.44591301 -1.48692351 -1.52793401 -1.56601519 -1.60116704
 -1.62753093 -1.64217754 -1.64217754 -1.62460161 -1.59237908 -1.54258061
 -1.47813555 -1.39318523 -1.29065898 -1.17348613 -1.04459599 -0.90398856
 -0.7575225  -0.61105643 -0.46459036 -0.32691226 -0.20388076 -0.10135452
 -0.02519216  0.02167698  0.03339426  0.00703037 -0.0574147  -0.16287027
 -0.30933633 -0.4968129  -0.72529996 -0.98893888 -1.29065898 -1.62167229
 -1.97612017 -2.35400262 -2.74067304 -3.1332021  -3.51694319 -3.88603768
 -4.22876828 -4.53634702 -4.79998594 -5.0138264  -5.17493907 -5.27746532
 -5.31847582 -5.30382921 -5.23645482 -5.11635264 -4.95523997 -4.75604612
 -4.5334177  -4.29321335 -4.04422103 -3.79815804 -3.56088301 -3.33532527
 -3.12148481 -2.92229096 -2.72895576 -2.54147919 -2.34521466 -2.1313742
 -1.89409918 -1.62167229 -1.31116423 -0.95378703 -0.55539933 -0.11600112
  0.35854893  0.85653356  1.36916479  1.8788667   2.37392201  2.83675478
  3.25271841  3.60716629  3.88838114  4.09050431  4.20767717  4.2398997
  4.19595988  4.08464567  3.91767435  3.7184805   3.4987814   3.28494094
  3.08574709  2.91877578  2.79281496  2.70786464  2.66685414  2.66392482
  2.69614736  2.75180446  2.82796682  2.91584646  3.01251406  3.10918166
  3.20877859  3.30544619  3.4021138   3.4987814   3.59544901  3.69797525
  3.80343082  3.91767435  4.03777653  4.16959599  4.31020341  4.45666948
  4.61485283  4.7759655   4.9400075   5.10697882  5.27395013  5.4350628
  5.58445819  5.72506562  5.84516779  5.9418354   6.01506843  6.05900825
  6.07072553  6.05022028  5.9974925   5.91840082  5.81587458  5.6957724
  5.56102362  5.4204162 ]","[ -2.83574223  -2.6799857   -2.47972731  -2.24052979  -1.96517451
  -1.65922419  -1.33102294  -0.98057076  -0.61621175  -0.24350864
   0.13197584   0.51024169   0.88016343   1.24452245   1.59497463
   1.93151998   2.25137712   2.55454607   2.83546409   3.09691254
   3.33889143   3.56418212   3.77000324   3.9563548    4.12323679
   4.27064921   4.39581071   4.50150263   4.58216226   4.63778959
   4.66838462   4.67672872   4.66004052   4.62666413   4.57659953
   4.5126281    4.4375312    4.35409021   4.26786785   4.18164548
   4.09542312   4.01476349   3.94244796   3.87847653   3.82841194
   3.79503554   3.77556597   3.77278461   3.78669144   3.81172374
   3.84510014   3.87847653   3.9062902    3.92575977   3.92854113
   3.90907157   3.8645697    3.79781691   3.70881318   3.60033988
   3.47517839   3.34445416   3.20538584   3.06909888   2.93559329
   2.80765043   2.68805167   2.57679701   2.47110508   2.37097588
   2.27640942   2.18462433   2.0956206    2.00661687   1.92039451
   1.83417215   1.75073115   1.66450879   1.57828643   1.49484543
   1.40862307   1.32518208   1.23895971   1.15273735   1.06373362
   0.97472989   0.88016343   0.78281561   0.67434231   0.55196218
   0.41289386   0.24879323   0.05687895  -0.17119311  -0.44376703
  -0.76362418  -1.13632729  -1.5674391   -2.05139687  -2.58820061
  -3.17228758  -3.79809504  -4.45171617  -5.12480687  -5.8034603
  -6.47376963  -7.13017212  -7.75597959  -8.34284792  -8.88799576
  -9.38586037  -9.83087901 -10.22583305 -10.57350387 -10.87667282
 -11.1353399  -11.36063059 -11.54976351 -11.71108277 -11.84458836
 -11.95584303 -12.03928402 -12.09769272 -12.13106912 -12.13941322
 -12.11716228 -12.06709769 -11.98921942 -11.88074613 -11.74445917
 -11.58592128 -11.39956972 -11.19652997 -10.97402065 -10.74038586
 -10.49840697 -10.24808399  -9.99497963  -9.74465665  -9.49433366]",5.137004358830177,3.6387227408698393,3.413759999999999,0.08247000000000071
037,1,2,csp,34b.png,1,0,340,62,340,1,1,849,neg_feedback_onset,6,"[-1.07112913 -0.90673091 -0.75129987 -0.60184694 -0.4673393  -0.33880979
 -0.2222365  -0.11761945 -0.02196958  0.06471312  0.1454177   0.22014416
  0.28889251  0.3546518   0.42041109  0.48318131  0.54296249  0.60274366
  0.66252483  0.71333882  0.76116376  0.80002152  0.83290117  0.85083552
  0.85980269  0.85382458  0.83589022  0.80301058  0.75518564  0.69540447
  0.61768895  0.52801719  0.4263892   0.31280498  0.19025358  0.05574594
 -0.08473981 -0.23419274 -0.38962378 -0.54804389 -0.71244211 -0.87982938
 -1.05020572 -1.22357112 -1.39693651 -1.57030191 -1.74366731 -1.91404364
 -2.08441998 -2.2488182  -2.4072383  -2.56266935 -2.71511133 -2.86456426
 -3.01102813 -3.15450294 -3.29498869 -3.43547445 -3.5759602  -3.71644595
 -3.8569317  -3.99442839 -4.13491415 -4.27241084 -4.41289659 -4.55039329
 -4.68788998 -4.82837573 -4.96587242 -5.10038006 -5.23488769 -5.36640627
 -5.49194673 -5.60852001 -5.71612612 -5.80579788 -5.87454622 -5.9193821
 -5.93731645 -5.92237116 -5.87454622 -5.7968307  -5.69520271 -5.57265131
 -5.43814368 -5.3066251  -5.17809558 -5.06750041 -4.9748396  -4.89712408
 -4.84033196 -4.79549609 -4.75364927 -4.71180245 -4.66397751 -4.60419634
 -4.52946988 -4.44278718 -4.34115919 -4.23056402 -4.11996885 -4.00638463
 -3.90176758 -3.80910676 -3.72840218 -3.66563195 -3.61780702 -3.58492737
 -3.56400396 -3.55204773 -3.54308055 -3.53411338 -3.51617903 -3.49226656
 -3.4534088  -3.4025948  -3.3308574  -3.24118564 -3.13656859 -3.01700625
 -2.88249861 -2.7390238  -2.58957088 -2.43115077 -2.27571973 -2.11729962
 -1.96186858 -1.81241565 -1.66894084 -1.53144415 -1.39992557 -1.28036323
 -1.16677901 -1.06216196 -0.96651208 -0.87684033 -0.79015763 -0.70945305
 -0.63173752 -0.554022   -0.47331742 -0.38962378 -0.30593014 -0.21625839
 -0.12658663 -0.03691487  0.05275688  0.13943958  0.22014416  0.28889251
  0.34867368  0.39350956  0.4263892   0.43834544  0.43834544  0.41742203
  0.38454238  0.33372839  0.2679691   0.18427546  0.08862559 -0.0279477
 -0.16245533 -0.31788638 -0.50320801 -0.71543116 -0.95754491 -1.23552735
 -1.54638944 -1.88415306 -2.25180726 -2.64038487 -3.04091872 -3.44743068
 -3.84497547 -4.23056402 -4.59224011 -4.91804749 -5.20798617 -5.45308897
 -5.65335589 -5.80579788 -5.91041493 -5.97617421 -5.99709762 -5.98514139
 -5.93731645 -5.86258999 -5.76395106 -5.64139966 -5.49493579 -5.33053757
 -5.14222688 -4.93000372 -4.6938681  -4.43680906 -4.1528485  -3.84497547
 -3.51916809 -3.17243729 -2.81673933 -2.45207418 -2.0903981  -1.73768919
 -1.40291463 -1.08607442 -0.7991248  -0.54206577 -0.31489732 -0.12060851
  0.04378971  0.18427546  0.3038378   0.40247673  0.49214849  0.57285307
  0.65355765  0.73725129  0.82991211  0.93452916  1.06006962  1.20653348
  1.37989888  1.58315486  1.81331237  2.07037141  2.35134291  2.65323782
  2.96409991  3.28094012  3.58881315  3.87875183  4.1477671   4.38390272
  4.58118059  4.73661163  4.85019586  4.92193326  4.95481291  4.95481291
  4.92791138  4.88008644  4.82329433  4.7605241   4.70074293  4.64693988
  4.602104    4.56324624  4.53335565  4.50346507  4.47357448  4.43172766
  4.36895743  4.27928567  4.15374522  3.98037982  3.75918949  3.4841961
  3.15539966  2.78176734]","[ -2.25759327  -2.09926002  -1.92598966  -1.73479478  -1.53165022
  -1.31356856  -1.08353722  -0.84155621  -0.59061293  -0.32771997
  -0.05885217   0.21897788   0.50875762   0.81048704   1.13014098
   1.46771943   1.82322241   2.19963733   2.59696418   3.00922814
   3.4364292    3.86661767   4.29381873   4.70907011   5.0974347
   5.44995026   5.75167968   5.99366069   6.16394363   6.25356623
   6.25954107   6.18186815   6.02353489   5.79649098   5.5156735
   5.19900698   4.87039078   4.55073685   4.26095711   4.01598867
   3.82778121   3.70230957   3.63957375   3.63957375   3.69334731
   3.79193217   3.92636607   4.08768675   4.26991937   4.46410167
   4.66724623   4.87636562   5.08847244   5.30356668   5.51866092
   5.73674258   5.95183682   6.16991847   6.38501271   6.60309437
   6.82117603   7.03627027   7.25435192   7.46944616   7.68752782
   7.90560948   8.12070372   8.33878537   8.55387961   8.77196127
   8.99004293   9.20513717   9.42321883   9.64130048   9.85639472
  10.07447638  10.2865832   10.4957026   10.69287231  10.87809235
  11.03941303  11.16488467  11.23957017  11.24554501  11.15890983
  10.96174011  10.62714908  10.1372122    9.47400497   8.62557769
   7.59193038   6.37605045   4.98690016   3.4513663    1.79036079
   0.03674527  -1.77064382  -3.59894484  -5.40932135  -7.16592429
  -8.8418669  -10.40727497 -11.84422397 -13.12881456 -14.25208447
 -15.20507144 -15.98777548 -16.60019657 -17.04830957 -17.33808931
 -17.49044772 -17.5173345  -17.43667417 -17.26937865 -17.03337247
 -16.74956757 -16.42991363 -16.08934776 -15.7368322  -15.37535438
 -15.01088915 -14.64044907 -14.25805931 -13.86073246 -13.44548108
 -13.00633034 -12.54029283 -12.05035595 -11.5335323  -10.98982186
 -10.42519948  -9.83966517  -9.23620634  -8.61183556  -7.96954027
  -7.31230787  -6.64013838  -5.95303178  -5.25696293  -4.56089408]",3.674972762203968,5.931522359344822,3.3455349999999995,
037,1,2,csp,58b.png,1,1,204,92,203,1,1,628,neg_feedback_onset,7,"[ -0.87783154  -0.78647997  -0.7036926   -0.62661471  -0.55239156
  -0.48387787  -0.41821893  -0.34970525  -0.27262736  -0.18983999
  -0.09563368   0.01284632   0.13559999   0.27262736   0.42107367
   0.58093892   0.74365892   0.90923365   1.06624417   1.21469048
   1.34600836   1.4573431    1.54583993   1.60578941   1.63719151
   1.64575572   1.62577256   1.58580625   1.52300204   1.44592415
   1.35742731   1.25465679   1.14617679   1.03198732   0.91779786
   0.80075365   0.68370944   0.57237471   0.46389472   0.3611242
   0.26406315   0.17556631   0.09277894   0.01570105  -0.05281263
  -0.11561684  -0.17556631  -0.23266104  -0.28690104  -0.3382863
  -0.38967156  -0.43820209  -0.48958735  -0.53811787  -0.5866484
  -0.63517892  -0.68370944  -0.73223997  -0.78077049  -0.82930102
  -0.87783154  -0.92636207  -0.97489259  -1.02342311  -1.07195364
  -1.1233389   -1.1775789   -1.23467363  -1.29747784  -1.36884626
  -1.44877889  -1.5429852   -1.65146519  -1.77707361  -1.91410097
  -2.06540202  -2.22241254  -2.38227779  -2.53928831  -2.68773462
  -2.82190725  -2.93609672  -3.03030303  -3.10738092  -3.16447566
  -3.20444197  -3.2301346   -3.24440828  -3.25011776  -3.25297249
  -3.25011776  -3.24440828  -3.23869881  -3.23298934  -3.2301346
  -3.22727986  -3.2301346   -3.23869881  -3.25582723  -3.2843746
  -3.32719565  -3.38714512  -3.46422301  -3.5641388   -3.68403774
  -3.82391984  -3.9837851   -4.16077877  -4.3491914   -4.54616823
  -4.75170927  -4.95154084  -5.15137241  -5.3369303   -5.51392398
  -5.6709345   -5.8108166   -5.9278608   -6.02492185  -6.09343553
  -6.13911132  -6.15623974  -6.14767553  -6.11056395  -6.04490501
  -5.94784396  -5.82509028  -5.67378923  -5.49679556  -5.29696399
  -5.07429452  -4.83735138  -4.58898928  -4.33491771  -4.07799141
  -3.82391984  -3.58126722  -3.35003354  -3.13592829  -2.94180619
  -2.76766725  -2.61922094  -2.499322    -2.40511569  -2.34231148
  -2.31090938  -2.31090938  -2.34802095  -2.41938937  -2.52215989
  -2.65633252  -2.81334304  -2.98748198  -3.17018513  -3.35003354
  -3.51275354  -3.65549037  -3.76111563  -3.82962931  -3.85532194
  -3.84104826  -3.79251774  -3.71543984  -3.62123353  -3.52417248
  -3.43282091  -3.36430723  -3.32434091  -3.32148618  -3.36145249
  -3.44709459  -3.57555774  -3.75255142  -3.96951141  -4.22358298
  -4.51476613  -4.83449664  -5.17991978  -5.54532608  -5.92500607
  -6.316105    -6.7129134   -7.10686707  -7.49225653  -7.87193651
  -8.23448807  -8.57991122  -8.91106068  -9.22222698  -9.51626486
  -9.79602906 -10.06151958 -10.31273641 -10.55824377 -10.79233218
 -11.01785638 -11.23767111 -11.44321215 -11.63733425 -11.81147319
 -11.96562897 -12.09123739 -12.1854437  -12.24539317 -12.27679527
 -12.27394054 -12.24539317 -12.19686264 -12.13405844 -12.06839949
 -12.00274055 -11.94564581 -11.89997003 -11.86856792 -11.84573003
 -11.82860161 -11.81718266 -11.7971995  -11.76865214 -11.72012161
 -11.64875319 -11.54598267 -11.40895531 -11.23767111 -11.02927533
 -10.77805849 -10.48973008 -10.16143536  -9.79602906  -9.39636592
  -8.97101015  -8.51996175  -8.05178492  -7.57789863  -7.10401233
  -6.64154498  -6.19906079  -5.77941449  -5.3911703   -5.03718295
  -4.71745243  -4.43197876  -4.17505246  -3.94667352  -3.74113247
  -3.55271985  -3.37858091  -3.21871565  -3.06741461  -2.92753251
  -2.79906936  -2.68773462  -2.59067358  -2.51930516  -2.4679199
  -2.44222727  -2.445082    -2.47077463  -2.52501463  -2.60494726]","[-6.40327738e+00 -5.64961235e+00 -4.82935843e+00 -3.96370301e+00
 -3.08291375e+00 -2.21725832e+00 -1.38489734e+00 -6.07018165e-01
  1.04272131e-01  7.39893246e-01  1.29379165e+00  1.77504763e+00
  2.18063444e+00  2.52265914e+00  2.80717525e+00  3.03720956e+00
  3.22486913e+00  3.37620749e+00  3.49425141e+00  3.58202766e+00
  3.64256301e+00  3.67585745e+00  3.68191098e+00  3.66072361e+00
  3.61229533e+00  3.53057262e+00  3.41555546e+00  3.26421710e+00
  3.07958430e+00  2.85560353e+00  2.59832832e+00  2.30170513e+00
  1.97784104e+00  1.62068251e+00  1.23930984e+00  8.39776564e-01
  4.22082688e-01 -7.71825640e-03 -4.46599503e-01 -8.91534283e-01
 -1.33949583e+00 -1.78745738e+00 -2.22936539e+00 -2.66219310e+00
 -3.07988698e+00 -3.47336672e+00 -3.82749848e+00 -4.13622874e+00
 -4.37837012e+00 -4.53878878e+00 -4.60235089e+00 -4.55694938e+00
 -4.38745042e+00 -4.09688077e+00 -3.68221366e+00 -3.16160970e+00
 -2.54717595e+00 -1.86918009e+00 -1.15183626e+00 -4.25412132e-01
  2.82851396e-01  9.45713417e-01  1.55106686e+00  2.08075112e+00
  2.53173944e+00  2.90403181e+00  3.19762823e+00  3.42463577e+00
  3.59110796e+00  3.70915188e+00  3.79087460e+00  3.84838318e+00
  3.88470438e+00  3.91194529e+00  3.93615943e+00  3.95432003e+00
  3.97550740e+00  3.99669477e+00  4.02090891e+00  4.04814981e+00
  4.07539072e+00  4.10263162e+00  4.13289929e+00  4.16316697e+00
  4.19343464e+00  4.22370231e+00  4.25396998e+00  4.28423766e+00
  4.31450533e+00  4.34477300e+00  4.37806744e+00  4.40833511e+00
  4.43860278e+00  4.46887046e+00  4.49913813e+00  4.53243257e+00
  4.56572701e+00  4.59599468e+00  4.62928912e+00  4.66258356e+00
  4.69587800e+00  4.72614567e+00  4.75338657e+00  4.77154718e+00
  4.77457394e+00  4.75641334e+00  4.70798507e+00  4.61415528e+00
  4.46584369e+00  4.25094322e+00  3.95432003e+00  3.56992059e+00
  3.08261107e+00  2.49541823e+00  1.80531531e+00  1.01835583e+00
  1.46646872e-01 -7.97704500e-01 -1.79653768e+00 -2.82866530e+00
 -3.86684646e+00 -4.88989378e+00 -5.87661989e+00 -6.80583742e+00
 -7.66241255e+00 -8.43726495e+00 -9.12131434e+00 -9.72061425e+00
 -1.02351647e+01 -1.06740459e+01 -1.10463383e+01 -1.13641489e+01
 -1.16365579e+01 -1.18756725e+01 -1.20875462e+01 -1.22842861e+01
 -1.24658921e+01 -1.26353911e+01 -1.27988365e+01 -1.29501749e+01]",0.7012660757361714,2.6630254657059713,3.50295,
037,1,2,csm,26a.png,1,1,4,358,3,1,1,325,neu_feedback_onset,8,"[ 2.52363831e+00  2.12435854e+00  1.73648676e+00  1.36382563e+00
  1.01017783e+00  6.75543353e-01  3.67527527e-01  8.61303515e-02
 -1.57240178e-01 -3.70189392e-01 -5.45111960e-01 -6.85810547e-01
 -7.99890483e-01 -8.91154432e-01 -9.59602393e-01 -1.01664236e+00
 -1.06227434e+00 -1.10030098e+00 -1.13452496e+00 -1.16494628e+00
 -1.19536759e+00 -1.22198625e+00 -1.24860490e+00 -1.27522355e+00
 -1.30184220e+00 -1.32846085e+00 -1.35127684e+00 -1.37409283e+00
 -1.39690881e+00 -1.41592214e+00 -1.42733013e+00 -1.43493546e+00
 -1.43493546e+00 -1.41972480e+00 -1.39310615e+00 -1.34747418e+00
 -1.28282888e+00 -1.19917026e+00 -1.08889299e+00 -9.55799729e-01
 -7.99890483e-01 -6.24967915e-01 -4.27229360e-01 -2.14280146e-01
  1.38797255e-02  2.53447591e-01  5.00620785e-01  7.59201973e-01
  1.01778316e+00  1.28016701e+00  1.54255087e+00  1.80873738e+00
  2.07872656e+00  2.34491308e+00  2.61109960e+00  2.88108878e+00
  3.14727530e+00  3.41726448e+00  3.68345099e+00  3.95344018e+00
  4.21962669e+00  4.48581321e+00  4.75580239e+00  5.02198891e+00
  5.29197809e+00  5.55816461e+00  5.82815379e+00  6.09434030e+00
  6.36432949e+00  6.63051600e+00  6.89670252e+00  7.16669170e+00
  7.43287822e+00  7.70286740e+00  7.96905392e+00  8.23904310e+00
  8.50522961e+00  8.77521880e+00  9.04140531e+00  9.31139449e+00
  9.57758101e+00  9.84757019e+00  1.01137567e+01  1.03837459e+01
  1.06537351e+01  1.09275269e+01  1.12013188e+01  1.14751106e+01
  1.17565078e+01  1.20379050e+01  1.23193021e+01  1.26006993e+01
  1.28820965e+01  1.31482830e+01  1.33992589e+01  1.36236161e+01
  1.38061440e+01  1.39430399e+01  1.40114878e+01  1.40114878e+01
  1.39316319e+01  1.37719200e+01  1.35247468e+01  1.32015203e+01
  1.28098459e+01  1.23611314e+01  1.18629824e+01  1.13344120e+01
  1.07906310e+01  1.02430473e+01  9.70687160e+00  9.19731456e+00
  8.71437616e+00  8.26566175e+00  7.85877664e+00  7.48611552e+00
  7.14767838e+00  6.83966255e+00  6.55826538e+00  6.29207886e+00
  6.04490567e+00  5.80533780e+00  5.57337526e+00  5.34901806e+00
  5.12466085e+00  4.90410631e+00  4.68355176e+00  4.46299722e+00
  4.24624534e+00  4.02569080e+00  3.80513626e+00  3.58838438e+00
  3.36782984e+00  3.14727530e+00  2.92672075e+00  2.70616621e+00
  2.48561167e+00  2.26125446e+00  2.03689725e+00  1.80873738e+00
  1.58057751e+00  1.34861497e+00  1.11665244e+00  8.80887238e-01
  6.48924702e-01  4.24567494e-01  2.07815616e-01  1.00770610e-02
 -1.61042843e-01 -2.94136101e-01 -3.81597385e-01 -4.04413372e-01
 -3.54978734e-01 -2.25688140e-01 -1.33093258e-03  3.18092888e-01
  7.32583321e-01  1.23833770e+00  1.82394804e+00  2.48561167e+00
  3.19670993e+00  3.94583485e+00  4.70636775e+00  5.45929533e+00
  6.18560425e+00  6.86247854e+00  7.47851019e+00  8.02229122e+00
  8.49001896e+00  8.87408807e+00  9.18970923e+00  9.43688242e+00
  9.63462098e+00  9.79433289e+00  9.93503148e+00  1.00719274e+01
  1.02240340e+01  1.04027592e+01  1.06195111e+01  1.08780923e+01
  1.11861081e+01  1.15435586e+01  1.19466410e+01  1.23915528e+01
  1.28744912e+01  1.33878509e+01  1.39278292e+01  1.44830183e+01
  1.50534179e+01  1.56314229e+01  1.62094279e+01  1.67874330e+01
  1.73616353e+01  1.79282323e+01  1.84910267e+01  1.90386104e+01
  1.95785887e+01  2.01033564e+01  2.06129135e+01  2.11110625e+01
  2.15940009e+01  2.20617287e+01  2.25142457e+01  2.29515522e+01
  2.33698453e+01  2.37691250e+01  2.41455888e+01  2.44916313e+01
  2.48034498e+01  2.50734390e+01  2.52939935e+01  2.54575081e+01
  2.55639827e+01  2.56096147e+01  2.55906013e+01  2.55107454e+01
  2.53814548e+01  2.52027296e+01  2.49897803e+01  2.47502125e+01
  2.44954340e+01  2.42406554e+01  2.40010876e+01  2.37843357e+01
  2.36094131e+01  2.34839252e+01  2.34192799e+01  2.34192799e+01
  2.34915305e+01  2.36322291e+01  2.38299677e+01  2.40847462e+01
  2.43737487e+01  2.46855672e+01  2.50087937e+01  2.53282175e+01
  2.56324306e+01  2.59100252e+01  2.61610010e+01  2.63777529e+01
  2.65526755e+01  2.66895714e+01  2.67808353e+01  2.68226646e+01
  2.68074540e+01  2.67390060e+01  2.66097154e+01  2.64157795e+01
  2.61571983e+01  2.58301692e+01  2.54461001e+01  2.50011883e+01
  2.45106446e+01  2.39782716e+01  2.34230826e+01  2.28488802e+01
  2.22784805e+01  2.17232915e+01  2.11909185e+01  2.06927694e+01]","[ -1.93770957  -1.73620067  -1.52663142  -1.30900181  -1.08062505
  -0.84418795  -0.60237727  -0.3578798   -0.11338234   0.12574155
   0.3541183    0.56368756   0.75176253   0.91028286   1.03387499
   1.1225389    1.17358783   1.18702175   1.16821426   1.11716533
   1.04462213   0.958645     0.86192073   0.76788324   0.68190611
   0.60667612   0.55294042   0.52069899   0.51263864   0.52069899
   0.54756685   0.58518184   0.62817041   0.66847219   0.70071361
   0.71952111   0.71952111   0.70071361   0.66041183   0.60130255
   0.52338578   0.43203508   0.32993724   0.21440547   0.09618691
  -0.030092    -0.15905769  -0.29071017  -0.42236265  -0.55401513
  -0.6883544   -0.82269366  -0.95703293  -1.09137219  -1.22571146
  -1.35736394  -1.49170321  -1.62604247  -1.76038174  -1.894721
  -2.02906027  -2.16339954  -2.2977388   -2.43207807  -2.56641733
  -2.69806981  -2.83240908  -2.96674834  -3.10108761  -3.23542688
  -3.36976614  -3.50410541  -3.63844467  -3.77278394  -3.90712321
  -4.03877569  -4.17311495  -4.30745422  -4.44179348  -4.57613275
  -4.71047201  -4.84481128  -4.97915055  -5.11348981  -5.24782908
  -5.37948156  -5.51382082  -5.64816009  -5.78249936  -5.91683862
  -6.05117789  -6.18551715  -6.31985642  -6.45688247  -6.59390852
  -6.73362136  -6.87602098  -7.02379417  -7.17962772  -7.34889519
  -7.53428338  -7.74116585  -7.97760296  -8.25165506  -8.56869573
  -8.9394721   -9.36935775  -9.86372625 -10.42257759 -11.04591179
 -11.72835526 -12.46184765 -13.23564182 -14.03093027 -14.8315923
 -15.62150718 -16.38455421 -17.10729946 -17.78168257 -18.39964319
 -18.95849454 -19.46092339 -19.91499011 -20.3206947  -20.68878428
 -21.01925888 -21.32017883 -21.59154415 -21.83066804 -22.03486373
 -22.2041312  -22.33041011 -22.41101367 -22.44325509 -22.4244476
 -22.35727796 -22.24711977 -22.093973   -21.90858482 -21.69364199]",24.668403799190756,0.3134534457077812,2.6297349999999997,0.6694199999999997
037,1,2,csp,23b.png,1,1,240,48,NaN,0,0,510,neg_feedback_onset,9,"[nan nan nan nan nan nan nan nan nan nan nan nan nan nan nan nan nan nan
 nan nan nan nan nan nan nan nan nan nan nan nan nan nan nan nan nan nan
 nan nan nan nan nan nan nan nan nan nan nan nan nan nan nan nan nan nan
 nan nan nan nan nan nan nan nan nan nan nan nan nan nan nan nan nan nan
 nan nan nan nan nan nan nan nan nan nan nan nan nan nan nan nan nan nan
 nan nan nan nan nan nan nan nan nan nan nan nan nan nan nan nan nan nan
 nan nan nan nan nan nan nan nan nan nan nan nan nan nan nan nan nan nan
 nan nan nan nan nan nan nan nan nan nan nan nan nan nan nan nan nan nan
 nan nan nan nan nan nan nan nan nan nan nan nan nan nan nan nan nan nan
 nan nan nan nan nan nan nan nan nan nan nan nan nan nan nan nan nan nan
 nan nan nan nan nan nan nan nan nan nan nan nan nan nan nan nan nan nan
 nan nan nan nan nan nan nan nan nan nan nan nan nan nan nan nan nan nan
 nan nan nan nan nan nan nan nan nan nan nan nan nan nan nan nan nan nan
 nan nan nan nan nan nan nan nan nan nan nan nan nan nan nan nan nan nan
 nan nan nan nan nan nan nan nan]","[-3.87588594 -3.7568431  -3.53661386 -3.22710248 -2.84914148 -2.41463513
 -1.94143985 -1.44145994 -0.92659968 -0.4028112   0.12395335  0.64774183
  1.16557817  1.68341451  2.1952987   2.70420683  3.21311495  3.71607093
  4.21605084  4.70710254  5.18922603  5.65349309  6.09990372  6.51655365
  6.9004668   7.25164316  7.55817847  7.82304878  8.04327802  8.21589014
  8.34386118  8.42719117  8.46885616  8.47183223  8.44207152  8.38255011
  8.30219619  8.20100978  8.09089516  7.97482839  7.85578556  7.74269486
  7.63258024  7.53139383  7.43615956  7.3498535   7.26949959  7.19509782
  7.12664819  7.06117463  6.99867714  6.93617965  6.87368216  6.81416074
  6.75761539  6.69809398  6.6445247   6.59095542  6.54333829  6.49869722
  6.46596045  6.44215188  6.43322367  6.44215188  6.46596045  6.51060151
  6.57012293  6.6445247   6.72190254  6.79332824  6.85284966  6.88558644
  6.88261037  6.8290411   6.72190254  6.55821864  6.33501333  6.0612148
  5.74277522  5.39159885  5.01661392  4.62674863  4.23985941  3.85594626
  3.48691347  3.13276103  2.79646502  2.47802544  2.1744662   1.88281126
  1.60306059  1.33521421  1.07629604  0.82630609  0.58822041  0.36203903
  0.15669013 -0.03080233 -0.19448623 -0.32840942 -0.43554798 -0.50994975
 -0.56054295 -0.59030366 -0.60816009 -0.62304044 -0.64684901 -0.69149007
 -0.76886792 -0.88493468 -1.04861858 -1.26289569 -1.52181386 -1.82537309
 -2.16762124 -2.53665403 -2.92056718 -3.3074564  -3.68839347 -4.05147412
 -4.38181799 -4.67347294 -4.92048683 -5.11393143 -5.2508307  -5.33118461
 -5.35201711 -5.31928033 -5.23595034 -5.10797929 -4.94429539 -4.75085078
 -4.54252582 -4.32229657 -4.10801947 -3.90564665 -3.72113025 -3.56339849
 -3.43245137 -3.32531282]",,6.745041493868532,2.8552349999999995,
037,1,2,csm,8a.png,1,1,208,181,210,1,0,NaN,neu_feedback_onset,10,"[-6.78961243e-01 -5.26385683e-01 -3.90762963e-01 -2.69267609e-01
 -1.70376042e-01 -8.84373155e-02 -3.19278487e-02  1.04542513e-02
  3.58835114e-02  5.28363514e-02  6.13127714e-02  7.26146648e-02
  8.39165581e-02  1.03694871e-01  1.34775078e-01  1.79982652e-01
  2.36492118e-01  3.07128952e-01  3.91893152e-01  4.85133772e-01
  5.89676286e-01  6.99869746e-01  8.18539626e-01  9.40034979e-01
  1.06153033e+00  1.18585116e+00  1.31017199e+00  1.42884187e+00
  1.54468627e+00  1.65205426e+00  1.74812035e+00  1.83288455e+00
  1.90069591e+00  1.94872896e+00  1.97415822e+00  1.96850727e+00
  1.93460159e+00  1.86679023e+00  1.76507319e+00  1.62945047e+00
  1.45709660e+00  1.25366252e+00  1.02197371e+00  7.64855632e-01
  4.85133772e-01  1.91284545e-01 -1.11041102e-01 -4.16192223e-01
 -7.15692396e-01 -1.00389068e+00 -1.27231064e+00 -1.51530135e+00
 -1.72721185e+00 -1.90521667e+00 -2.04649034e+00 -2.15103285e+00
 -2.21601874e+00 -2.24709895e+00 -2.24427347e+00 -2.21036779e+00
 -2.14820738e+00 -2.06626865e+00 -1.96172614e+00 -1.84305626e+00
 -1.71025901e+00 -1.56898534e+00 -1.42206073e+00 -1.26948517e+00
 -1.11125866e+00 -9.50206683e-01 -7.89154703e-01 -6.28102723e-01
 -4.64225269e-01 -3.03173289e-01 -1.44946782e-01  1.32797247e-02
  1.63029812e-01  3.07128952e-01  4.39926199e-01  5.52945132e-01
  6.43360279e-01  7.08346166e-01  7.33775426e-01  7.19648059e-01
  6.60313119e-01  5.52945132e-01  3.91893152e-01  1.79982652e-01
 -7.99608954e-02 -3.82286543e-01 -7.15692396e-01 -1.07452751e+00
 -1.45031546e+00 -1.82610342e+00 -2.19624043e+00 -2.55225007e+00
 -2.88000497e+00 -3.17950515e+00 -3.44509964e+00 -3.66831203e+00
 -3.85761875e+00 -4.00454336e+00 -4.11756229e+00 -4.19385007e+00
 -4.23905765e+00 -4.25883596e+00 -4.25035954e+00 -4.21927933e+00
 -4.16559534e+00 -4.09778398e+00 -4.01301978e+00 -3.91412821e+00
 -3.80676023e+00 -3.68526487e+00 -3.55811857e+00 -3.41967038e+00
 -3.27839671e+00 -3.12864663e+00 -2.97324559e+00 -2.81219361e+00
 -2.63983974e+00 -2.46183492e+00 -2.26970273e+00 -2.06344318e+00
 -1.84305626e+00 -1.60854197e+00 -1.36272579e+00 -1.10278224e+00
 -8.40013223e-01 -5.74418729e-01 -3.11649709e-01 -6.30080554e-02
  1.68680758e-01  3.74940312e-01  5.52945132e-01  6.97044272e-01
  8.04412259e-01  8.69398146e-01  8.97652879e-01  8.86350986e-01
  8.38317939e-01  7.56379212e-01  6.46185752e-01  5.13388505e-01
  3.60812945e-01  1.99760965e-01  3.30580380e-02 -1.33644889e-01
 -2.89045922e-01 -4.33145063e-01 -5.60291363e-01 -6.67659350e-01
 -7.52423550e-01 -8.17409437e-01 -8.56966063e-01 -8.73918903e-01
 -8.68267957e-01 -8.42838697e-01 -8.00456596e-01 -7.43947130e-01
 -6.73310296e-01 -5.94197043e-01 -5.06607369e-01 -4.19017696e-01
 -3.31428022e-01 -2.46663822e-01 -1.70376042e-01 -1.02564682e-01
 -4.32297421e-02  7.62877801e-03  5.00108781e-02  8.67420315e-02
  1.20647712e-01  1.51727918e-01  1.85633598e-01  2.22364752e-01
  2.64746852e-01  3.12779898e-01  3.66463892e-01  4.25798832e-01
  4.87959245e-01  5.52945132e-01  6.20756492e-01  6.80091432e-01
  7.36600899e-01  7.78982999e-01  8.10063206e-01  8.21365099e-01
  8.15714153e-01  7.90284892e-01  7.42251846e-01  6.77265959e-01
  5.98152706e-01  5.02086612e-01  4.00369572e-01  2.93001585e-01
  1.88459072e-01  8.95675048e-02 -8.47642001e-04 -7.43099488e-02
 -1.30819416e-01 -1.70376042e-01 -1.84503409e-01 -1.73201516e-01
 -1.39295836e-01 -7.71354221e-02  1.32797247e-02  1.26298658e-01
  2.61921378e-01  4.11671465e-01  5.72723445e-01  7.33775426e-01
  8.89176459e-01  1.02762465e+00  1.14629453e+00  1.23670968e+00
  1.29604462e+00  1.32429935e+00  1.32712483e+00  1.30169557e+00
  1.25648799e+00  1.19432758e+00  1.11803980e+00  1.03327560e+00
  9.45685926e-01  8.52445306e-01  7.59204686e-01  6.63138592e-01
  5.69897972e-01  4.73831879e-01  3.77765785e-01  2.84525165e-01
  1.91284545e-01  9.80439248e-02  4.80330467e-03 -8.27863688e-02
 -1.70376042e-01 -2.49489296e-01 -3.20126129e-01 -3.82286543e-01
 -4.27494116e-01 -4.52923376e-01 -4.52923376e-01 -4.27494116e-01
 -3.73810123e-01 -2.86220449e-01 -1.73201516e-01 -3.47533221e-02
  1.20647712e-01  2.87350638e-01  4.48402619e-01  5.92501759e-01
  7.13997112e-01  7.95935839e-01  8.29841519e-01  8.10063206e-01
  7.30949952e-01  5.92501759e-01  3.89067679e-01  1.31949605e-01]","[ 1.20743537  1.29024146  1.33624484  1.34544551  1.30250902  1.21356916
  1.07555902  0.8915455   0.67379617  0.42231103  0.15242453 -0.12972953
 -0.41801738 -0.70017144 -0.97619172 -1.24301132 -1.50063025 -1.7459816
 -1.98213229 -2.21521608 -2.43909919 -2.66298231 -2.88073164 -3.09848097
 -3.31009652 -3.52171206 -3.72719382 -3.9265418  -4.12588978 -4.31910398
 -4.50925128 -4.69633169 -4.87727832 -5.04902427 -5.20850265 -5.35571347
 -5.48145604 -5.58266347 -5.65933577 -5.70227226 -5.72067361 -5.71147294
 -5.67773712 -5.63173374 -5.57959658 -5.53052631 -5.49372361 -5.47838915
 -5.48758982 -5.52745942 -5.59799793 -5.69307158 -5.80961348 -5.94148983
 -6.07949997 -6.21444322 -6.33405201 -6.43832634 -6.51193174 -6.55486823
 -6.56406891 -6.53339999 -6.46899526 -6.36472093 -6.23284457 -6.0702993
 -5.89241956 -5.69920537 -5.50599117 -5.31891076 -5.14409792 -4.99382021
 -4.86501075 -4.76687021 -4.69019791 -4.63806074 -4.60125804 -4.57365601
 -4.55525466 -4.53685331 -4.51845196 -4.49698371 -4.46631479 -4.4264452
 -4.37430803 -4.3099033  -4.22403033 -4.119756   -3.98787964 -3.82840126
 -3.63518707 -3.41130395 -3.15368502 -2.87153096 -2.56177487 -2.23975121
 -1.90545999 -1.56810187 -1.23687754 -0.91485388 -0.60816468 -0.31680994
 -0.04385656  0.21376237  0.45911373  0.68913063  0.91301374  1.13076307
  1.34544551  1.55706106  1.76254282  1.9618908   2.155105    2.34218541
  2.51393136  2.67034285  2.81141988  2.93102867  3.0322361   3.11197529
  3.17331313  3.21318273  3.23158408  3.23158408  3.21318273  3.17944692
  3.13037665  3.06597191  2.99236651  2.90649353  2.81448677  2.72248001
  2.62740636  2.5353996   2.45259352  2.37285433  2.3053827   2.24097797
  2.18577391  2.13363675]",0.7010705718475277,2.2969891030099636,3.5392300000000008,0.08206499999999961
037,1,2,csm,64a.png,1,1,344,243,343,1,0,628,neu_feedback_onset,11,"[ 3.18104417e-01  2.34049491e-01  1.49994565e-01  7.17365313e-02
 -7.24611427e-04 -6.15919713e-02 -1.10865548e-01 -1.42748451e-01
 -1.60139125e-01 -1.63037571e-01 -1.51443788e-01 -1.28256223e-01
 -9.63733198e-02 -5.86935256e-02 -2.10137314e-02  1.66660628e-02
  4.56505199e-02  7.17365313e-02  8.91272055e-02  9.78225427e-02
  9.78225427e-02  8.91272055e-02  7.46349770e-02  6.01427485e-02
  3.98536285e-02  2.24629542e-02  7.97072570e-03 -6.52150284e-03
 -1.52168400e-02 -1.81152857e-02 -2.10137314e-02 -2.39121771e-02
 -2.97090685e-02 -3.84044056e-02 -5.86935256e-02 -9.05764284e-02
 -1.36951560e-01 -2.00717365e-01 -2.81873845e-01 -3.83319445e-01
 -5.02155719e-01 -6.35484222e-01 -7.86203398e-01 -9.45617912e-01
 -1.11662621e+00 -1.29632984e+00 -1.47893192e+00 -1.66733089e+00
 -1.85572986e+00 -2.04702728e+00 -2.23832470e+00 -2.42962212e+00
 -2.61802109e+00 -2.80931850e+00 -2.99771747e+00 -3.18901489e+00
 -3.38321075e+00 -3.58320351e+00 -3.79768849e+00 -4.02666570e+00
 -4.27593203e+00 -4.55418282e+00 -4.86431651e+00 -5.20633310e+00
 -5.58023260e+00 -5.98021811e+00 -6.40049274e+00 -6.82366581e+00
 -7.24394044e+00 -7.64102750e+00 -8.00913010e+00 -8.33375602e+00
 -8.61200681e+00 -8.84098402e+00 -9.02358610e+00 -9.15981305e+00
 -9.25546176e+00 -9.32212601e+00 -9.35980580e+00 -9.38299337e+00
 -9.39168871e+00 -9.39168871e+00 -9.38879026e+00 -9.38589182e+00
 -9.38299337e+00 -9.38879026e+00 -9.39748560e+00 -9.41487627e+00
 -9.44386073e+00 -9.48733742e+00 -9.54240788e+00 -9.61197058e+00
 -9.70182240e+00 -9.81486178e+00 -9.95398717e+00 -1.01220970e+01
 -1.03249882e+01 -1.05684577e+01 -1.08583022e+01 -1.11974204e+01
 -1.15916090e+01 -1.20379696e+01 -1.25422992e+01 -1.30959023e+01
 -1.36958806e+01 -1.43306402e+01 -1.49943843e+01 -1.56755190e+01
 -1.63595522e+01 -1.70377885e+01 -1.77044310e+01 -1.83449875e+01
 -1.89536611e+01 -1.95304518e+01 -2.00666643e+01 -2.05565016e+01
 -2.09970653e+01 -2.13825586e+01 -2.17042861e+01 -2.19506540e+01
 -2.21129669e+01 -2.21709358e+01 -2.21187638e+01 -2.19390602e+01
 -2.16318249e+01 -2.11854643e+01 -2.06086736e+01 -1.99101482e+01
 -1.91014818e+01 -1.82058621e+01 -1.72435781e+01 -1.62436144e+01
 -1.52291584e+01 -1.42291946e+01 -1.32640122e+01 -1.23596971e+01
 -1.15307416e+01 -1.07916380e+01 -1.01452846e+01 -9.60327524e+00
 -9.16271150e+00 -8.82069490e+00 -8.57432702e+00 -8.41781095e+00
 -8.34534981e+00 -8.34824825e+00 -8.41491250e+00 -8.54244411e+00
 -8.71635086e+00 -8.93083584e+00 -9.16850839e+00 -9.42357161e+00
 -9.68443172e+00 -9.93659650e+00 -1.01742690e+01 -1.03887540e+01
 -1.05771530e+01 -1.07336691e+01 -1.08583022e+01 -1.09568494e+01
 -1.10235136e+01 -1.10698888e+01 -1.10988732e+01 -1.11133655e+01
 -1.11191623e+01 -1.11220608e+01 -1.11191623e+01 -1.11133655e+01
 -1.11075686e+01 -1.10988732e+01 -1.10814826e+01 -1.10582950e+01
 -1.10235136e+01 -1.09742401e+01 -1.09075758e+01 -1.08264193e+01
 -1.07278722e+01 -1.06148328e+01 -1.04901996e+01 -1.03568711e+01
 -1.02206442e+01 -1.00786203e+01 -9.93949495e+00 -9.80326800e+00
 -9.66704105e+00 -9.53661099e+00 -9.40038404e+00 -9.26125865e+00
 -9.11343792e+00 -8.95402340e+00 -8.77721822e+00 -8.58012391e+00
 -8.36563893e+00 -8.13376327e+00 -7.88449694e+00 -7.62653527e+00
 -7.36277671e+00 -7.10481504e+00 -6.86134560e+00 -6.63526684e+00
 -6.44107098e+00 -6.28165646e+00 -6.16282019e+00 -6.08746060e+00
 -6.05847614e+00 -6.07296837e+00 -6.12514039e+00 -6.21209376e+00
 -6.32223470e+00 -6.45266476e+00 -6.59179015e+00 -6.73381399e+00
 -6.87293939e+00 -7.00047100e+00 -7.12220572e+00 -7.23234665e+00
 -7.33089381e+00 -7.42364407e+00 -7.51349589e+00 -7.60624615e+00
 -7.70479330e+00 -7.81203580e+00 -7.93666896e+00 -8.07869280e+00
 -8.24100576e+00 -8.42650629e+00 -8.63229593e+00 -8.85837470e+00
 -9.09894569e+00 -9.34821202e+00 -9.59747835e+00 -9.84094779e+00
 -1.00670266e+01 -1.02670193e+01 -1.04322307e+01 -1.05568639e+01
 -1.06380204e+01 -1.06757002e+01 -1.06728017e+01 -1.06322235e+01
 -1.05597623e+01 -1.04641136e+01 -1.03510742e+01 -1.02322380e+01
 -1.01105032e+01 -9.99456541e+00 -9.88442448e+00 -9.78297888e+00
 -9.69022861e+00 -9.60907214e+00 -9.53661099e+00 -9.46994674e+00
 -9.41487627e+00 -9.37139959e+00 -9.33371979e+00 -9.31053223e+00
 -9.29604000e+00 -9.29314155e+00 -9.30473534e+00 -9.33082135e+00]","[-6.57982437 -5.94242007 -5.2661891  -4.56083814 -3.83607385 -3.09513178
 -2.34771861 -1.59383433 -0.8431856  -0.09577242  0.63869853  1.35375616
  2.0461649   2.70298253  3.32097351  3.89043117  4.40811995  4.87403985
  5.28495532  5.64086635  5.94824406  6.2038529   6.41739952  6.58564837
  6.71830612  6.81860832  6.88655498  6.92861719  6.94803052  6.95450163
  6.94479496  6.93185274  6.90920386  6.88655498  6.86067054  6.83155054
  6.79595944  6.74742612  6.68271502  6.59211948  6.47240395  6.31709732
  6.12296403  5.89000408  5.62145302  5.32378198  5.01316871  4.69608433
  4.39194217  4.11692001  3.87748895  3.68659121  3.54746235  3.46010237
  3.42451127  3.43421793  3.4795157   3.55716902  3.65747122  3.77718675
  3.90660894  4.04897336  4.19780888  4.35311552  4.51489326  4.68637767
  4.86756874  5.05846648  5.25907088  5.46938194  5.68616412  5.90941741
  6.13267069  6.34945287  6.55652838  6.74742612  6.91567497  7.05156827
  7.15834158  7.2359949   7.27805711  7.29099933  7.27805711  7.24246601
  7.19069713  7.12598604  7.04833272  6.96744385  6.88008387  6.79595944
  6.70859946  6.62771059  6.55329282  6.48858173  6.43034174  6.38827953
  6.35915953  6.34621731  6.34621731  6.36239509  6.39151508  6.43034174
  6.47887506  6.53387949  6.59535504  6.66330169  6.73124834  6.80243055
  6.87361276  6.94479496  7.01921272  7.09363049  7.16804825  7.24246601
  7.32011933  7.39777264  7.47866152  7.56278594  7.65014592  7.74074146
  7.83780811  7.93811031  8.03841251  8.13871471  8.2325458   8.31990578
  8.39108799  8.43962131  8.46227019  8.45256353  8.40403021  8.31990578
  8.1969547   8.04164806  7.85075033  7.63396815  7.39777264  7.14539936
  6.88331942  6.62123948]",-2.3168966745146236e-14,7.694938136190968,3.4501250000000008,0.19972500000000037
037,1,2,csp,48b.png,1,1,268,273,268,1,1,737,neg_feedback_onset,12,"[-1.67875675e+00 -1.58232426e+00 -1.42936237e+00 -1.22652160e+00
 -9.80452468e-01 -7.04456013e-01 -4.15158523e-01 -1.25861034e-01
  1.43484904e-01  3.89554033e-01  5.95720060e-01  7.55332468e-01
  8.68391257e-01  9.31571168e-01  9.48197461e-01  9.18270134e-01
  8.48439706e-01  7.38706175e-01  5.92394801e-01  4.12830842e-01
  2.00014299e-01 -4.27295717e-02 -3.18726027e-01 -6.17999292e-01
 -9.40549366e-01 -1.28305099e+00 -1.63220313e+00 -1.98468053e+00
 -2.33050742e+00 -2.66303327e+00 -2.96895705e+00 -3.25160402e+00
 -3.49767315e+00 -3.71381495e+00 -3.89005365e+00 -4.03636503e+00
 -4.14609856e+00 -4.22257950e+00 -4.26248260e+00 -4.26580786e+00
 -4.23588054e+00 -4.16605011e+00 -4.05964184e+00 -3.91665572e+00
 -3.74041702e+00 -3.53425099e+00 -3.30148290e+00 -3.04876325e+00
 -2.77609206e+00 -2.49011983e+00 -2.19417182e+00 -1.88824804e+00
 -1.57899900e+00 -1.26309944e+00 -9.43874624e-01 -6.17999292e-01
 -2.92123959e-01  3.70766322e-02  3.59626706e-01  6.78851522e-01
  9.81450045e-01  1.26077176e+00  1.51016615e+00  1.71633217e+00
  1.87261932e+00  1.97570234e+00  2.02558121e+00  2.01893070e+00
  1.96905182e+00  1.88924562e+00  1.78616260e+00  1.68307959e+00
  1.59329761e+00  1.52679244e+00  1.50019037e+00  1.51016615e+00
  1.56669554e+00  1.65980278e+00  1.78283734e+00  1.92249820e+00
  2.07213483e+00  2.21512095e+00  2.34480603e+00  2.45453956e+00
  2.53434576e+00  2.58422464e+00  2.60085093e+00  2.59087516e+00
  2.54764680e+00  2.47781637e+00  2.38138387e+00  2.25169879e+00
  2.09541164e+00  1.90587191e+00  1.68973011e+00  1.44033572e+00
  1.17098978e+00  8.81692291e-01  5.85744284e-01  2.89796278e-01
  1.04745643e-02 -2.45570340e-01 -4.71687918e-01 -6.54577135e-01
 -7.97563251e-01 -8.97321005e-01 -9.57175658e-01 -9.80452468e-01
 -9.77127209e-01 -9.47199883e-01 -8.97321005e-01 -8.30815836e-01
 -7.54334890e-01 -6.64552911e-01 -5.61469897e-01 -4.51736367e-01
 -3.28701802e-01 -1.92366204e-01 -4.93800887e-02  1.03581802e-01
  2.63194210e-01  4.22806618e-01  5.79093767e-01  7.22079883e-01
  8.45114447e-01  9.44872202e-01  1.01470263e+00  1.04795522e+00
  1.04462996e+00  1.00472685e+00  9.28245910e-01  8.21837638e-01
  6.85502039e-01  5.25889631e-01  3.49650931e-01  1.63436455e-01
 -3.27537962e-02 -2.28944048e-01 -4.28459557e-01 -6.21324550e-01
 -8.17514802e-01 -1.00705454e+00 -1.19991953e+00 -1.39610978e+00
 -1.59562529e+00 -1.80179132e+00 -2.01128260e+00 -2.22742440e+00
 -2.43691569e+00 -2.64308172e+00 -2.82929619e+00 -2.99223386e+00
 -3.11859368e+00 -3.20837566e+00 -3.24495350e+00 -3.23497773e+00
 -3.17512308e+00 -3.06538955e+00 -2.91575291e+00 -2.72953844e+00
 -2.51339664e+00 -2.27730328e+00 -2.02790889e+00 -1.77186399e+00
 -1.51249383e+00 -1.25644892e+00 -1.00705454e+00 -7.60985407e-01
 -5.24892054e-01 -2.95449217e-01 -7.26568982e-02  1.46810163e-01
  3.62951965e-01  5.75768509e-01  7.78609277e-01  9.71474270e-01
  1.15103823e+00  1.31065064e+00  1.44366098e+00  1.54341873e+00
  1.60992390e+00  1.63985123e+00  1.63985123e+00  1.61657442e+00
  1.58332183e+00  1.54341873e+00  1.52014192e+00  1.52346718e+00
  1.56004502e+00  1.63985123e+00  1.76621105e+00  1.92914872e+00
  2.12533897e+00  2.34148077e+00  2.55762257e+00  2.75713808e+00
  2.92340101e+00  3.03645980e+00  3.08966393e+00  3.07303764e+00
  2.97993040e+00  2.81034222e+00  2.57757412e+00  2.28495138e+00
  1.94577501e+00  1.57334606e+00  1.18096556e+00  7.81934536e-01
  3.82903516e-01  4.98788775e-04 -3.68604904e-01 -7.14431788e-01
 -1.03698186e+00 -1.33625513e+00 -1.61225158e+00 -1.86829649e+00
 -2.10438984e+00 -2.32385690e+00 -2.52669767e+00 -2.71956266e+00
 -2.89912662e+00 -3.07204006e+00 -3.23497773e+00 -3.38793962e+00
 -3.53092574e+00 -3.66393608e+00 -3.78364538e+00 -3.89337891e+00
 -3.98648615e+00 -4.05964184e+00 -4.11617123e+00 -4.14942382e+00
 -4.16605011e+00 -4.15607433e+00 -4.12614701e+00 -4.07626813e+00
 -4.00643770e+00 -3.91665572e+00 -3.81024745e+00 -3.68388763e+00
 -3.54090151e+00 -3.37463859e+00 -3.19174937e+00 -2.98558334e+00
 -2.76279102e+00 -2.52669767e+00 -2.28062854e+00 -2.02790889e+00
 -1.77186399e+00 -1.52579486e+00 -1.28637625e+00 -1.06358393e+00
 -8.54092645e-01 -6.64552911e-01 -4.94964727e-01 -3.42002836e-01
 -2.05667238e-01 -8.59579322e-02  2.37755983e-02  1.26858612e-01]","[-1.17001111 -1.11917264 -1.05380889 -0.97028854 -0.86498028 -0.74151542
 -0.59263133 -0.42922195 -0.24765598 -0.06245869  0.12636992  0.30430457
  0.46771394  0.61296672  0.73643158  0.83810852  0.92526018  1.00151789
  1.0777756   1.16129595  1.25934157  1.38280643  1.52805921  1.70599386
  1.91297906  2.15264614  2.42136378  2.71913197  3.03868808  3.37640078
  3.72500744  4.07361411  4.42222077  4.75267084  5.06133298  5.3445759
  5.59876826  5.82754138  6.03089527  6.22335519  6.4121838   6.60827505
  6.81889158  7.0476647   7.30548838  7.59236261  7.90465608  8.23873746
  8.59823808  8.97226398  9.36081516  9.75662897 10.15970543 10.5664132
 10.97675229 11.39072271 11.80469312 12.21866353 12.63263394 13.04660435
 13.46057477 13.87454518 14.28851559 14.70611732 15.12008773 15.53405814
 15.94439724 16.35836765 16.76870674 17.1717832  17.57485965 17.96341083
 18.34106804 18.69693735 19.02375609 19.31063032 19.54666609 19.72096942
 19.81538372 19.82627768 19.73912601 19.55392872 19.27068581 18.89302859
 18.43911367 17.91983499 17.36424312 16.78686334 16.20948355 15.65389169
 15.13098169 14.65164753 14.21225788 13.82007539 13.4678374  13.1482813
 12.85777574 12.58905811 12.33123443 12.08793603 11.84826895 11.61586451
 11.38346007 11.15468694 10.92591382 10.70077202 10.4719989  10.24322577
 10.01808397  9.78931085  9.56053773  9.3317646   9.1066228   8.87784968
  8.64907656  8.42393475  8.19516163  7.96638851  7.7412467   7.51247358
  7.28370046  7.05855866  6.82978553  6.60464373  6.37950193  6.15436013
  5.93284964  5.71497048  5.50435395  5.30463138  5.1194341   4.95602472
  4.81803458  4.71998896  4.66188785  4.65462521  4.70183236  4.80714063
  4.97055     5.18479784]",1.2404045509487651,16.453326651705623,3.0072850000000004,
037,1,2,csp,35b.png,1,1,308,92,307,1,1,610,pos_feedback_onset,13,"[ 1.93476982e+00  1.47535335e+00  1.01593688e+00  5.66961691e-01
  1.45829925e-01 -2.30056279e-01 -5.50255637e-01 -7.97366012e-01
 -9.67906975e-01 -1.05491767e+00 -1.05839810e+00 -9.85309114e-01
 -8.42611574e-01 -6.40746761e-01 -3.97116814e-01 -1.18682588e-01
  1.77153776e-01  4.79950996e-01  7.79267788e-01  1.06814330e+00
  1.34657752e+00  1.61109004e+00  1.85820041e+00  2.09486950e+00
  2.31065603e+00  2.51252084e+00  2.69350309e+00  2.85360276e+00
  2.98585902e+00  3.08331100e+00  3.13899785e+00  3.15639998e+00
  3.12507613e+00  3.04502629e+00  2.92321132e+00  2.75963121e+00
  2.55776640e+00  2.32457774e+00  2.06006522e+00  1.76770929e+00
  1.45099036e+00  1.11338886e+00  7.54904793e-01  3.82499017e-01
  6.61281285e-03 -3.62312535e-01 -7.13835745e-01 -1.03403510e+00
 -1.30898890e+00 -1.53173628e+00 -1.69531639e+00 -1.79624879e+00
 -1.84149436e+00 -1.82757265e+00 -1.76840537e+00 -1.66747297e+00
 -1.53869714e+00 -1.38555831e+00 -1.21501735e+00 -1.03403510e+00
 -8.46092002e-01 -6.51188044e-01 -4.49323231e-01 -2.50938845e-01
 -4.55936044e-02  1.52790781e-01  3.54655594e-01  5.46079124e-01
  7.27061370e-01  8.94121905e-01  1.04029987e+00  1.15863442e+00
  1.23868426e+00  1.28044939e+00  1.26652768e+00  1.19691913e+00
  1.06466287e+00  8.62798055e-01  5.87844258e-01  2.50242760e-01
 -1.53486867e-01 -6.12903338e-01 -1.11060452e+00 -1.64310997e+00
 -2.18953714e+00 -2.73944473e+00 -3.28239147e+00 -3.81489693e+00
 -4.32651982e+00 -4.82074057e+00 -5.29407875e+00 -5.75001479e+00
 -6.18506827e+00 -6.60271961e+00 -7.00296880e+00 -7.38581586e+00
 -7.75126078e+00 -8.09234271e+00 -8.41254207e+00 -8.70489801e+00
 -8.97637138e+00 -9.22000132e+00 -9.44622913e+00 -9.64809394e+00
 -9.83603705e+00 -1.00100584e+01 -1.01771190e+01 -1.03337382e+01
 -1.04833966e+01 -1.06330550e+01 -1.07827134e+01 -1.09288914e+01
 -1.10750693e+01 -1.12212473e+01 -1.13674253e+01 -1.15136033e+01
 -1.16597812e+01 -1.18059592e+01 -1.19521372e+01 -1.20948347e+01
 -1.22410127e+01 -1.23871906e+01 -1.25333686e+01 -1.26795466e+01
 -1.28257245e+01 -1.29719025e+01 -1.31180805e+01 -1.32642584e+01
 -1.34104364e+01 -1.35566144e+01 -1.37027923e+01 -1.38489703e+01
 -1.39951483e+01 -1.41413263e+01 -1.42840238e+01 -1.44267213e+01
 -1.45694189e+01 -1.47086360e+01 -1.48408922e+01 -1.49627072e+01
 -1.50706005e+01 -1.51541307e+01 -1.52132980e+01 -1.52272197e+01
 -1.51924155e+01 -1.50914830e+01 -1.49139812e+01 -1.46459883e+01
 -1.42805434e+01 -1.38141660e+01 -1.32433759e+01 -1.25786142e+01
 -1.18233613e+01 -1.09984999e+01 -1.01214321e+01 -9.21304047e+00
 -8.29420752e+00 -7.38581586e+00 -6.51222848e+00 -5.69084752e+00
 -4.92863383e+00 -4.24298955e+00 -3.63739511e+00 -3.10837008e+00
 -2.65939489e+00 -2.28698912e+00 -1.98419190e+00 -1.74752281e+00
 -1.56654056e+00 -1.44124516e+00 -1.36815617e+00 -1.34031275e+00
 -1.35771489e+00 -1.41340174e+00 -1.50737329e+00 -1.63266869e+00
 -1.77884666e+00 -1.94590719e+00 -2.11992858e+00 -2.29046954e+00
 -2.44708880e+00 -2.57934505e+00 -2.67331660e+00 -2.72552302e+00
 -2.72552302e+00 -2.67679703e+00 -2.56890377e+00 -2.41576495e+00
 -2.21738056e+00 -1.98071147e+00 -1.71619896e+00 -1.43080387e+00
 -1.13496751e+00 -8.39131146e-01 -5.46775210e-01 -2.61380129e-01
  1.35736685e-02  2.71125327e-01  5.18235702e-01  7.54904793e-01
  9.77652173e-01  1.18995827e+00  1.39182308e+00  1.58672704e+00
  1.77467014e+00  1.95565239e+00  2.13663464e+00  2.31065603e+00
  2.49163827e+00  2.67262052e+00  2.86056362e+00  3.05894801e+00
  3.26777367e+00  3.48356020e+00  3.70630758e+00  3.93949624e+00
  4.17268491e+00  4.40587357e+00  4.63906223e+00  4.86180961e+00
  5.07063528e+00  5.25857838e+00  5.42215849e+00  5.55441475e+00
  5.64838630e+00  5.69711229e+00  5.69711229e+00  5.64490587e+00
  5.54049304e+00  5.38387379e+00  5.17852854e+00  4.92793774e+00
  4.63906223e+00  4.31538245e+00  3.96733967e+00  3.59493389e+00
  3.20860640e+00  2.81183763e+00  2.40810800e+00  1.99741752e+00
  1.58672704e+00  1.17255613e+00  7.58385221e-01  3.47694739e-01
 -5.60348878e-02 -4.52803659e-01 -8.32170290e-01 -1.19761521e+00
 -1.53521671e+00 -1.84149436e+00 -2.10600687e+00 -2.32179339e+00
 -2.48189307e+00 -2.57934505e+00 -2.60718848e+00 -2.57238420e+00
 -2.47145179e+00 -2.30787168e+00 -2.09556559e+00 -1.84497478e+00]","[nan nan nan nan nan nan nan nan nan nan nan nan nan nan nan nan nan nan
 nan nan nan nan nan nan nan nan nan nan nan nan nan nan nan nan nan nan
 nan nan nan nan nan nan nan nan nan nan nan nan nan nan nan nan nan nan
 nan nan nan nan nan nan nan nan nan nan nan nan nan nan nan nan nan nan
 nan nan nan nan nan nan nan nan nan nan nan nan nan nan nan nan nan nan
 nan nan nan nan nan nan nan nan nan nan nan nan nan nan nan nan nan nan
 nan nan nan nan nan nan nan nan nan nan nan nan nan nan nan nan nan nan
 nan nan nan nan nan nan nan nan nan nan nan nan nan nan]",3.6434858572815676,,2.8732100000000003,-0.10844499999999968
037,1,2,csm,3a.png,1,1,140,181,139,1,1,633,neu_feedback_onset,14,"[-0.17290825 -0.02664145  0.10917772  0.22758418  0.32857792  0.41215895
  0.46787964  0.50270507  0.50618761  0.47832727  0.41564149  0.32161284
  0.19624129  0.0430094  -0.13460028 -0.32962268 -0.53509271 -0.74056274
 -0.93906769 -1.13060755 -1.30473469 -1.46144912 -1.60075084 -1.72612238
 -1.83756375 -1.9385575  -2.02910361 -2.11616718 -2.19626567 -2.27636416
 -2.34949756 -2.4261135  -2.50272944 -2.57586284 -2.64899624 -2.72212964
 -2.79874559 -2.87187899 -2.94501239 -3.01814579 -3.09476173 -3.16789513
 -3.24102853 -3.31416193 -3.38729534 -3.46391128 -3.53704468 -3.61017808
 -3.68331148 -3.75992742 -3.83306082 -3.90619422 -3.97932763 -4.05594357
 -4.12907697 -4.20221037 -4.27534377 -4.34847717 -4.42509311 -4.49822652
 -4.57135992 -4.64449332 -4.72110926 -4.79424266 -4.86737606 -4.94050946
 -5.01364286 -5.09025881 -5.16339221 -5.23652561 -5.30965901 -5.38627495
 -5.45940835 -5.53254175 -5.60567515 -5.67880855 -5.7554245  -5.8285579
 -5.9016913  -5.9748247  -6.05144064 -6.12457404 -6.19770744 -6.27084084
 -6.34745679 -6.42059019 -6.49372359 -6.56685699 -6.63999039 -6.71660633
 -6.78973973 -6.86287313 -6.93600653 -7.00913993 -7.07879079 -7.14844165
 -7.21112742 -7.27033065 -7.31908625 -7.35391168 -7.37132439 -7.36435931
 -7.32605134 -7.25291794 -7.13799402 -6.97779705 -6.77232702 -6.52158393
 -6.23253287 -5.90517384 -5.55343701 -5.17732238 -4.7977252  -4.41116294
 -4.03504831 -3.67634639 -3.34550482 -3.05297122 -2.81964085 -2.65944387
 -2.58979302 -2.62810099 -2.77785033 -3.04600613 -3.42908585 -3.90967677
 -4.45991854 -5.04498575 -5.62657041 -6.16288201 -6.61909513 -6.96386688
 -7.17630199 -7.24247031 -7.16585436 -6.95341925 -6.61909513 -6.18377727
 -5.66487838 -5.08329372 -4.45991854 -3.80520048 -3.1330697  -2.45745639
 -1.78880815 -1.13757263 -0.50723237  0.08479992  0.63504169  1.13304533
  1.57184573  1.9514429   2.26835431  2.51909739  2.71760234  2.8603866
  2.9578978   3.02058357  3.05192646  3.06237408  3.05192646  3.02406611
  2.9822756   2.92307237  2.84645643  2.74894522  2.63402131  2.49471959
  2.33800516  2.16387802  1.97930325  1.78776339  1.59622353  1.4151313
  1.24796924  1.10170244  0.9763309   0.87533715  0.79175612  0.72210527
  0.66290204  0.59673372  0.51663524  0.41215895  0.27285723  0.08828246
 -0.14504791 -0.43409897 -0.77538817 -1.16543298 -1.59726829 -2.0604465
 -2.54103741 -3.01814579 -3.48132399 -3.91664185 -4.30320411 -4.63752823
 -4.90916658 -5.11463661 -5.26090341 -5.34796698 -5.38279241 -5.37582732
 -5.33751935 -5.27135104 -5.18777001 -5.09025881 -4.98578252 -4.87782369
 -4.76289977 -4.6514584  -4.53653449 -4.42161057 -4.30668666 -4.19176274
 -4.07683883 -3.96191491 -3.846991   -3.72858454 -3.61366062 -3.49873671
 -3.38381279 -3.26888888 -3.15396496 -3.03904105 -2.92411713 -2.80919322
 -2.6942693  -2.57934539 -2.46442147 -2.34949756 -2.23457364 -2.11964973
 -2.00472581 -1.8898019  -1.77139544 -1.65647152 -1.54154761 -1.42662369
 -1.31169978 -1.19677586 -1.08185195 -0.96692803 -0.85200412 -0.7370802
 -0.62215629 -0.50723237 -0.39230846 -0.27738454 -0.16594317 -0.05101925
  0.05693958  0.16489841  0.26937469  0.36688589  0.46091455  0.54101304
  0.61066389  0.66638458]","[-3.48810309 -3.22077611 -2.90889462 -2.55931318 -2.18231358 -1.78817764
 -1.38375989 -0.97934214 -0.57149712 -0.17050664  0.22705658  0.62119252
  1.00847392  1.38890079  1.76590039  2.13604545  2.49933597  2.85577195
  3.20535339  3.54465303  3.87024359  4.18555235  4.48372476  4.76818809
  5.03551508  5.28227845  5.51190548  5.72096889  5.91632323  6.09111395
  6.25562286  6.4064227   6.550368    6.69088603  6.83140407  6.97877664
  7.13300374  7.30093993  7.47915792  7.67451226  7.88357567  8.10634816
  8.33940246  8.57931129  8.82950193  9.08311984  9.34359229  9.60406474
  9.86796446 10.13186418 10.39919116 10.66309088 10.93041787 11.19431759
 11.46164458 11.72897156 11.99287128 12.26019827 12.52409799 12.79142497
 13.05532469 13.31922441 13.58312413 13.84359658 14.09721449 14.34740513
 14.58388669 14.80665918 15.00544079 15.17680424 15.31046774 15.39614946
 15.42356762 15.38586766 15.27276778 15.08426798 14.81694099 14.47421408
 14.05265999 13.56598778 13.01762473 12.41442538 11.76667152 11.08121771
 10.3614912   9.61091928  8.8329292   8.03437551  7.21868547  6.38928636
  5.55645997  4.72706086  3.91137082  3.12309894  2.36909974  1.65965505
  0.99819212  0.39156549 -0.1636521  -0.66746065 -1.12671471 -1.54141426
 -1.9252684  -2.27827711 -2.60386767 -2.90546735 -3.18307615 -3.42983952
 -3.63547566 -3.79313004 -3.8856663  -3.89252084 -3.79998458 -3.59092116
 -3.2550488  -2.78208566 -2.18231358 -1.46944161 -0.66746065  0.19621115
  1.08387384  1.96125472  2.79750838  3.56521665  4.25067046  4.84701528
  5.3542511   5.786087    6.15280479  6.46468628  6.74572234  6.99934025
  7.24267635  7.47915792  7.71221222  7.95212105  8.19545715  8.44222053
  8.69583844  8.95288362]",1.1110182433009028,12.362416567418673,2.8714649999999997,
037,2,2,csm,43a.png,1,0,280,NaN,281,1,0,NaN,neu_feedback_onset,1,"[ 8.86874766e-02  1.09193252e-01  1.19446139e-01  1.19446139e-01
  1.12610881e-01  1.02357993e-01  9.21051058e-02  7.84345891e-02
  6.13464434e-02  4.76759267e-02  3.05877810e-02  1.34996352e-02
 -7.00613977e-03 -3.09295439e-02 -5.82705771e-02 -9.24468687e-02
 -1.30040789e-01 -1.74469968e-01 -2.18899147e-01 -2.63328327e-01
 -3.07757506e-01 -3.48769055e-01 -3.82945347e-01 -4.10286380e-01
 -4.37627413e-01 -4.68386076e-01 -5.02562367e-01 -5.53826805e-01
 -6.18761759e-01 -7.07620117e-01 -8.23819508e-01 -9.57107045e-01
 -1.10748273e+00 -1.25785841e+00 -1.39798121e+00 -1.50734534e+00
 -1.57228029e+00 -1.57569792e+00 -1.50392771e+00 -1.35696966e+00
 -1.12798850e+00 -8.34072396e-01 -4.78638963e-01 -8.21939812e-02
  3.31339147e-01  7.48289904e-01  1.14473489e+00  1.50358595e+00
  1.81800783e+00  2.07774765e+00  2.28622302e+00  2.43659871e+00
  2.54254521e+00  2.60748016e+00  2.64165646e+00  2.64849171e+00
  2.63823883e+00  2.61773305e+00  2.59722728e+00  2.58013913e+00
  2.57672150e+00  2.58697439e+00  2.62456831e+00  2.69292089e+00
  2.80228503e+00  2.95266071e+00  3.15088320e+00  3.40037013e+00
  3.69086861e+00  4.01896101e+00  4.37439444e+00  4.74691602e+00
  5.11943759e+00  5.47487103e+00  5.80296343e+00  6.09346190e+00
  6.33953120e+00  6.54117132e+00  6.70179989e+00  6.82141691e+00
  6.91369290e+00  6.98546311e+00  7.04698044e+00  7.10166251e+00
  7.15634457e+00  7.21786190e+00  7.28279685e+00  7.35798469e+00
  7.44342542e+00  7.53570141e+00  7.64164791e+00  7.75442967e+00
  7.88088195e+00  8.01416949e+00  8.15770992e+00  8.31150323e+00
  8.46871417e+00  8.62592511e+00  8.77630079e+00  8.90617070e+00
  9.01211720e+00  9.08046979e+00  9.10439319e+00  9.07363453e+00
  8.98819380e+00  8.84465338e+00  8.64984851e+00  8.40719684e+00
  8.13036888e+00  7.83303515e+00  7.53570141e+00  7.24520293e+00
  6.98546311e+00  6.76673485e+00  6.59927102e+00  6.48648926e+00
  6.43522482e+00  6.43864245e+00  6.49332452e+00  6.59243576e+00
  6.72230567e+00  6.87951661e+00  7.04698044e+00  7.21786190e+00
  7.38190810e+00  7.53911904e+00  7.67924183e+00  7.80227648e+00
  7.90822299e+00  8.00049897e+00  8.07568682e+00  8.14062177e+00
  8.19530384e+00  8.23631539e+00  8.26707405e+00  8.29099745e+00
  8.30466797e+00  8.30466797e+00  8.29441508e+00  8.27390931e+00
  8.24315064e+00  8.20213909e+00  8.15429229e+00  8.09619259e+00
  8.03809289e+00  7.97315794e+00  7.91164062e+00  7.85354092e+00
  7.80227648e+00  7.75784730e+00  7.72367101e+00  7.69974761e+00
  7.68607709e+00  7.68607709e+00  7.68949472e+00  7.69974761e+00
  7.70658287e+00  7.70658287e+00  7.68949472e+00  7.65190080e+00
  7.59038348e+00  7.49468986e+00  7.37165521e+00  7.22127953e+00
  7.04698044e+00  6.85217558e+00  6.65395309e+00  6.46256585e+00
  6.28484914e+00  6.13447345e+00  6.02510932e+00  5.96017437e+00
  5.94992148e+00  5.99435066e+00  6.09687953e+00  6.25409047e+00
  6.46256585e+00  6.70863515e+00  6.99229837e+00  7.29988500e+00
  7.62114214e+00  7.95265217e+00  8.28416219e+00  8.60883696e+00
  8.92325885e+00  9.22059258e+00  9.49742054e+00  9.75032510e+00
  9.97930626e+00  1.01843640e+01  1.03620807e+01  1.05124564e+01
  1.06423263e+01  1.07482728e+01  1.08337135e+01  1.09020661e+01
  1.09567482e+01  1.10045950e+01  1.10490242e+01  1.10900357e+01
  1.11344649e+01  1.11857293e+01  1.12438290e+01  1.13155993e+01
  1.13976224e+01  1.14967336e+01  1.16095154e+01  1.17393853e+01
  1.18829257e+01  1.20435543e+01  1.22178534e+01  1.24024053e+01
  1.26006278e+01  1.28056856e+01  1.30141609e+01  1.32226363e+01
  1.34242764e+01  1.36156637e+01  1.37899628e+01  1.39403384e+01
  1.40599555e+01  1.41488138e+01  1.42000783e+01  1.42103312e+01
  1.41795725e+01  1.41112199e+01  1.40018558e+01  1.38617330e+01
  1.36942691e+01  1.35028819e+01  1.32909889e+01  1.30688430e+01
  1.28364442e+01  1.26006278e+01  1.23648114e+01  1.21289950e+01
  1.19034315e+01  1.16847032e+01  1.14796455e+01  1.12848406e+01
  1.11071239e+01  1.09464953e+01  1.08029549e+01  1.06730850e+01
  1.05568856e+01  1.04509391e+01  1.03518278e+01  1.02561342e+01
  1.01604406e+01  1.00613294e+01  9.95538285e+00  9.84260109e+00
  9.71956644e+00  9.58286127e+00  9.44273848e+00  9.28894517e+00
  9.13173422e+00  8.97110565e+00  8.81047708e+00  8.64643088e+00]","[nan nan nan nan nan nan nan nan nan nan nan nan nan nan nan nan nan nan
 nan nan nan nan nan nan nan nan nan nan nan nan nan nan nan nan nan nan
 nan nan nan nan nan nan nan nan nan nan nan nan nan nan nan nan nan nan
 nan nan nan nan nan nan nan nan nan nan nan nan nan nan nan nan nan nan
 nan nan nan nan nan nan nan nan nan nan nan nan nan nan nan nan nan nan
 nan nan nan nan nan nan nan nan nan nan nan nan nan nan nan nan nan nan
 nan nan nan nan nan nan nan nan nan nan nan nan nan nan nan nan nan nan
 nan nan nan nan nan nan nan nan nan nan nan nan nan nan]",12.699739064013869,,2.926005000000001,0.007985000000000575
037,2,2,csm,54a.png,1,0,160,NaN,339,0,1,611,neu_feedback_onset,2,"[  3.16059641   2.73369984   2.28597905   1.83044918   1.37752233
   0.93761063   0.52633223   0.15149622  -0.18429437  -0.47583349
  -0.72312113  -0.92615731  -1.08754503  -1.20988734  -1.30359634
  -1.36867204  -1.41032048  -1.43374774  -1.44155682  -1.43895379
  -1.42333562  -1.39730535  -1.36086296  -1.31661148  -1.2619479
  -1.1968722   -1.12398742  -1.04329356  -0.95479061  -0.85847858
  -0.75956352  -0.65804544  -0.55913038  -0.45761229  -0.36390329
  -0.27279732  -0.18950043  -0.11140959  -0.04112784   0.02394786
   0.08121447   0.13327503   0.18012953   0.224381     0.26602945
   0.30507486   0.34412028   0.38056267   0.41700506   0.45084442
   0.48468378   0.51331709   0.53934737   0.55496554   0.56537765
   0.56277462   0.54455342   0.51071406   0.46125653   0.39618084
   0.31028092   0.20876283   0.09422961  -0.03071573  -0.16607318
  -0.30663668  -0.45240624  -0.59296974  -0.73093022  -0.86108161
  -0.97561484  -1.07713292  -1.15782678  -1.21769642  -1.25153579
  -1.2619479   -1.24893276  -1.2150934   -1.1682389   -1.11097228
  -1.05370567  -1.00164511  -0.9625997   -0.94958456  -0.9625997
  -1.0094542   -1.09535412  -1.21769642  -1.37648112  -1.56910518
  -1.79036255  -2.03504717  -2.29795298  -2.56866787  -2.8419858
  -3.11270069  -3.37560651  -3.62549718  -3.86237271  -4.08623311
  -4.29707836  -4.49490848  -4.68753254  -4.87234751  -5.05455946
  -5.23416838  -5.41638033  -5.59859228  -5.78340726  -5.97082526
  -6.15824327  -6.34566127  -6.53047625  -6.7126882   -6.88709106
  -7.05368485  -7.20986652  -7.35303305  -7.48578747  -7.60552675
  -7.71485392  -7.81116595  -7.89706587  -7.97255367  -8.04283543
  -8.10791112  -8.16778076  -8.22244435  -8.27710793  -8.33177152
  -8.38383207  -8.43849566  -8.49315924  -8.54782283  -8.60508944
  -8.66495908  -8.72482872  -8.78469836  -8.844568    -8.90704067
  -8.96691031  -9.02677995  -9.08404656  -9.14651923  -9.2089919
  -9.27667062  -9.35476146  -9.44586743  -9.5551946   -9.68794902
  -9.84673372 -10.03675475 -10.25801212 -10.50790279 -10.7890298
 -11.09618708 -11.42156557 -11.75995918 -12.10355886 -12.44455551
 -12.77514004 -13.08750338 -13.37643947 -13.6315362  -13.84758751
 -14.02199038 -14.15214177 -14.23283563 -14.26927802 -14.25626288
 -14.19899627 -14.10268424 -13.96732679 -13.80073301 -13.6029029
 -13.38424856 -13.14477    -12.8922763  -12.62676746 -12.35344953
 -12.07752858 -11.7990046  -11.52308365 -11.25236876 -10.99206597
 -10.74477833 -10.51571188 -10.30746965 -10.12265467  -9.96126695
  -9.82851253  -9.72439141  -9.64369755  -9.58643094  -9.54998855
  -9.53176735  -9.52395827  -9.52395827  -9.52916432  -9.53437038
  -9.53176735  -9.52395827  -9.50573707  -9.47710377  -9.43805835
  -9.38599779  -9.32612815  -9.25844943  -9.18556465  -9.10747381
  -9.02677995  -8.94348306  -8.85498011  -8.76387414  -8.66495908
  -8.55302888  -8.42548052  -8.28231399  -8.11311718  -7.91789009
  -7.69663272  -7.44674205  -7.16821807  -6.86366381  -6.53307928
  -6.18427355  -5.81724662  -5.43980758  -5.05716249  -4.67191437
  -4.28926928  -3.91443327  -3.55000937  -3.20380667  -2.87322213
  -2.56346182  -2.27452573  -2.00381083  -1.75652319  -1.52485371
  -1.3088024   -1.10576623  -0.91314217  -0.72832719  -0.5513213
  -0.37691843  -0.20772162  -0.04373087   0.11505383   0.26602945
   0.40398992   0.52893526   0.63045334   0.70594115   0.7475896
   0.75019262   0.70854418   0.62004123   0.48208076   0.29726578]","[-2.75695671 -2.49966526 -2.23187211 -1.95620269 -1.67265701 -1.38123505
 -1.08718767 -0.78526403 -0.48071496 -0.17616588  0.13363403  0.44080853
  0.74798302  1.05515751  1.36233201  1.66688108  1.9661793   2.2628521
  2.55427406  2.83781974  3.10823831  3.36552977  3.60706869  3.8249788
  4.01663468  4.17416006  4.30018037  4.38681933  4.42882609  4.43145152
  4.38944475  4.30543121  4.18203633  4.02451095  3.83548049  3.62282123
  3.391784    3.14499424  2.89295363  2.64091302  2.39149783  2.15520976
  1.9320488   1.72989123  1.55398789  1.40171335  1.27831847  1.18117782
  1.10766597  1.05515751  1.02102701  0.99739821  0.98164567  0.96589313
  0.95276601  0.93701348  0.91601009  0.88975586  0.86087621  0.82937113
  0.79261521  0.75323386  0.71385252  0.67184575  0.62983898  0.58783221
  0.54320002  0.50119325  0.45656106  0.4145543   0.3699221   0.32791534
  0.28328314  0.23865095  0.19664418  0.15201199  0.11000522  0.06537303
  0.02336626 -0.02126593 -0.06327269 -0.10527946 -0.14728623 -0.189293
 -0.22867435 -0.26805569 -0.30218619 -0.33369127 -0.36257092 -0.38882515
 -0.40982853 -0.43083192 -0.4518353  -0.48071496 -0.5200963  -0.58048103
 -0.66449457 -0.7826386  -0.94278941 -1.15019783 -1.40748928 -1.7172892
 -2.07697215 -2.4812873  -2.92498379 -3.39755993 -3.88851404 -4.38471899
 -4.88092394 -5.36137635 -5.82082538 -6.25139476 -6.65045906 -7.01276743
 -7.34094531 -7.63236727 -7.88965872 -8.1154451  -8.3097264  -8.47250263
 -8.60639921 -8.71404155 -8.79280424 -8.8453127  -8.87156693 -8.87156693
 -8.8453127  -8.79542966 -8.72191782 -8.62740259 -8.5145094  -8.3884891
 -8.24671625 -8.09444172 -7.93429091 -7.76888926 -7.59823677 -7.42495885
 -7.2490555  -7.07315216]",1.6775469902086115e-14,2.64143810171415,3.8416799999999993,-0.0748899999999999
037,2,2,csp,30b.png,1,0,72,76,72,1,1,350,pos_feedback_onset,3,"[-3.60336089e-01 -2.70532702e-01 -1.77922960e-01 -8.81195732e-02
 -1.12254233e-03  8.30681327e-02  1.58839740e-01  2.23385924e-01
  2.76706685e-01  3.13189311e-01  3.30027446e-01  3.21608379e-01
  2.87932109e-01  2.26192280e-01  1.36388894e-01  1.85219485e-02
 -1.18989487e-01 -2.76145414e-01 -4.50139476e-01 -6.32552605e-01
 -8.17772090e-01 -1.00018522e+00 -1.17698564e+00 -1.34256063e+00
 -1.49129749e+00 -1.62600257e+00 -1.74106316e+00 -1.83928561e+00
 -1.91505722e+00 -1.97399069e+00 -2.01608603e+00 -2.03853688e+00
 -2.04695595e+00 -2.03853688e+00 -2.01608603e+00 -1.97679705e+00
 -1.92347629e+00 -1.85331739e+00 -1.76632036e+00 -1.66529155e+00
 -1.55023096e+00 -1.41552588e+00 -1.26959538e+00 -1.10963310e+00
 -9.38445391e-01 -7.56032262e-01 -5.70812777e-01 -3.82786936e-01
 -1.91954739e-01 -6.73525400e-03  1.72871519e-01  3.44059225e-01
  5.01215152e-01  6.41532944e-01  7.62206245e-01  8.63235055e-01
  9.41813018e-01  9.97940135e-01  1.03161640e+00  1.04284183e+00
  1.03722912e+00  1.01197191e+00  9.72682932e-01  9.22168527e-01
  8.63235055e-01  7.93076159e-01  7.20110907e-01  6.41532944e-01
  5.62954980e-01  4.78764305e-01  3.94573630e-01  3.10382955e-01
  2.23385924e-01  1.36388894e-01  5.21982185e-02 -3.47988124e-02
 -1.21795843e-01 -2.08792874e-01 -2.92983549e-01 -3.79980580e-01
 -4.66977611e-01 -5.53974642e-01 -6.40971673e-01 -7.25162348e-01
 -8.12159379e-01 -8.96350054e-01 -9.80540729e-01 -1.06192505e+00
 -1.14330937e+00 -1.22188733e+00 -1.29485258e+00 -1.36220512e+00
 -1.42394495e+00 -1.48007207e+00 -1.52778012e+00 -1.57268181e+00
 -1.61197079e+00 -1.64845342e+00 -1.69054875e+00 -1.73545045e+00
 -1.79157756e+00 -1.85893010e+00 -1.94592714e+00 -2.04695595e+00
 -2.16762925e+00 -2.30794704e+00 -2.46229661e+00 -2.63348432e+00
 -2.81589744e+00 -3.00672964e+00 -3.20317455e+00 -3.40242581e+00
 -3.60167708e+00 -3.79812199e+00 -3.98614783e+00 -4.16856096e+00
 -4.33413595e+00 -4.48287281e+00 -4.60915882e+00 -4.71018763e+00
 -4.78034653e+00 -4.81963551e+00 -4.82524822e+00 -4.79718466e+00
 -4.73825119e+00 -4.65125416e+00 -4.54180628e+00 -4.41552027e+00
 -4.27800883e+00 -4.13769104e+00 -4.00579232e+00 -3.88511902e+00
 -3.78689656e+00 -3.71673767e+00 -3.67744869e+00 -3.67464233e+00
 -3.71112496e+00 -3.78128385e+00 -3.88511902e+00 -4.01701774e+00
 -4.16575460e+00 -4.32852324e+00 -4.49129188e+00 -4.65125416e+00
 -4.79999102e+00 -4.93188974e+00 -5.03853127e+00 -5.11430287e+00
 -5.16201092e+00 -5.17604270e+00 -5.15359185e+00 -5.09746474e+00
 -5.00766135e+00 -4.88979441e+00 -4.74667026e+00 -4.58390162e+00
 -4.41271391e+00 -4.23871985e+00 -4.07033850e+00 -3.91318258e+00
 -3.77567114e+00 -3.65499784e+00 -3.55958174e+00 -3.48661649e+00
 -3.43610208e+00 -3.40523217e+00 -3.39400675e+00 -3.39961946e+00
 -3.42768302e+00 -3.47258471e+00 -3.53993725e+00 -3.62974064e+00
 -3.74760758e+00 -3.89073173e+00 -4.06191944e+00 -4.25555799e+00
 -4.47164739e+00 -4.70176857e+00 -4.94592152e+00 -5.19288084e+00
 -5.43703379e+00 -5.67838040e+00 -5.91130793e+00 -6.13301004e+00
 -6.34629308e+00 -6.55115706e+00 -6.75040832e+00 -6.94685323e+00
 -7.14610450e+00 -7.34816212e+00 -7.56144516e+00 -7.78314727e+00
 -8.01326845e+00 -8.25461505e+00 -8.50438072e+00 -8.75414639e+00
 -9.00671842e+00 -9.24806502e+00 -9.48099255e+00 -9.69427560e+00
 -9.88510779e+00 -1.00478764e+01 -1.01797752e+01 -1.02808040e+01
 -1.03481565e+01 -1.03818328e+01 -1.03874455e+01 -1.03649946e+01
 -1.03200929e+01 -1.02583531e+01 -1.01825815e+01 -1.00955845e+01
 -1.00057811e+01 -9.91036499e+00 -9.81494890e+00 -9.71953280e+00
 -9.62411670e+00 -9.52589425e+00 -9.43047815e+00 -9.32944934e+00
 -9.22842053e+00 -9.12458536e+00 -9.01794384e+00 -8.90568961e+00
 -8.79062902e+00 -8.67276207e+00 -8.54928241e+00 -8.42299640e+00
 -8.29671039e+00 -8.17042438e+00 -8.05255743e+00 -7.94310955e+00
 -7.84769346e+00 -7.77192185e+00 -7.71860109e+00 -7.69053753e+00
 -7.69334389e+00 -7.71860109e+00 -7.77192185e+00 -7.85049981e+00
 -7.94591591e+00 -8.05817014e+00 -8.18445616e+00 -8.31635488e+00
 -8.45667267e+00 -8.60260318e+00 -8.75134003e+00 -8.90288325e+00
 -9.05442647e+00 -9.20596968e+00 -9.35470654e+00 -9.49783069e+00
 -9.63534212e+00 -9.76443449e+00 -9.87949508e+00 -9.98333025e+00
 -1.00675209e+01 -1.01376798e+01 -1.01853879e+01 -1.02190641e+01]","[ -1.94398467  -1.74574359  -1.53935561  -1.32753637  -1.11028586
  -0.88488846  -0.65677543  -0.42323114  -0.18968685   0.04114181
   0.26653921   0.48107409   0.67931517   0.86126247   1.01876909
   1.14911939   1.25231338   1.32563542   1.36636989   1.37994805
   1.36636989   1.32835106   1.26860717   1.18985386   1.09752239
   0.9943284    0.88841878   0.7770779    0.66573702   0.55711176
   0.45120214   0.35072378   0.25296106   0.15791396   0.06829813
  -0.02131771  -0.10550228  -0.18968685  -0.27115579  -0.34990909
  -0.4286624   -0.50741571  -0.58345339  -0.65949106  -0.73281311
  -0.80613515  -0.8794572   -0.95549488  -1.03153255  -1.10757023
  -1.18903917  -1.27050811  -1.35197705  -1.43344599  -1.51219929
  -1.58823697  -1.65884339  -1.72401854  -1.78104679  -1.82992816
  -1.87066263  -1.90868147  -1.93855341  -1.96570972  -1.98743477
  -2.00915982  -2.02816924  -2.04446303  -2.06075682  -2.07705061
  -2.0933444   -2.10692255  -2.12321634  -2.1367945   -2.14765702
  -2.16123518  -2.1720977   -2.18296023  -2.19382275  -2.21011654
  -2.23455722  -2.2671448   -2.32145743  -2.40021073  -2.51426725
  -2.66905823  -2.87273058  -3.13071556  -3.45116005  -3.8286328
  -4.26313381  -4.74923182  -5.27606429  -5.83276871  -6.40848255
  -6.98962765  -7.56534148  -8.12476153  -8.6597409   -9.15941706
  -9.62650565 -10.05285976 -10.43847941 -10.78608022 -11.09023092
 -11.35636279 -11.58447582 -11.77728565 -11.929361   -12.04884878
 -12.13846461 -12.1982085  -12.23351171 -12.25252112 -12.25795239
 -12.25252112 -12.24437423 -12.23622734 -12.23351171 -12.23079607
 -12.23622734 -12.24708986 -12.26338365 -12.28239307 -12.30411812
 -12.3285588  -12.35028385 -12.37472453 -12.39373395 -12.41002774
 -12.42089027 -12.42903716 -12.42903716 -12.42632153 -12.42089027
 -12.41274337 -12.41002774 -12.415459   -12.43175279 -12.46434037]",0.14761431690492186,0.2776106329917472,3.56334,0.2127949999999994
037,2,2,csm,44a.png,1,1,76,181,75,1,1,571,neu_feedback_onset,4,"[ 0.70099779  0.71060269  0.72661086  0.74582067  0.75542557  0.75222394
  0.7298125   0.68178798  0.60174713  0.48328667  0.33280987  0.14711509
 -0.0673944  -0.30431532 -0.55724442 -0.81657678 -1.06950588 -1.30962843
 -1.52733955 -1.71623597 -1.87311604 -1.99477813 -2.08762552 -2.15165821
 -2.19648108 -2.22529579 -2.2445056  -2.25731213 -2.26691703 -2.2733203
 -2.2733203  -2.25731213 -2.22209416 -2.15806147 -2.05881082 -1.91793892
 -1.73224414 -1.50172648 -1.22638595 -0.91582744 -0.57645422 -0.22107284
  0.14071182  0.49609321  0.83226479  1.13962166  1.40855893  1.64227822
  1.83117463  1.98165143  2.09370863  2.17374948  2.22497563  2.25379033
  2.26659687  2.26979851  2.26339524  2.25379033  2.24418543  2.2409838
  2.24738707  2.26659687  2.30181485  2.35944426  2.43628348  2.53873577
  2.6635995   2.8140763   2.97735964  3.15665115  3.34234593  3.52483908
  3.69772732  3.85780903  3.99547929  4.10753649  4.19398061  4.25801329
  4.2964329   4.32204597  4.33165087  4.33485251  4.34125578  4.35086068
  4.37327212  4.40849009  4.45971624  4.52695056  4.60699141  4.69343553
  4.78948455  4.88873521  4.98478423  5.07763162  5.16087411  5.23131006
  5.28573784  5.33056072  5.35617379  5.37218196  5.37858523  5.37858523
  5.37218196  5.37218196  5.38178686  5.40099667  5.43621464  5.49064242
  5.56748164  5.66353067  5.77878949  5.91325813  6.0605333   6.21741337
  6.38389834  6.55358495  6.72967483  6.91216797  7.09786275  7.29316243
  7.49166375  7.7029716   7.92068272  8.1447971   8.37531476  8.60903405
  8.83955171  9.0636661   9.27497395  9.47027363  9.63996024  9.7776305
  9.88328443  9.94731711  9.96652692  9.94411548  9.87688116  9.76482397
  9.6175488   9.43825729  9.23975597  9.02524649  8.80753537  8.59942915
  8.4073311   8.23764449  8.09357096  7.98151376  7.89506964  7.82783533
  7.78301245  7.74459284  7.70937486  7.67415689  7.63253565  7.58451113
  7.53328499  7.47885721  7.42763106  7.38280819  7.35079184  7.33158204
  7.33158204  7.34759021  7.38280819  7.4308327   7.49166375  7.5620997
  7.63253565  7.7029716   7.77020591  7.83103696  7.88546474  7.93669089
  7.98151376  8.02633664  8.07436115  8.12878893  8.18961998  8.2664592
  8.35290332  8.45855725  8.57701771  8.71148634  8.85876151  9.01884322
  9.18852983  9.3646197   9.54391121  9.72320272  9.90569587 10.08498738
 10.26107725 10.43716713 10.61005537 10.78294361 10.95263022 11.12551846
 11.30480998 11.48730312 11.67619953 11.87470085 12.0860087  12.31012309
 12.54384238 12.78716657 13.0432973  13.3058313  13.57156693 13.84050419
 14.10944146 14.37197546 14.63130782 14.88103528 15.12115784 15.35487713
 15.57578988 15.78709773 15.99200232 16.187302   16.37619841 16.55869156
 16.73478143 16.90766967 17.07735628 17.24063962 17.39751969 17.54479486
 17.68566676 17.81053049 17.91938605 18.00903181 18.07626613 18.11468574
 18.121089   18.09867757 18.04104815 17.9514024  17.82653867 17.67286023
 17.49036708 17.28226087 17.05494484 16.81482229 16.56189319 16.30576246
 16.04963173 15.79670264 15.55337844 15.31325589 15.08593986 14.86822874
 14.66012253 14.45841958 14.26632153 14.08062675 13.90453688 13.7380519
 13.58117183 13.43709829]","[-4.28596744 -3.87753897 -3.44210695 -2.99317317 -2.52736218 -2.05817574
 -1.58223842 -1.10630111 -0.63373923 -0.1645528   0.29788275  0.75356742
  1.2025012   1.64130866  2.07674067  2.50204636  2.92397661  3.34253141
  3.75771078  4.17289014  4.5880695   5.00324886  5.41167734  5.81335494
  6.20153076  6.57282938  6.9204999   7.23441601  7.51120225  7.7407323
  7.91963073  8.05127296  8.12553269  8.14578534  8.1187818   8.04452208
  7.92975705  7.77786216  7.59896374  7.39981266  7.18040893  6.94750344
  6.70784706  6.46143979  6.21503253  5.96862527  5.722218    5.47918618
  5.2395298   5.0066243   4.78046969  4.56444141  4.35178856  4.1458866
  3.95011097  3.75771078  3.57206147  3.3897876   3.21426462  3.04211708
  2.87334498  2.70794832  2.54930255  2.39403222  2.24213733  2.10036877
  1.96535109  1.84383518  1.73244559  1.64130866  1.56367349  1.50966642
  1.46916112  1.44890847  1.4354067   1.42528037  1.40840316  1.37464874
  1.31726623  1.21937841  1.07760985  0.89196054  0.6556796   0.3822688
  0.07172814 -0.25906517 -0.59660937 -0.93077812 -1.24131879 -1.51810503
 -1.75438596 -1.94003527 -2.07505295 -2.15606356 -2.18981798 -2.17969165
 -2.12906002 -2.05142486 -1.94678616 -1.82864569 -1.70037889 -1.56873666
 -1.44722075 -1.3392066  -1.258196   -1.20756437 -1.20081348 -1.24131879
 -1.33583116 -1.48435061 -1.69025257 -1.94678616 -2.24720049 -2.58474469
 -2.95266786 -3.34084369 -3.73914584 -4.14082344 -4.54250103 -4.93742774
 -5.32560357 -5.70702851 -6.07832713 -6.43949942 -6.78716995 -7.1213387
 -7.4352548  -7.72216737 -7.97532552 -8.18460292 -8.34662414 -8.4478874
 -8.4883927  -8.46476461 -8.38712944 -8.25886264 -8.09346599 -7.91119212
 -7.7322937  -7.57702337]",16.711969789380504,5.928795051602061,3.123405,-0.2902600000000004
037,2,2,csm,65a.png,1,1,192,78,191,1,1,355,neu_feedback_onset,5,"[nan nan nan nan nan nan nan nan nan nan nan nan nan nan nan nan nan nan
 nan nan nan nan nan nan nan nan nan nan nan nan nan nan nan nan nan nan
 nan nan nan nan nan nan nan nan nan nan nan nan nan nan nan nan nan nan
 nan nan nan nan nan nan nan nan nan nan nan nan nan nan nan nan nan nan
 nan nan nan nan nan nan nan nan nan nan nan nan nan nan nan nan nan nan
 nan nan nan nan nan nan nan nan nan nan nan nan nan nan nan nan nan nan
 nan nan nan nan nan nan nan nan nan nan nan nan nan nan nan nan nan nan
 nan nan nan nan nan nan nan nan nan nan nan nan nan nan nan nan nan nan
 nan nan nan nan nan nan nan nan nan nan nan nan nan nan nan nan nan nan
 nan nan nan nan nan nan nan nan nan nan nan nan nan nan nan nan nan nan
 nan nan nan nan nan nan nan nan nan nan nan nan nan nan nan nan nan nan
 nan nan nan nan nan nan nan nan nan nan nan nan nan nan nan nan nan nan
 nan nan nan nan nan nan nan nan nan nan nan nan nan nan nan nan nan nan
 nan nan nan nan nan nan nan nan nan nan nan nan nan nan nan nan nan nan
 nan nan nan nan nan nan nan nan]","[-2.45692090e+00 -2.34918675e+00 -2.21524700e+00 -2.04927818e+00
 -1.84836856e+00 -1.61251813e+00 -1.34172689e+00 -1.04181832e+00
 -7.15704145e-01 -3.66296100e-01  5.82346741e-04  3.73284261e-01
  7.48897909e-01  1.12159982e+00  1.48556654e+00  1.83497458e+00
  2.16400049e+00  2.47555600e+00  2.76381763e+00  3.02878540e+00
  3.27337103e+00  3.49757453e+00  3.70430762e+00  3.89648204e+00
  4.07409780e+00  4.24297835e+00  4.40312371e+00  4.55453386e+00
  4.69720881e+00  4.82823683e+00  4.94761791e+00  5.05535206e+00
  5.14561580e+00  5.22132088e+00  5.27955555e+00  5.32323156e+00
  5.35234890e+00  5.36690756e+00  5.36981930e+00  5.36399583e+00
  5.35234890e+00  5.33196676e+00  5.31158462e+00  5.28829075e+00
  5.26208515e+00  5.23879128e+00  5.21549741e+00  5.19802701e+00
  5.18346834e+00  5.17473314e+00  5.17473314e+00  5.18346834e+00
  5.20385048e+00  5.23296781e+00  5.27082035e+00  5.31158462e+00
  5.35817236e+00  5.39893663e+00  5.42805397e+00  5.43970091e+00
  5.42805397e+00  5.38146623e+00  5.29993769e+00  5.17473314e+00
  5.00585258e+00  4.78456082e+00  4.51668132e+00  4.19639061e+00
  3.82951217e+00  3.41604598e+00  2.95890379e+00  2.46390906e+00
  1.93688526e+00  1.38074412e+00  8.01309115e-01  2.04403706e-01
 -4.09972106e-01 -1.03017138e+00 -1.65910586e+00 -2.29386381e+00
 -2.92862176e+00 -3.56629144e+00 -4.19813766e+00 -4.82707214e+00
 -5.45018315e+00 -6.05873549e+00 -6.65272917e+00 -7.22051724e+00
 -7.76209971e+00 -8.26874137e+00 -8.73461877e+00 -9.15682015e+00
 -9.52952207e+00 -9.85563624e+00 -1.01351627e+01 -1.03768366e+01
 -1.05806579e+01 -1.07582737e+01 -1.09155073e+01 -1.10552705e+01
 -1.11833868e+01 -1.13027679e+01 -1.14163255e+01 -1.15240597e+01
 -1.16288821e+01 -1.17307927e+01 -1.18356152e+01 -1.19520845e+01
 -1.20831125e+01 -1.22403461e+01 -1.24325206e+01 -1.26596358e+01
 -1.29333388e+01 -1.32448943e+01 -1.35943023e+01 -1.39728277e+01
 -1.43688235e+01 -1.47677310e+01 -1.51579033e+01 -1.55276935e+01
 -1.58625429e+01 -1.61537162e+01 -1.63953901e+01 -1.65904763e+01
 -1.67331513e+01 -1.68292385e+01 -1.68816497e+01 -1.69020318e+01
 -1.68903849e+01 -1.68583558e+01 -1.68059446e+01 -1.67389747e+01
 -1.66603579e+01 -1.65700942e+01 -1.64710952e+01 -1.63604493e+01
 -1.62381565e+01 -1.60983933e+01 -1.59411597e+01 -1.57693674e+01]",,4.115080451202256,2.7393399999999994,0.2614100000000006
037,2,2,csp,2b.png,1,1,228,NaN,227,1,1,558,neg_feedback_onset,6,"[nan nan nan nan nan nan nan nan nan nan nan nan nan nan nan nan nan nan
 nan nan nan nan nan nan nan nan nan nan nan nan nan nan nan nan nan nan
 nan nan nan nan nan nan nan nan nan nan nan nan nan nan nan nan nan nan
 nan nan nan nan nan nan nan nan nan nan nan nan nan nan nan nan nan nan
 nan nan nan nan nan nan nan nan nan nan nan nan nan nan nan nan nan nan
 nan nan nan nan nan nan nan nan nan nan nan nan nan nan nan nan nan nan
 nan nan nan nan nan nan nan nan nan nan nan nan nan nan nan nan nan nan
 nan nan nan nan nan nan nan nan nan nan nan nan nan nan nan nan nan nan
 nan nan nan nan nan nan nan nan nan nan nan nan nan nan nan nan nan nan
 nan nan nan nan nan nan nan nan nan nan nan nan nan nan nan nan nan nan
 nan nan nan nan nan nan nan nan nan nan nan nan nan nan nan nan nan nan
 nan nan nan nan nan nan nan nan nan nan nan nan nan nan nan nan nan nan
 nan nan nan nan nan nan nan nan nan nan nan nan nan nan nan nan nan nan
 nan nan nan nan nan nan nan nan nan nan nan nan nan nan nan nan nan nan
 nan nan nan nan nan nan nan nan]","[nan nan nan nan nan nan nan nan nan nan nan nan nan nan nan nan nan nan
 nan nan nan nan nan nan nan nan nan nan nan nan nan nan nan nan nan nan
 nan nan nan nan nan nan nan nan nan nan nan nan nan nan nan nan nan nan
 nan nan nan nan nan nan nan nan nan nan nan nan nan nan nan nan nan nan
 nan nan nan nan nan nan nan nan nan nan nan nan nan nan nan nan nan nan
 nan nan nan nan nan nan nan nan nan nan nan nan nan nan nan nan nan nan
 nan nan nan nan nan nan nan nan nan nan nan nan nan nan nan nan nan nan
